{"datasetJSONCreationDateTime": "2025-01-04T16:24:04", "datasetJSONVersion": "1.1.0", "fileOID": "UpdatedCDISCPILOT.CDISC SDTM.3.2.QSDA", "studyOID": "UpdatedCDISCPILOT.CDISC SDTM.3.2", "metaDataVersionOID": "MDV.UpdatedCDISCPILOT.CDISC SDTM.3.2", "itemGroupOID": "{QSDA", "records": 32920, "name": "QSDA", "label": "Questionnaires", "columns": [{"itemOID": "IT.QSDA.STUDYID", "name": "STUDYID", "label": "Study Identifier", "dataType": "string", "length": 12, "keySequence": 1}, {"itemOID": "IT.QSDA.DOMAIN", "name": "DOMAIN", "label": "Domain Abbreviation", "dataType": "string", "length": 2}, {"itemOID": "IT.QSDA.USUBJID", "name": "USUBJID", "label": "Unique Subject Identifier", "dataType": "string", "length": 11, "keySequence": 2}, {"itemOID": "IT.QSDA.QSSEQ", "name": "QSSEQ", "label": "Sequence Number", "dataType": "integer", "length": 8}, {"itemOID": "IT.QSDA.QSTESTCD", "name": "QSTESTCD", "label": "Question Short Name", "dataType": "string", "length": 8, "keySequence": 3}, {"itemOID": "IT.QSDA.QSTEST", "name": "QSTEST", "label": "Question Name", "dataType": "string", "length": 40}, {"itemOID": "IT.QSDA.QSCAT", "name": "QSCAT", "label": "Category of Question", "dataType": "string", "length": 70}, {"itemOID": "IT.QSDA.QSSCAT", "name": "QSSCAT", "label": "Subcategory for Question", "dataType": "string", "length": 26}, {"itemOID": "IT.QSDA.QSORRES", "name": "QSORRES", "label": "Finding in Original Units", "dataType": "string", "length": 20}, {"itemOID": "IT.QSDA.QSORRESU", "name": "QSORRESU", "label": "Original Units", "dataType": "string", "length": 7}, {"itemOID": "IT.QSDA.QSSTRESC", "name": "QSSTRESC", "label": "Character Result/Finding in Std Format", "dataType": "string", "length": 4}, {"itemOID": "IT.QSDA.QSSTRESN", "name": "QSSTRESN", "label": "Numeric Finding in Standard Units", "dataType": "integer", "length": 8}, {"itemOID": "IT.QSDA.QSSTRESU", "name": "QSSTRESU", "label": "Standard Units", "dataType": "string", "length": 7}, {"itemOID": "IT.QSDA.QSSTAT", "name": "QSSTAT", "label": "Completion Status", "dataType": "string", "length": 8}, {"itemOID": "IT.QSDA.QSREASND", "name": "QSREASND", "label": "Reason Not Performed", "dataType": "string", "length": 17}, {"itemOID": "IT.QSDA.QSBLFL", "name": "QSBLFL", "label": "Baseline Flag", "dataType": "string", "length": 1}, {"itemOID": "IT.QSDA.QSDRVFL", "name": "QSDRVFL", "label": "Derived Flag", "dataType": "string", "length": 1}, {"itemOID": "IT.QSDA.VISITNUM", "name": "VISITNUM", "label": "Visit Number", "dataType": "double", "length": 8, "keySequence": 4}, {"itemOID": "IT.QSDA.VISIT", "name": "VISIT", "label": "Visit Name", "dataType": "string", "length": 19}, {"itemOID": "IT.QSDA.VISITDY", "name": "VISITDY", "label": "Planned Study Day of Visit", "dataType": "integer", "length": 8}, {"itemOID": "IT.QSDA.EPOCH", "name": "EPOCH", "label": "Epoch", "dataType": "string", "length": 9}, {"itemOID": "IT.QSDA.QSDTC", "name": "QSDTC", "label": "Date/Time of Finding", "dataType": "string", "length": 10}, {"itemOID": "IT.QSDA.QSDY", "name": "QSDY", "label": "Study Day of Finding", "dataType": "integer", "length": 8}], "rows": [["CDISCPILOT01", "QS", "01-701-1015", 4001, "DAITM01", "UNDERTAKE TO WASH HIMSELF/HERSELF", "DAD", "HYGIENE", "Y", "", "1", 1, "", "", "", "Y", "", 3.0, "BASELINE", 1, "TREATMENT", "2014-01-02", 1], ["CDISCPILOT01", "QS", "01-701-1015", 4041, "DAITM01", "UNDERTAKE TO WASH HIMSELF/HERSELF", "DAD", "HYGIENE", "Y", "", "1", 1, "", "", "", "", "", 8.0, "WEEK 8", 56, "TREATMENT", "2014-03-05", 63], ["CDISCPILOT01", "QS", "01-701-1015", 4081, "DAITM01", "UNDERTAKE TO WASH HIMSELF/HERSELF", "DAD", "HYGIENE", "Y", "", "1", 1, "", "", "", "", "", 10.0, "WEEK 16", 112, "TREATMENT", "2014-05-07", 126], ["CDISCPILOT01", "QS", "01-701-1015", 4121, "DAITM01", "UNDERTAKE TO WASH HIMSELF/HERSELF", "DAD", "HYGIENE", "Y", "", "1", 1, "", "", "", "", "", 12.0, "WEEK 24", 168, "TREATMENT", "2014-06-18", 168], ["CDISCPILOT01", "QS", "01-701-1015", 4002, "DAITM02", "UNDERTAKE TO BRUSH HIS/HER TEETH", "DAD", "HYGIENE", "Y", "", "1", 1, "", "", "", "Y", "", 3.0, "BASELINE", 1, "TREATMENT", "2014-01-02", 1], ["CDISCPILOT01", "QS", "01-701-1015", 4042, "DAITM02", "UNDERTAKE TO BRUSH HIS/HER TEETH", "DAD", "HYGIENE", "Y", "", "1", 1, "", "", "", "", "", 8.0, "WEEK 8", 56, "TREATMENT", "2014-03-05", 63], ["CDISCPILOT01", "QS", "01-701-1015", 4082, "DAITM02", "UNDERTAKE TO BRUSH HIS/HER TEETH", "DAD", "HYGIENE", "Y", "", "1", 1, "", "", "", "", "", 10.0, "WEEK 16", 112, "TREATMENT", "2014-05-07", 126], ["CDISCPILOT01", "QS", "01-701-1015", 4122, "DAITM02", "UNDERTAKE TO BRUSH HIS/HER TEETH", "DAD", "HYGIENE", "Y", "", "1", 1, "", "", "", "", "", 12.0, "WEEK 24", 168, "TREATMENT", "2014-06-18", 168], ["CDISCPILOT01", "QS", "01-701-1015", 4003, "DAITM03", "DECIDE TO CARE FOR HIS/HER HAIR", "DAD", "HYGIENE", "Y", "", "1", 1, "", "", "", "Y", "", 3.0, "BASELINE", 1, "TREATMENT", "2014-01-02", 1], ["CDISCPILOT01", "QS", "01-701-1015", 4043, "DAITM03", "DECIDE TO CARE FOR HIS/HER HAIR", "DAD", "HYGIENE", "Y", "", "1", 1, "", "", "", "", "", 8.0, "WEEK 8", 56, "TREATMENT", "2014-03-05", 63], ["CDISCPILOT01", "QS", "01-701-1015", 4083, "DAITM03", "DECIDE TO CARE FOR HIS/HER HAIR", "DAD", "HYGIENE", "Y", "", "1", 1, "", "", "", "", "", 10.0, "WEEK 16", 112, "TREATMENT", "2014-05-07", 126], ["CDISCPILOT01", "QS", "01-701-1015", 4123, "DAITM03", "DECIDE TO CARE FOR HIS/HER HAIR", "DAD", "HYGIENE", "Y", "", "1", 1, "", "", "", "", "", 12.0, "WEEK 24", 168, "TREATMENT", "2014-06-18", 168], ["CDISCPILOT01", "QS", "01-701-1015", 4004, "DAITM04", "PREPARE FOR WASHING, TAKING A BATH", "DAD", "HYGIENE", "Y", "", "1", 1, "", "", "", "Y", "", 3.0, "BASELINE", 1, "TREATMENT", "2014-01-02", 1], ["CDISCPILOT01", "QS", "01-701-1015", 4044, "DAITM04", "PREPARE FOR WASHING, TAKING A BATH", "DAD", "HYGIENE", "Y", "", "1", 1, "", "", "", "", "", 8.0, "WEEK 8", 56, "TREATMENT", "2014-03-05", 63], ["CDISCPILOT01", "QS", "01-701-1015", 4084, "DAITM04", "PREPARE FOR WASHING, TAKING A BATH", "DAD", "HYGIENE", "Y", "", "1", 1, "", "", "", "", "", 10.0, "WEEK 16", 112, "TREATMENT", "2014-05-07", 126], ["CDISCPILOT01", "QS", "01-701-1015", 4124, "DAITM04", "PREPARE FOR WASHING, TAKING A BATH", "DAD", "HYGIENE", "Y", "", "1", 1, "", "", "", "", "", 12.0, "WEEK 24", 168, "TREATMENT", "2014-06-18", 168], ["CDISCPILOT01", "QS", "01-701-1015", 4005, "DAITM05", "WASH AND DRY COMPLETELY SAFELY", "DAD", "HYGIENE", "Y", "", "1", 1, "", "", "", "Y", "", 3.0, "BASELINE", 1, "TREATMENT", "2014-01-02", 1], ["CDISCPILOT01", "QS", "01-701-1015", 4045, "DAITM05", "WASH AND DRY COMPLETELY SAFELY", "DAD", "HYGIENE", "Y", "", "1", 1, "", "", "", "", "", 8.0, "WEEK 8", 56, "TREATMENT", "2014-03-05", 63], ["CDISCPILOT01", "QS", "01-701-1015", 4085, "DAITM05", "WASH AND DRY COMPLETELY SAFELY", "DAD", "HYGIENE", "Y", "", "1", 1, "", "", "", "", "", 10.0, "WEEK 16", 112, "TREATMENT", "2014-05-07", 126], ["CDISCPILOT01", "QS", "01-701-1015", 4125, "DAITM05", "WASH AND DRY COMPLETELY SAFELY", "DAD", "HYGIENE", "Y", "", "1", 1, "", "", "", "", "", 12.0, "WEEK 24", 168, "TREATMENT", "2014-06-18", 168], ["CDISCPILOT01", "QS", "01-701-1015", 4006, "DAITM06", "BRUSH HIS/HER TEETH", "DAD", "HYGIENE", "Y", "", "1", 1, "", "", "", "Y", "", 3.0, "BASELINE", 1, "TREATMENT", "2014-01-02", 1], ["CDISCPILOT01", "QS", "01-701-1015", 4046, "DAITM06", "BRUSH HIS/HER TEETH", "DAD", "HYGIENE", "Y", "", "1", 1, "", "", "", "", "", 8.0, "WEEK 8", 56, "TREATMENT", "2014-03-05", 63], ["CDISCPILOT01", "QS", "01-701-1015", 4086, "DAITM06", "BRUSH HIS/HER TEETH", "DAD", "HYGIENE", "Y", "", "1", 1, "", "", "", "", "", 10.0, "WEEK 16", 112, "TREATMENT", "2014-05-07", 126], ["CDISCPILOT01", "QS", "01-701-1015", 4126, "DAITM06", "BRUSH HIS/HER TEETH", "DAD", "HYGIENE", "Y", "", "1", 1, "", "", "", "", "", 12.0, "WEEK 24", 168, "TREATMENT", "2014-06-18", 168], ["CDISCPILOT01", "QS", "01-701-1015", 4007, "DAITM07", "CARE FOR HIS/HER HAIR", "DAD", "HYGIENE", "Y", "", "1", 1, "", "", "", "Y", "", 3.0, "BASELINE", 1, "TREATMENT", "2014-01-02", 1], ["CDISCPILOT01", "QS", "01-701-1015", 4047, "DAITM07", "CARE FOR HIS/HER HAIR", "DAD", "HYGIENE", "Y", "", "1", 1, "", "", "", "", "", 8.0, "WEEK 8", 56, "TREATMENT", "2014-03-05", 63], ["CDISCPILOT01", "QS", "01-701-1015", 4087, "DAITM07", "CARE FOR HIS/HER HAIR", "DAD", "HYGIENE", "Y", "", "1", 1, "", "", "", "", "", 10.0, "WEEK 16", 112, "TREATMENT", "2014-05-07", 126], ["CDISCPILOT01", "QS", "01-701-1015", 4127, "DAITM07", "CARE FOR HIS/HER HAIR", "DAD", "HYGIENE", "Y", "", "1", 1, "", "", "", "", "", 12.0, "WEEK 24", 168, "TREATMENT", "2014-06-18", 168], ["CDISCPILOT01", "QS", "01-701-1015", 4008, "DAITM08", "UNDERTAKE TO DRESS HIMSELF/HERSELF", "DAD", "DRESSING", "Y", "", "1", 1, "", "", "", "Y", "", 3.0, "BASELINE", 1, "TREATMENT", "2014-01-02", 1], ["CDISCPILOT01", "QS", "01-701-1015", 4048, "DAITM08", "UNDERTAKE TO DRESS HIMSELF/HERSELF", "DAD", "DRESSING", "Y", "", "1", 1, "", "", "", "", "", 8.0, "WEEK 8", 56, "TREATMENT", "2014-03-05", 63], ["CDISCPILOT01", "QS", "01-701-1015", 4088, "DAITM08", "UNDERTAKE TO DRESS HIMSELF/HERSELF", "DAD", "DRESSING", "Y", "", "1", 1, "", "", "", "", "", 10.0, "WEEK 16", 112, "TREATMENT", "2014-05-07", 126], ["CDISCPILOT01", "QS", "01-701-1015", 4128, "DAITM08", "UNDERTAKE TO DRESS HIMSELF/HERSELF", "DAD", "DRESSING", "Y", "", "1", 1, "", "", "", "", "", 12.0, "WEEK 24", 168, "TREATMENT", "2014-06-18", 168], ["CDISCPILOT01", "QS", "01-701-1015", 4009, "DAITM09", "CHOOSE APPROPRIATE CLOTHING", "DAD", "DRESSING", "Y", "", "1", 1, "", "", "", "Y", "", 3.0, "BASELINE", 1, "TREATMENT", "2014-01-02", 1], ["CDISCPILOT01", "QS", "01-701-1015", 4049, "DAITM09", "CHOOSE APPROPRIATE CLOTHING", "DAD", "DRESSING", "Y", "", "1", 1, "", "", "", "", "", 8.0, "WEEK 8", 56, "TREATMENT", "2014-03-05", 63], ["CDISCPILOT01", "QS", "01-701-1015", 4089, "DAITM09", "CHOOSE APPROPRIATE CLOTHING", "DAD", "DRESSING", "Y", "", "1", 1, "", "", "", "", "", 10.0, "WEEK 16", 112, "TREATMENT", "2014-05-07", 126], ["CDISCPILOT01", "QS", "01-701-1015", 4129, "DAITM09", "CHOOSE APPROPRIATE CLOTHING", "DAD", "DRESSING", "Y", "", "1", 1, "", "", "", "", "", 12.0, "WEEK 24", 168, "TREATMENT", "2014-06-18", 168], ["CDISCPILOT01", "QS", "01-701-1015", 4010, "DAITM10", "DRESS HIMSELF/HERSELF", "DAD", "DRESSING", "Y", "", "1", 1, "", "", "", "Y", "", 3.0, "BASELINE", 1, "TREATMENT", "2014-01-02", 1], ["CDISCPILOT01", "QS", "01-701-1015", 4050, "DAITM10", "DRESS HIMSELF/HERSELF", "DAD", "DRESSING", "Y", "", "1", 1, "", "", "", "", "", 8.0, "WEEK 8", 56, "TREATMENT", "2014-03-05", 63], ["CDISCPILOT01", "QS", "01-701-1015", 4090, "DAITM10", "DRESS HIMSELF/HERSELF", "DAD", "DRESSING", "Y", "", "1", 1, "", "", "", "", "", 10.0, "WEEK 16", 112, "TREATMENT", "2014-05-07", 126], ["CDISCPILOT01", "QS", "01-701-1015", 4130, "DAITM10", "DRESS HIMSELF/HERSELF", "DAD", "DRESSING", "Y", "", "1", 1, "", "", "", "", "", 12.0, "WEEK 24", 168, "TREATMENT", "2014-06-18", 168], ["CDISCPILOT01", "QS", "01-701-1015", 4011, "DAITM11", "DRESS HIMSELF/HERSELF COMPLETELY", "DAD", "DRESSING", "Y", "", "1", 1, "", "", "", "Y", "", 3.0, "BASELINE", 1, "TREATMENT", "2014-01-02", 1], ["CDISCPILOT01", "QS", "01-701-1015", 4051, "DAITM11", "DRESS HIMSELF/HERSELF COMPLETELY", "DAD", "DRESSING", "Y", "", "1", 1, "", "", "", "", "", 8.0, "WEEK 8", 56, "TREATMENT", "2014-03-05", 63], ["CDISCPILOT01", "QS", "01-701-1015", 4091, "DAITM11", "DRESS HIMSELF/HERSELF COMPLETELY", "DAD", "DRESSING", "Y", "", "1", 1, "", "", "", "", "", 10.0, "WEEK 16", 112, "TREATMENT", "2014-05-07", 126], ["CDISCPILOT01", "QS", "01-701-1015", 4131, "DAITM11", "DRESS HIMSELF/HERSELF COMPLETELY", "DAD", "DRESSING", "Y", "", "1", 1, "", "", "", "", "", 12.0, "WEEK 24", 168, "TREATMENT", "2014-06-18", 168], ["CDISCPILOT01", "QS", "01-701-1015", 4012, "DAITM12", "UNDRESS HIMSELF/HERSELF COMPLETELY", "DAD", "DRESSING", "Y", "", "1", 1, "", "", "", "Y", "", 3.0, "BASELINE", 1, "TREATMENT", "2014-01-02", 1], ["CDISCPILOT01", "QS", "01-701-1015", 4052, "DAITM12", "UNDRESS HIMSELF/HERSELF COMPLETELY", "DAD", "DRESSING", "Y", "", "1", 1, "", "", "", "", "", 8.0, "WEEK 8", 56, "TREATMENT", "2014-03-05", 63], ["CDISCPILOT01", "QS", "01-701-1015", 4092, "DAITM12", "UNDRESS HIMSELF/HERSELF COMPLETELY", "DAD", "DRESSING", "Y", "", "1", 1, "", "", "", "", "", 10.0, "WEEK 16", 112, "TREATMENT", "2014-05-07", 126], ["CDISCPILOT01", "QS", "01-701-1015", 4132, "DAITM12", "UNDRESS HIMSELF/HERSELF COMPLETELY", "DAD", "DRESSING", "Y", "", "1", 1, "", "", "", "", "", 12.0, "WEEK 24", 168, "TREATMENT", "2014-06-18", 168], ["CDISCPILOT01", "QS", "01-701-1015", 4013, "DAITM13", "DECIDE TO USE THE TOILET AT APPROPRIATE", "DAD", "CONTINENCE", "Y", "", "1", 1, "", "", "", "Y", "", 3.0, "BASELINE", 1, "TREATMENT", "2014-01-02", 1], ["CDISCPILOT01", "QS", "01-701-1015", 4053, "DAITM13", "DECIDE TO USE THE TOILET AT APPROPRIATE", "DAD", "CONTINENCE", "Y", "", "1", 1, "", "", "", "", "", 8.0, "WEEK 8", 56, "TREATMENT", "2014-03-05", 63], ["CDISCPILOT01", "QS", "01-701-1015", 4093, "DAITM13", "DECIDE TO USE THE TOILET AT APPROPRIATE", "DAD", "CONTINENCE", "Y", "", "1", 1, "", "", "", "", "", 10.0, "WEEK 16", 112, "TREATMENT", "2014-05-07", 126], ["CDISCPILOT01", "QS", "01-701-1015", 4133, "DAITM13", "DECIDE TO USE THE TOILET AT APPROPRIATE", "DAD", "CONTINENCE", "Y", "", "1", 1, "", "", "", "", "", 12.0, "WEEK 24", 168, "TREATMENT", "2014-06-18", 168], ["CDISCPILOT01", "QS", "01-701-1015", 4014, "DAITM14", "USE THE TOILET WITHOUT \"ACCIDENTS\"", "DAD", "CONTINENCE", "Y", "", "1", 1, "", "", "", "Y", "", 3.0, "BASELINE", 1, "TREATMENT", "2014-01-02", 1], ["CDISCPILOT01", "QS", "01-701-1015", 4054, "DAITM14", "USE THE TOILET WITHOUT \"ACCIDENTS\"", "DAD", "CONTINENCE", "Y", "", "1", 1, "", "", "", "", "", 8.0, "WEEK 8", 56, "TREATMENT", "2014-03-05", 63], ["CDISCPILOT01", "QS", "01-701-1015", 4094, "DAITM14", "USE THE TOILET WITHOUT \"ACCIDENTS\"", "DAD", "CONTINENCE", "Y", "", "1", 1, "", "", "", "", "", 10.0, "WEEK 16", 112, "TREATMENT", "2014-05-07", 126], ["CDISCPILOT01", "QS", "01-701-1015", 4134, "DAITM14", "USE THE TOILET WITHOUT \"ACCIDENTS\"", "DAD", "CONTINENCE", "Y", "", "1", 1, "", "", "", "", "", 12.0, "WEEK 24", 168, "TREATMENT", "2014-06-18", 168], ["CDISCPILOT01", "QS", "01-701-1015", 4015, "DAITM15", "DECIDE THAT HE/SHE NEEDS TO EAT", "DAD", "EATING", "Y", "", "1", 1, "", "", "", "Y", "", 3.0, "BASELINE", 1, "TREATMENT", "2014-01-02", 1], ["CDISCPILOT01", "QS", "01-701-1015", 4055, "DAITM15", "DECIDE THAT HE/SHE NEEDS TO EAT", "DAD", "EATING", "Y", "", "1", 1, "", "", "", "", "", 8.0, "WEEK 8", 56, "TREATMENT", "2014-03-05", 63], ["CDISCPILOT01", "QS", "01-701-1015", 4095, "DAITM15", "DECIDE THAT HE/SHE NEEDS TO EAT", "DAD", "EATING", "Y", "", "1", 1, "", "", "", "", "", 10.0, "WEEK 16", 112, "TREATMENT", "2014-05-07", 126], ["CDISCPILOT01", "QS", "01-701-1015", 4135, "DAITM15", "DECIDE THAT HE/SHE NEEDS TO EAT", "DAD", "EATING", "Y", "", "1", 1, "", "", "", "", "", 12.0, "WEEK 24", 168, "TREATMENT", "2014-06-18", 168], ["CDISCPILOT01", "QS", "01-701-1015", 4016, "DAITM16", "CHOOSE APPROPRIATE UTENSILS", "DAD", "EATING", "Y", "", "1", 1, "", "", "", "Y", "", 3.0, "BASELINE", 1, "TREATMENT", "2014-01-02", 1], ["CDISCPILOT01", "QS", "01-701-1015", 4056, "DAITM16", "CHOOSE APPROPRIATE UTENSILS", "DAD", "EATING", "Y", "", "1", 1, "", "", "", "", "", 8.0, "WEEK 8", 56, "TREATMENT", "2014-03-05", 63], ["CDISCPILOT01", "QS", "01-701-1015", 4096, "DAITM16", "CHOOSE APPROPRIATE UTENSILS", "DAD", "EATING", "Y", "", "1", 1, "", "", "", "", "", 10.0, "WEEK 16", 112, "TREATMENT", "2014-05-07", 126], ["CDISCPILOT01", "QS", "01-701-1015", 4136, "DAITM16", "CHOOSE APPROPRIATE UTENSILS", "DAD", "EATING", "Y", "", "1", 1, "", "", "", "", "", 12.0, "WEEK 24", 168, "TREATMENT", "2014-06-18", 168], ["CDISCPILOT01", "QS", "01-701-1015", 4017, "DAITM17", "EAT HIS/HER MEALS AT A NORMAL PACE", "DAD", "EATING", "Y", "", "1", 1, "", "", "", "Y", "", 3.0, "BASELINE", 1, "TREATMENT", "2014-01-02", 1], ["CDISCPILOT01", "QS", "01-701-1015", 4057, "DAITM17", "EAT HIS/HER MEALS AT A NORMAL PACE", "DAD", "EATING", "Y", "", "1", 1, "", "", "", "", "", 8.0, "WEEK 8", 56, "TREATMENT", "2014-03-05", 63], ["CDISCPILOT01", "QS", "01-701-1015", 4097, "DAITM17", "EAT HIS/HER MEALS AT A NORMAL PACE", "DAD", "EATING", "Y", "", "1", 1, "", "", "", "", "", 10.0, "WEEK 16", 112, "TREATMENT", "2014-05-07", 126], ["CDISCPILOT01", "QS", "01-701-1015", 4137, "DAITM17", "EAT HIS/HER MEALS AT A NORMAL PACE", "DAD", "EATING", "Y", "", "1", 1, "", "", "", "", "", 12.0, "WEEK 24", 168, "TREATMENT", "2014-06-18", 168], ["CDISCPILOT01", "QS", "01-701-1015", 4018, "DAITM18", "UNDERTAKE TO PREPARE A LIGHT MEAL", "DAD", "MEAL PREPARATION", "Y", "", "1", 1, "", "", "", "Y", "", 3.0, "BASELINE", 1, "TREATMENT", "2014-01-02", 1], ["CDISCPILOT01", "QS", "01-701-1015", 4058, "DAITM18", "UNDERTAKE TO PREPARE A LIGHT MEAL", "DAD", "MEAL PREPARATION", "Y", "", "1", 1, "", "", "", "", "", 8.0, "WEEK 8", 56, "TREATMENT", "2014-03-05", 63], ["CDISCPILOT01", "QS", "01-701-1015", 4098, "DAITM18", "UNDERTAKE TO PREPARE A LIGHT MEAL", "DAD", "MEAL PREPARATION", "Y", "", "1", 1, "", "", "", "", "", 10.0, "WEEK 16", 112, "TREATMENT", "2014-05-07", 126], ["CDISCPILOT01", "QS", "01-701-1015", 4138, "DAITM18", "UNDERTAKE TO PREPARE A LIGHT MEAL", "DAD", "MEAL PREPARATION", "Y", "", "1", 1, "", "", "", "", "", 12.0, "WEEK 24", 168, "TREATMENT", "2014-06-18", 168], ["CDISCPILOT01", "QS", "01-701-1015", 4019, "DAITM19", "ADEQUATELY PLAN A LIGHT MEAL OR SNACK", "DAD", "MEAL PREPARATION", "Y", "", "1", 1, "", "", "", "Y", "", 3.0, "BASELINE", 1, "TREATMENT", "2014-01-02", 1], ["CDISCPILOT01", "QS", "01-701-1015", 4059, "DAITM19", "ADEQUATELY PLAN A LIGHT MEAL OR SNACK", "DAD", "MEAL PREPARATION", "Y", "", "1", 1, "", "", "", "", "", 8.0, "WEEK 8", 56, "TREATMENT", "2014-03-05", 63], ["CDISCPILOT01", "QS", "01-701-1015", 4099, "DAITM19", "ADEQUATELY PLAN A LIGHT MEAL OR SNACK", "DAD", "MEAL PREPARATION", "Y", "", "1", 1, "", "", "", "", "", 10.0, "WEEK 16", 112, "TREATMENT", "2014-05-07", 126], ["CDISCPILOT01", "QS", "01-701-1015", 4139, "DAITM19", "ADEQUATELY PLAN A LIGHT MEAL OR SNACK", "DAD", "MEAL PREPARATION", "Y", "", "1", 1, "", "", "", "", "", 12.0, "WEEK 24", 168, "TREATMENT", "2014-06-18", 168], ["CDISCPILOT01", "QS", "01-701-1015", 4020, "DAITM20", "PREPARE OR COOK A LIGHT MEAL OR A SNACK", "DAD", "MEAL PREPARATION", "Y", "", "1", 1, "", "", "", "Y", "", 3.0, "BASELINE", 1, "TREATMENT", "2014-01-02", 1], ["CDISCPILOT01", "QS", "01-701-1015", 4060, "DAITM20", "PREPARE OR COOK A LIGHT MEAL OR A SNACK", "DAD", "MEAL PREPARATION", "Y", "", "1", 1, "", "", "", "", "", 8.0, "WEEK 8", 56, "TREATMENT", "2014-03-05", 63], ["CDISCPILOT01", "QS", "01-701-1015", 4100, "DAITM20", "PREPARE OR COOK A LIGHT MEAL OR A SNACK", "DAD", "MEAL PREPARATION", "Y", "", "1", 1, "", "", "", "", "", 10.0, "WEEK 16", 112, "TREATMENT", "2014-05-07", 126], ["CDISCPILOT01", "QS", "01-701-1015", 4140, "DAITM20", "PREPARE OR COOK A LIGHT MEAL OR A SNACK", "DAD", "MEAL PREPARATION", "Y", "", "1", 1, "", "", "", "", "", 12.0, "WEEK 24", 168, "TREATMENT", "2014-06-18", 168], ["CDISCPILOT01", "QS", "01-701-1015", 4021, "DAITM21", "ATTEMPT TO TELEPHONE SOMEONE", "DAD", "TELEPHONING", "Y", "", "1", 1, "", "", "", "Y", "", 3.0, "BASELINE", 1, "TREATMENT", "2014-01-02", 1], ["CDISCPILOT01", "QS", "01-701-1015", 4061, "DAITM21", "ATTEMPT TO TELEPHONE SOMEONE", "DAD", "TELEPHONING", "Y", "", "1", 1, "", "", "", "", "", 8.0, "WEEK 8", 56, "TREATMENT", "2014-03-05", 63], ["CDISCPILOT01", "QS", "01-701-1015", 4101, "DAITM21", "ATTEMPT TO TELEPHONE SOMEONE", "DAD", "TELEPHONING", "Y", "", "1", 1, "", "", "", "", "", 10.0, "WEEK 16", 112, "TREATMENT", "2014-05-07", 126], ["CDISCPILOT01", "QS", "01-701-1015", 4141, "DAITM21", "ATTEMPT TO TELEPHONE SOMEONE", "DAD", "TELEPHONING", "Y", "", "1", 1, "", "", "", "", "", 12.0, "WEEK 24", 168, "TREATMENT", "2014-06-18", 168], ["CDISCPILOT01", "QS", "01-701-1015", 4022, "DAITM22", "FIND AND DIAL A TELEPHONE NUMBER CORRECT", "DAD", "TELEPHONING", "Y", "", "1", 1, "", "", "", "Y", "", 3.0, "BASELINE", 1, "TREATMENT", "2014-01-02", 1], ["CDISCPILOT01", "QS", "01-701-1015", 4062, "DAITM22", "FIND AND DIAL A TELEPHONE NUMBER CORRECT", "DAD", "TELEPHONING", "Y", "", "1", 1, "", "", "", "", "", 8.0, "WEEK 8", 56, "TREATMENT", "2014-03-05", 63], ["CDISCPILOT01", "QS", "01-701-1015", 4102, "DAITM22", "FIND AND DIAL A TELEPHONE NUMBER CORRECT", "DAD", "TELEPHONING", "Y", "", "1", 1, "", "", "", "", "", 10.0, "WEEK 16", 112, "TREATMENT", "2014-05-07", 126], ["CDISCPILOT01", "QS", "01-701-1015", 4142, "DAITM22", "FIND AND DIAL A TELEPHONE NUMBER CORRECT", "DAD", "TELEPHONING", "Y", "", "1", 1, "", "", "", "", "", 12.0, "WEEK 24", 168, "TREATMENT", "2014-06-18", 168], ["CDISCPILOT01", "QS", "01-701-1015", 4023, "DAITM23", "CARRY OUT A TELEPHONE CONVERSATION", "DAD", "TELEPHONING", "Y", "", "1", 1, "", "", "", "Y", "", 3.0, "BASELINE", 1, "TREATMENT", "2014-01-02", 1], ["CDISCPILOT01", "QS", "01-701-1015", 4063, "DAITM23", "CARRY OUT A TELEPHONE CONVERSATION", "DAD", "TELEPHONING", "Y", "", "1", 1, "", "", "", "", "", 8.0, "WEEK 8", 56, "TREATMENT", "2014-03-05", 63], ["CDISCPILOT01", "QS", "01-701-1015", 4103, "DAITM23", "CARRY OUT A TELEPHONE CONVERSATION", "DAD", "TELEPHONING", "Y", "", "1", 1, "", "", "", "", "", 10.0, "WEEK 16", 112, "TREATMENT", "2014-05-07", 126], ["CDISCPILOT01", "QS", "01-701-1015", 4143, "DAITM23", "CARRY OUT A TELEPHONE CONVERSATION", "DAD", "TELEPHONING", "Y", "", "1", 1, "", "", "", "", "", 12.0, "WEEK 24", 168, "TREATMENT", "2014-06-18", 168], ["CDISCPILOT01", "QS", "01-701-1015", 4024, "DAITM24", "WRITE AND CONVEY A TELEPHONE MESSAGE", "DAD", "TELEPHONING", "Y", "", "1", 1, "", "", "", "Y", "", 3.0, "BASELINE", 1, "TREATMENT", "2014-01-02", 1], ["CDISCPILOT01", "QS", "01-701-1015", 4064, "DAITM24", "WRITE AND CONVEY A TELEPHONE MESSAGE", "DAD", "TELEPHONING", "Y", "", "1", 1, "", "", "", "", "", 8.0, "WEEK 8", 56, "TREATMENT", "2014-03-05", 63], ["CDISCPILOT01", "QS", "01-701-1015", 4104, "DAITM24", "WRITE AND CONVEY A TELEPHONE MESSAGE", "DAD", "TELEPHONING", "Y", "", "1", 1, "", "", "", "", "", 10.0, "WEEK 16", 112, "TREATMENT", "2014-05-07", 126], ["CDISCPILOT01", "QS", "01-701-1015", 4144, "DAITM24", "WRITE AND CONVEY A TELEPHONE MESSAGE", "DAD", "TELEPHONING", "Y", "", "1", 1, "", "", "", "", "", 12.0, "WEEK 24", 168, "TREATMENT", "2014-06-18", 168], ["CDISCPILOT01", "QS", "01-701-1015", 4025, "DAITM25", "UNDERTAKE TO GO OUT", "DAD", "GOING ON AN OUTING", "Y", "", "1", 1, "", "", "", "Y", "", 3.0, "BASELINE", 1, "TREATMENT", "2014-01-02", 1], ["CDISCPILOT01", "QS", "01-701-1015", 4065, "DAITM25", "UNDERTAKE TO GO OUT", "DAD", "GOING ON AN OUTING", "Y", "", "1", 1, "", "", "", "", "", 8.0, "WEEK 8", 56, "TREATMENT", "2014-03-05", 63], ["CDISCPILOT01", "QS", "01-701-1015", 4105, "DAITM25", "UNDERTAKE TO GO OUT", "DAD", "GOING ON AN OUTING", "Y", "", "1", 1, "", "", "", "", "", 10.0, "WEEK 16", 112, "TREATMENT", "2014-05-07", 126], ["CDISCPILOT01", "QS", "01-701-1015", 4145, "DAITM25", "UNDERTAKE TO GO OUT", "DAD", "GOING ON AN OUTING", "Y", "", "1", 1, "", "", "", "", "", 12.0, "WEEK 24", 168, "TREATMENT", "2014-06-18", 168], ["CDISCPILOT01", "QS", "01-701-1015", 4026, "DAITM26", "ADEQUATELY ORGANIZE AN OUTING", "DAD", "GOING ON AN OUTING", "Y", "", "1", 1, "", "", "", "Y", "", 3.0, "BASELINE", 1, "TREATMENT", "2014-01-02", 1], ["CDISCPILOT01", "QS", "01-701-1015", 4066, "DAITM26", "ADEQUATELY ORGANIZE AN OUTING", "DAD", "GOING ON AN OUTING", "Y", "", "1", 1, "", "", "", "", "", 8.0, "WEEK 8", 56, "TREATMENT", "2014-03-05", 63], ["CDISCPILOT01", "QS", "01-701-1015", 4106, "DAITM26", "ADEQUATELY ORGANIZE AN OUTING", "DAD", "GOING ON AN OUTING", "Y", "", "1", 1, "", "", "", "", "", 10.0, "WEEK 16", 112, "TREATMENT", "2014-05-07", 126], ["CDISCPILOT01", "QS", "01-701-1015", 4146, "DAITM26", "ADEQUATELY ORGANIZE AN OUTING", "DAD", "GOING ON AN OUTING", "Y", "", "1", 1, "", "", "", "", "", 12.0, "WEEK 24", 168, "TREATMENT", "2014-06-18", 168], ["CDISCPILOT01", "QS", "01-701-1015", 4027, "DAITM27", "GO OUT AND REACH A FAMILIAR DESTINATION", "DAD", "GOING ON AN OUTING", "Y", "", "1", 1, "", "", "", "Y", "", 3.0, "BASELINE", 1, "TREATMENT", "2014-01-02", 1], ["CDISCPILOT01", "QS", "01-701-1015", 4067, "DAITM27", "GO OUT AND REACH A FAMILIAR DESTINATION", "DAD", "GOING ON AN OUTING", "Y", "", "1", 1, "", "", "", "", "", 8.0, "WEEK 8", 56, "TREATMENT", "2014-03-05", 63], ["CDISCPILOT01", "QS", "01-701-1015", 4107, "DAITM27", "GO OUT AND REACH A FAMILIAR DESTINATION", "DAD", "GOING ON AN OUTING", "Y", "", "1", 1, "", "", "", "", "", 10.0, "WEEK 16", 112, "TREATMENT", "2014-05-07", 126], ["CDISCPILOT01", "QS", "01-701-1015", 4147, "DAITM27", "GO OUT AND REACH A FAMILIAR DESTINATION", "DAD", "GOING ON AN OUTING", "Y", "", "1", 1, "", "", "", "", "", 12.0, "WEEK 24", 168, "TREATMENT", "2014-06-18", 168], ["CDISCPILOT01", "QS", "01-701-1015", 4028, "DAITM28", "SAFELY TAKE CAR, BUS, TAXI", "DAD", "GOING ON AN OUTING", "Y", "", "1", 1, "", "", "", "Y", "", 3.0, "BASELINE", 1, "TREATMENT", "2014-01-02", 1], ["CDISCPILOT01", "QS", "01-701-1015", 4068, "DAITM28", "SAFELY TAKE CAR, BUS, TAXI", "DAD", "GOING ON AN OUTING", "Y", "", "1", 1, "", "", "", "", "", 8.0, "WEEK 8", 56, "TREATMENT", "2014-03-05", 63], ["CDISCPILOT01", "QS", "01-701-1015", 4108, "DAITM28", "SAFELY TAKE CAR, BUS, TAXI", "DAD", "GOING ON AN OUTING", "Y", "", "1", 1, "", "", "", "", "", 10.0, "WEEK 16", 112, "TREATMENT", "2014-05-07", 126], ["CDISCPILOT01", "QS", "01-701-1015", 4148, "DAITM28", "SAFELY TAKE CAR, BUS, TAXI", "DAD", "GOING ON AN OUTING", "Y", "", "1", 1, "", "", "", "", "", 12.0, "WEEK 24", 168, "TREATMENT", "2014-06-18", 168], ["CDISCPILOT01", "QS", "01-701-1015", 4029, "DAITM29", "RETURN FROM THE STORE", "DAD", "GOING ON AN OUTING", "Y", "", "1", 1, "", "", "", "Y", "", 3.0, "BASELINE", 1, "TREATMENT", "2014-01-02", 1], ["CDISCPILOT01", "QS", "01-701-1015", 4069, "DAITM29", "RETURN FROM THE STORE", "DAD", "GOING ON AN OUTING", "Y", "", "1", 1, "", "", "", "", "", 8.0, "WEEK 8", 56, "TREATMENT", "2014-03-05", 63], ["CDISCPILOT01", "QS", "01-701-1015", 4109, "DAITM29", "RETURN FROM THE STORE", "DAD", "GOING ON AN OUTING", "Y", "", "1", 1, "", "", "", "", "", 10.0, "WEEK 16", 112, "TREATMENT", "2014-05-07", 126], ["CDISCPILOT01", "QS", "01-701-1015", 4149, "DAITM29", "RETURN FROM THE STORE", "DAD", "GOING ON AN OUTING", "Y", "", "1", 1, "", "", "", "", "", 12.0, "WEEK 24", 168, "TREATMENT", "2014-06-18", 168], ["CDISCPILOT01", "QS", "01-701-1015", 4030, "DAITM30", "INTEREST IN HIS/HER PERSONAL AFFAIRS", "DAD", "FINANCE AND CORRESPONDE", "Y", "", "1", 1, "", "", "", "Y", "", 3.0, "BASELINE", 1, "TREATMENT", "2014-01-02", 1], ["CDISCPILOT01", "QS", "01-701-1015", 4070, "DAITM30", "INTEREST IN HIS/HER PERSONAL AFFAIRS", "DAD", "FINANCE AND CORRESPONDE", "Y", "", "1", 1, "", "", "", "", "", 8.0, "WEEK 8", 56, "TREATMENT", "2014-03-05", 63], ["CDISCPILOT01", "QS", "01-701-1015", 4110, "DAITM30", "INTEREST IN HIS/HER PERSONAL AFFAIRS", "DAD", "FINANCE AND CORRESPONDE", "Y", "", "1", 1, "", "", "", "", "", 10.0, "WEEK 16", 112, "TREATMENT", "2014-05-07", 126], ["CDISCPILOT01", "QS", "01-701-1015", 4150, "DAITM30", "INTEREST IN HIS/HER PERSONAL AFFAIRS", "DAD", "FINANCE AND CORRESPONDE", "Y", "", "1", 1, "", "", "", "", "", 12.0, "WEEK 24", 168, "TREATMENT", "2014-06-18", 168], ["CDISCPILOT01", "QS", "01-701-1015", 4031, "DAITM31", "PAY HIS/HER BILLS", "DAD", "FINANCE AND CORRESPONDE", "Y", "", "1", 1, "", "", "", "Y", "", 3.0, "BASELINE", 1, "TREATMENT", "2014-01-02", 1], ["CDISCPILOT01", "QS", "01-701-1015", 4071, "DAITM31", "PAY HIS/HER BILLS", "DAD", "FINANCE AND CORRESPONDE", "Y", "", "1", 1, "", "", "", "", "", 8.0, "WEEK 8", 56, "TREATMENT", "2014-03-05", 63], ["CDISCPILOT01", "QS", "01-701-1015", 4111, "DAITM31", "PAY HIS/HER BILLS", "DAD", "FINANCE AND CORRESPONDE", "Y", "", "1", 1, "", "", "", "", "", 10.0, "WEEK 16", 112, "TREATMENT", "2014-05-07", 126], ["CDISCPILOT01", "QS", "01-701-1015", 4151, "DAITM31", "PAY HIS/HER BILLS", "DAD", "FINANCE AND CORRESPONDE", "Y", "", "1", 1, "", "", "", "", "", 12.0, "WEEK 24", 168, "TREATMENT", "2014-06-18", 168], ["CDISCPILOT01", "QS", "01-701-1015", 4032, "DAITM32", "ORGANIZE HIS/HER CORRESPONDENCE", "DAD", "FINANCE AND CORRESPONDE", "Y", "", "1", 1, "", "", "", "Y", "", 3.0, "BASELINE", 1, "TREATMENT", "2014-01-02", 1], ["CDISCPILOT01", "QS", "01-701-1015", 4072, "DAITM32", "ORGANIZE HIS/HER CORRESPONDENCE", "DAD", "FINANCE AND CORRESPONDE", "Y", "", "1", 1, "", "", "", "", "", 8.0, "WEEK 8", 56, "TREATMENT", "2014-03-05", 63], ["CDISCPILOT01", "QS", "01-701-1015", 4112, "DAITM32", "ORGANIZE HIS/HER CORRESPONDENCE", "DAD", "FINANCE AND CORRESPONDE", "Y", "", "1", 1, "", "", "", "", "", 10.0, "WEEK 16", 112, "TREATMENT", "2014-05-07", 126], ["CDISCPILOT01", "QS", "01-701-1015", 4152, "DAITM32", "ORGANIZE HIS/HER CORRESPONDENCE", "DAD", "FINANCE AND CORRESPONDE", "Y", "", "1", 1, "", "", "", "", "", 12.0, "WEEK 24", 168, "TREATMENT", "2014-06-18", 168], ["CDISCPILOT01", "QS", "01-701-1015", 4033, "DAITM33", "HANDLE ADEQUATELY HIS/HER MONEY", "DAD", "FINANCE AND CORRESPONDE", "Y", "", "1", 1, "", "", "", "Y", "", 3.0, "BASELINE", 1, "TREATMENT", "2014-01-02", 1], ["CDISCPILOT01", "QS", "01-701-1015", 4073, "DAITM33", "HANDLE ADEQUATELY HIS/HER MONEY", "DAD", "FINANCE AND CORRESPONDE", "Y", "", "1", 1, "", "", "", "", "", 8.0, "WEEK 8", 56, "TREATMENT", "2014-03-05", 63], ["CDISCPILOT01", "QS", "01-701-1015", 4113, "DAITM33", "HANDLE ADEQUATELY HIS/HER MONEY", "DAD", "FINANCE AND CORRESPONDE", "Y", "", "1", 1, "", "", "", "", "", 10.0, "WEEK 16", 112, "TREATMENT", "2014-05-07", 126], ["CDISCPILOT01", "QS", "01-701-1015", 4153, "DAITM33", "HANDLE ADEQUATELY HIS/HER MONEY", "DAD", "FINANCE AND CORRESPONDE", "Y", "", "1", 1, "", "", "", "", "", 12.0, "WEEK 24", 168, "TREATMENT", "2014-06-18", 168], ["CDISCPILOT01", "QS", "01-701-1015", 4034, "DAITM34", "DECIDE TO TAKE HIS/HER MEDICATIONS", "DAD", "MEDICATIONS", "Y", "", "1", 1, "", "", "", "Y", "", 3.0, "BASELINE", 1, "TREATMENT", "2014-01-02", 1], ["CDISCPILOT01", "QS", "01-701-1015", 4074, "DAITM34", "DECIDE TO TAKE HIS/HER MEDICATIONS", "DAD", "MEDICATIONS", "Y", "", "1", 1, "", "", "", "", "", 8.0, "WEEK 8", 56, "TREATMENT", "2014-03-05", 63], ["CDISCPILOT01", "QS", "01-701-1015", 4114, "DAITM34", "DECIDE TO TAKE HIS/HER MEDICATIONS", "DAD", "MEDICATIONS", "Y", "", "1", 1, "", "", "", "", "", 10.0, "WEEK 16", 112, "TREATMENT", "2014-05-07", 126], ["CDISCPILOT01", "QS", "01-701-1015", 4154, "DAITM34", "DECIDE TO TAKE HIS/HER MEDICATIONS", "DAD", "MEDICATIONS", "Y", "", "1", 1, "", "", "", "", "", 12.0, "WEEK 24", 168, "TREATMENT", "2014-06-18", 168], ["CDISCPILOT01", "QS", "01-701-1015", 4035, "DAITM35", "TAKE HIS/HER MEDICATIONS AS PRESCRIBED", "DAD", "MEDICATIONS", "Y", "", "1", 1, "", "", "", "Y", "", 3.0, "BASELINE", 1, "TREATMENT", "2014-01-02", 1], ["CDISCPILOT01", "QS", "01-701-1015", 4075, "DAITM35", "TAKE HIS/HER MEDICATIONS AS PRESCRIBED", "DAD", "MEDICATIONS", "Y", "", "1", 1, "", "", "", "", "", 8.0, "WEEK 8", 56, "TREATMENT", "2014-03-05", 63], ["CDISCPILOT01", "QS", "01-701-1015", 4115, "DAITM35", "TAKE HIS/HER MEDICATIONS AS PRESCRIBED", "DAD", "MEDICATIONS", "Y", "", "1", 1, "", "", "", "", "", 10.0, "WEEK 16", 112, "TREATMENT", "2014-05-07", 126], ["CDISCPILOT01", "QS", "01-701-1015", 4155, "DAITM35", "TAKE HIS/HER MEDICATIONS AS PRESCRIBED", "DAD", "MEDICATIONS", "Y", "", "1", 1, "", "", "", "", "", 12.0, "WEEK 24", 168, "TREATMENT", "2014-06-18", 168], ["CDISCPILOT01", "QS", "01-701-1015", 4036, "DAITM36", "SHOW AN INTEREST IN LEISURE ACTIVITY", "DAD", "LEISURE AND HOUSEWORK", "Y", "", "1", 1, "", "", "", "Y", "", 3.0, "BASELINE", 1, "TREATMENT", "2014-01-02", 1], ["CDISCPILOT01", "QS", "01-701-1015", 4076, "DAITM36", "SHOW AN INTEREST IN LEISURE ACTIVITY", "DAD", "LEISURE AND HOUSEWORK", "Y", "", "1", 1, "", "", "", "", "", 8.0, "WEEK 8", 56, "TREATMENT", "2014-03-05", 63], ["CDISCPILOT01", "QS", "01-701-1015", 4116, "DAITM36", "SHOW AN INTEREST IN LEISURE ACTIVITY", "DAD", "LEISURE AND HOUSEWORK", "Y", "", "1", 1, "", "", "", "", "", 10.0, "WEEK 16", 112, "TREATMENT", "2014-05-07", 126], ["CDISCPILOT01", "QS", "01-701-1015", 4156, "DAITM36", "SHOW AN INTEREST IN LEISURE ACTIVITY", "DAD", "LEISURE AND HOUSEWORK", "Y", "", "1", 1, "", "", "", "", "", 12.0, "WEEK 24", 168, "TREATMENT", "2014-06-18", 168], ["CDISCPILOT01", "QS", "01-701-1015", 4037, "DAITM37", "TAKE AN INTEREST IN HOUSEHOLD CHORES", "DAD", "LEISURE AND HOUSEWORK", "Y", "", "1", 1, "", "", "", "Y", "", 3.0, "BASELINE", 1, "TREATMENT", "2014-01-02", 1], ["CDISCPILOT01", "QS", "01-701-1015", 4077, "DAITM37", "TAKE AN INTEREST IN HOUSEHOLD CHORES", "DAD", "LEISURE AND HOUSEWORK", "Y", "", "1", 1, "", "", "", "", "", 8.0, "WEEK 8", 56, "TREATMENT", "2014-03-05", 63], ["CDISCPILOT01", "QS", "01-701-1015", 4117, "DAITM37", "TAKE AN INTEREST IN HOUSEHOLD CHORES", "DAD", "LEISURE AND HOUSEWORK", "Y", "", "1", 1, "", "", "", "", "", 10.0, "WEEK 16", 112, "TREATMENT", "2014-05-07", 126], ["CDISCPILOT01", "QS", "01-701-1015", 4157, "DAITM37", "TAKE AN INTEREST IN HOUSEHOLD CHORES", "DAD", "LEISURE AND HOUSEWORK", "Y", "", "1", 1, "", "", "", "", "", 12.0, "WEEK 24", 168, "TREATMENT", "2014-06-18", 168], ["CDISCPILOT01", "QS", "01-701-1015", 4038, "DAITM38", "PLAN AND ORGANIZE HOUSEHOLD CHORES", "DAD", "LEISURE AND HOUSEWORK", "Y", "", "1", 1, "", "", "", "Y", "", 3.0, "BASELINE", 1, "TREATMENT", "2014-01-02", 1], ["CDISCPILOT01", "QS", "01-701-1015", 4078, "DAITM38", "PLAN AND ORGANIZE HOUSEHOLD CHORES", "DAD", "LEISURE AND HOUSEWORK", "Y", "", "1", 1, "", "", "", "", "", 8.0, "WEEK 8", 56, "TREATMENT", "2014-03-05", 63], ["CDISCPILOT01", "QS", "01-701-1015", 4118, "DAITM38", "PLAN AND ORGANIZE HOUSEHOLD CHORES", "DAD", "LEISURE AND HOUSEWORK", "Y", "", "1", 1, "", "", "", "", "", 10.0, "WEEK 16", 112, "TREATMENT", "2014-05-07", 126], ["CDISCPILOT01", "QS", "01-701-1015", 4158, "DAITM38", "PLAN AND ORGANIZE HOUSEHOLD CHORES", "DAD", "LEISURE AND HOUSEWORK", "Y", "", "1", 1, "", "", "", "", "", 12.0, "WEEK 24", 168, "TREATMENT", "2014-06-18", 168], ["CDISCPILOT01", "QS", "01-701-1015", 4039, "DAITM39", "COMPLETE HOUSEHOLD CHORES", "DAD", "LEISURE AND HOUSEWORK", "Y", "", "1", 1, "", "", "", "Y", "", 3.0, "BASELINE", 1, "TREATMENT", "2014-01-02", 1], ["CDISCPILOT01", "QS", "01-701-1015", 4079, "DAITM39", "COMPLETE HOUSEHOLD CHORES", "DAD", "LEISURE AND HOUSEWORK", "Y", "", "1", 1, "", "", "", "", "", 8.0, "WEEK 8", 56, "TREATMENT", "2014-03-05", 63], ["CDISCPILOT01", "QS", "01-701-1015", 4119, "DAITM39", "COMPLETE HOUSEHOLD CHORES", "DAD", "LEISURE AND HOUSEWORK", "Y", "", "1", 1, "", "", "", "", "", 10.0, "WEEK 16", 112, "TREATMENT", "2014-05-07", 126], ["CDISCPILOT01", "QS", "01-701-1015", 4159, "DAITM39", "COMPLETE HOUSEHOLD CHORES", "DAD", "LEISURE AND HOUSEWORK", "Y", "", "1", 1, "", "", "", "", "", 12.0, "WEEK 24", 168, "TREATMENT", "2014-06-18", 168], ["CDISCPILOT01", "QS", "01-701-1015", 4040, "DAITM40", "STAY SAFELY AT HOME BY HIMSELF/HERSELF", "DAD", "LEISURE AND HOUSEWORK", "Y", "", "1", 1, "", "", "", "Y", "", 3.0, "BASELINE", 1, "TREATMENT", "2014-01-02", 1], ["CDISCPILOT01", "QS", "01-701-1015", 4080, "DAITM40", "STAY SAFELY AT HOME BY HIMSELF/HERSELF", "DAD", "LEISURE AND HOUSEWORK", "Y", "", "1", 1, "", "", "", "", "", 8.0, "WEEK 8", 56, "TREATMENT", "2014-03-05", 63], ["CDISCPILOT01", "QS", "01-701-1015", 4120, "DAITM40", "STAY SAFELY AT HOME BY HIMSELF/HERSELF", "DAD", "LEISURE AND HOUSEWORK", "Y", "", "1", 1, "", "", "", "", "", 10.0, "WEEK 16", 112, "TREATMENT", "2014-05-07", 126], ["CDISCPILOT01", "QS", "01-701-1015", 4160, "DAITM40", "STAY SAFELY AT HOME BY HIMSELF/HERSELF", "DAD", "LEISURE AND HOUSEWORK", "Y", "", "1", 1, "", "", "", "", "", 12.0, "WEEK 24", 168, "TREATMENT", "2014-06-18", 168], ["CDISCPILOT01", "QS", "01-701-1023", 4001, "DAITM01", "UNDERTAKE TO WASH HIMSELF/HERSELF", "DAD", "HYGIENE", "Y", "", "1", 1, "", "", "", "Y", "", 3.0, "BASELINE", 1, "TREATMENT", "2012-08-05", 1], ["CDISCPILOT01", "QS", "01-701-1023", 4041, "DAITM01", "UNDERTAKE TO WASH HIMSELF/HERSELF", "DAD", "HYGIENE", "Y", "", "1", 1, "", "", "", "", "", 5.0, "WEEK 4", 28, "TREATMENT", "2012-09-02", 29], ["CDISCPILOT01", "QS", "01-701-1023", 4081, "DAITM01", "UNDERTAKE TO WASH HIMSELF/HERSELF", "DAD", "HYGIENE", "Y", "", "1", 1, "", "", "", "", "", 201.0, "RETRIEVAL", 168, "TREATMENT", "2013-02-18", 198], ["CDISCPILOT01", "QS", "01-701-1023", 4002, "DAITM02", "UNDERTAKE TO BRUSH HIS/HER TEETH", "DAD", "HYGIENE", "Y", "", "1", 1, "", "", "", "Y", "", 3.0, "BASELINE", 1, "TREATMENT", "2012-08-05", 1], ["CDISCPILOT01", "QS", "01-701-1023", 4042, "DAITM02", "UNDERTAKE TO BRUSH HIS/HER TEETH", "DAD", "HYGIENE", "Y", "", "1", 1, "", "", "", "", "", 5.0, "WEEK 4", 28, "TREATMENT", "2012-09-02", 29], ["CDISCPILOT01", "QS", "01-701-1023", 4082, "DAITM02", "UNDERTAKE TO BRUSH HIS/HER TEETH", "DAD", "HYGIENE", "Y", "", "1", 1, "", "", "", "", "", 201.0, "RETRIEVAL", 168, "TREATMENT", "2013-02-18", 198], ["CDISCPILOT01", "QS", "01-701-1023", 4003, "DAITM03", "DECIDE TO CARE FOR HIS/HER HAIR", "DAD", "HYGIENE", "Y", "", "1", 1, "", "", "", "Y", "", 3.0, "BASELINE", 1, "TREATMENT", "2012-08-05", 1], ["CDISCPILOT01", "QS", "01-701-1023", 4043, "DAITM03", "DECIDE TO CARE FOR HIS/HER HAIR", "DAD", "HYGIENE", "Y", "", "1", 1, "", "", "", "", "", 5.0, "WEEK 4", 28, "TREATMENT", "2012-09-02", 29], ["CDISCPILOT01", "QS", "01-701-1023", 4083, "DAITM03", "DECIDE TO CARE FOR HIS/HER HAIR", "DAD", "HYGIENE", "Y", "", "1", 1, "", "", "", "", "", 201.0, "RETRIEVAL", 168, "TREATMENT", "2013-02-18", 198], ["CDISCPILOT01", "QS", "01-701-1023", 4004, "DAITM04", "PREPARE FOR WASHING, TAKING A BATH", "DAD", "HYGIENE", "Y", "", "1", 1, "", "", "", "Y", "", 3.0, "BASELINE", 1, "TREATMENT", "2012-08-05", 1], ["CDISCPILOT01", "QS", "01-701-1023", 4044, "DAITM04", "PREPARE FOR WASHING, TAKING A BATH", "DAD", "HYGIENE", "Y", "", "1", 1, "", "", "", "", "", 5.0, "WEEK 4", 28, "TREATMENT", "2012-09-02", 29], ["CDISCPILOT01", "QS", "01-701-1023", 4084, "DAITM04", "PREPARE FOR WASHING, TAKING A BATH", "DAD", "HYGIENE", "Y", "", "1", 1, "", "", "", "", "", 201.0, "RETRIEVAL", 168, "TREATMENT", "2013-02-18", 198], ["CDISCPILOT01", "QS", "01-701-1023", 4005, "DAITM05", "WASH AND DRY COMPLETELY SAFELY", "DAD", "HYGIENE", "Y", "", "1", 1, "", "", "", "Y", "", 3.0, "BASELINE", 1, "TREATMENT", "2012-08-05", 1], ["CDISCPILOT01", "QS", "01-701-1023", 4045, "DAITM05", "WASH AND DRY COMPLETELY SAFELY", "DAD", "HYGIENE", "Y", "", "1", 1, "", "", "", "", "", 5.0, "WEEK 4", 28, "TREATMENT", "2012-09-02", 29], ["CDISCPILOT01", "QS", "01-701-1023", 4085, "DAITM05", "WASH AND DRY COMPLETELY SAFELY", "DAD", "HYGIENE", "Y", "", "1", 1, "", "", "", "", "", 201.0, "RETRIEVAL", 168, "TREATMENT", "2013-02-18", 198], ["CDISCPILOT01", "QS", "01-701-1023", 4006, "DAITM06", "BRUSH HIS/HER TEETH", "DAD", "HYGIENE", "Y", "", "1", 1, "", "", "", "Y", "", 3.0, "BASELINE", 1, "TREATMENT", "2012-08-05", 1], ["CDISCPILOT01", "QS", "01-701-1023", 4046, "DAITM06", "BRUSH HIS/HER TEETH", "DAD", "HYGIENE", "Y", "", "1", 1, "", "", "", "", "", 5.0, "WEEK 4", 28, "TREATMENT", "2012-09-02", 29], ["CDISCPILOT01", "QS", "01-701-1023", 4086, "DAITM06", "BRUSH HIS/HER TEETH", "DAD", "HYGIENE", "Y", "", "1", 1, "", "", "", "", "", 201.0, "RETRIEVAL", 168, "TREATMENT", "2013-02-18", 198], ["CDISCPILOT01", "QS", "01-701-1023", 4007, "DAITM07", "CARE FOR HIS/HER HAIR", "DAD", "HYGIENE", "Y", "", "1", 1, "", "", "", "Y", "", 3.0, "BASELINE", 1, "TREATMENT", "2012-08-05", 1], ["CDISCPILOT01", "QS", "01-701-1023", 4047, "DAITM07", "CARE FOR HIS/HER HAIR", "DAD", "HYGIENE", "Y", "", "1", 1, "", "", "", "", "", 5.0, "WEEK 4", 28, "TREATMENT", "2012-09-02", 29], ["CDISCPILOT01", "QS", "01-701-1023", 4087, "DAITM07", "CARE FOR HIS/HER HAIR", "DAD", "HYGIENE", "Y", "", "1", 1, "", "", "", "", "", 201.0, "RETRIEVAL", 168, "TREATMENT", "2013-02-18", 198], ["CDISCPILOT01", "QS", "01-701-1023", 4008, "DAITM08", "UNDERTAKE TO DRESS HIMSELF/HERSELF", "DAD", "DRESSING", "Y", "", "1", 1, "", "", "", "Y", "", 3.0, "BASELINE", 1, "TREATMENT", "2012-08-05", 1], ["CDISCPILOT01", "QS", "01-701-1023", 4048, "DAITM08", "UNDERTAKE TO DRESS HIMSELF/HERSELF", "DAD", "DRESSING", "Y", "", "1", 1, "", "", "", "", "", 5.0, "WEEK 4", 28, "TREATMENT", "2012-09-02", 29], ["CDISCPILOT01", "QS", "01-701-1023", 4088, "DAITM08", "UNDERTAKE TO DRESS HIMSELF/HERSELF", "DAD", "DRESSING", "Y", "", "1", 1, "", "", "", "", "", 201.0, "RETRIEVAL", 168, "TREATMENT", "2013-02-18", 198], ["CDISCPILOT01", "QS", "01-701-1023", 4009, "DAITM09", "CHOOSE APPROPRIATE CLOTHING", "DAD", "DRESSING", "Y", "", "1", 1, "", "", "", "Y", "", 3.0, "BASELINE", 1, "TREATMENT", "2012-08-05", 1], ["CDISCPILOT01", "QS", "01-701-1023", 4049, "DAITM09", "CHOOSE APPROPRIATE CLOTHING", "DAD", "DRESSING", "Y", "", "1", 1, "", "", "", "", "", 5.0, "WEEK 4", 28, "TREATMENT", "2012-09-02", 29], ["CDISCPILOT01", "QS", "01-701-1023", 4089, "DAITM09", "CHOOSE APPROPRIATE CLOTHING", "DAD", "DRESSING", "Y", "", "1", 1, "", "", "", "", "", 201.0, "RETRIEVAL", 168, "TREATMENT", "2013-02-18", 198], ["CDISCPILOT01", "QS", "01-701-1023", 4010, "DAITM10", "DRESS HIMSELF/HERSELF", "DAD", "DRESSING", "Y", "", "1", 1, "", "", "", "Y", "", 3.0, "BASELINE", 1, "TREATMENT", "2012-08-05", 1], ["CDISCPILOT01", "QS", "01-701-1023", 4050, "DAITM10", "DRESS HIMSELF/HERSELF", "DAD", "DRESSING", "Y", "", "1", 1, "", "", "", "", "", 5.0, "WEEK 4", 28, "TREATMENT", "2012-09-02", 29], ["CDISCPILOT01", "QS", "01-701-1023", 4090, "DAITM10", "DRESS HIMSELF/HERSELF", "DAD", "DRESSING", "Y", "", "1", 1, "", "", "", "", "", 201.0, "RETRIEVAL", 168, "TREATMENT", "2013-02-18", 198], ["CDISCPILOT01", "QS", "01-701-1023", 4011, "DAITM11", "DRESS HIMSELF/HERSELF COMPLETELY", "DAD", "DRESSING", "Y", "", "1", 1, "", "", "", "Y", "", 3.0, "BASELINE", 1, "TREATMENT", "2012-08-05", 1], ["CDISCPILOT01", "QS", "01-701-1023", 4051, "DAITM11", "DRESS HIMSELF/HERSELF COMPLETELY", "DAD", "DRESSING", "Y", "", "1", 1, "", "", "", "", "", 5.0, "WEEK 4", 28, "TREATMENT", "2012-09-02", 29], ["CDISCPILOT01", "QS", "01-701-1023", 4091, "DAITM11", "DRESS HIMSELF/HERSELF COMPLETELY", "DAD", "DRESSING", "Y", "", "1", 1, "", "", "", "", "", 201.0, "RETRIEVAL", 168, "TREATMENT", "2013-02-18", 198], ["CDISCPILOT01", "QS", "01-701-1023", 4012, "DAITM12", "UNDRESS HIMSELF/HERSELF COMPLETELY", "DAD", "DRESSING", "Y", "", "1", 1, "", "", "", "Y", "", 3.0, "BASELINE", 1, "TREATMENT", "2012-08-05", 1], ["CDISCPILOT01", "QS", "01-701-1023", 4052, "DAITM12", "UNDRESS HIMSELF/HERSELF COMPLETELY", "DAD", "DRESSING", "Y", "", "1", 1, "", "", "", "", "", 5.0, "WEEK 4", 28, "TREATMENT", "2012-09-02", 29], ["CDISCPILOT01", "QS", "01-701-1023", 4092, "DAITM12", "UNDRESS HIMSELF/HERSELF COMPLETELY", "DAD", "DRESSING", "Y", "", "1", 1, "", "", "", "", "", 201.0, "RETRIEVAL", 168, "TREATMENT", "2013-02-18", 198], ["CDISCPILOT01", "QS", "01-701-1023", 4013, "DAITM13", "DECIDE TO USE THE TOILET AT APPROPRIATE", "DAD", "CONTINENCE", "Y", "", "1", 1, "", "", "", "Y", "", 3.0, "BASELINE", 1, "TREATMENT", "2012-08-05", 1], ["CDISCPILOT01", "QS", "01-701-1023", 4053, "DAITM13", "DECIDE TO USE THE TOILET AT APPROPRIATE", "DAD", "CONTINENCE", "Y", "", "1", 1, "", "", "", "", "", 5.0, "WEEK 4", 28, "TREATMENT", "2012-09-02", 29], ["CDISCPILOT01", "QS", "01-701-1023", 4093, "DAITM13", "DECIDE TO USE THE TOILET AT APPROPRIATE", "DAD", "CONTINENCE", "Y", "", "1", 1, "", "", "", "", "", 201.0, "RETRIEVAL", 168, "TREATMENT", "2013-02-18", 198], ["CDISCPILOT01", "QS", "01-701-1023", 4014, "DAITM14", "USE THE TOILET WITHOUT \"ACCIDENTS\"", "DAD", "CONTINENCE", "Y", "", "1", 1, "", "", "", "Y", "", 3.0, "BASELINE", 1, "TREATMENT", "2012-08-05", 1], ["CDISCPILOT01", "QS", "01-701-1023", 4054, "DAITM14", "USE THE TOILET WITHOUT \"ACCIDENTS\"", "DAD", "CONTINENCE", "Y", "", "1", 1, "", "", "", "", "", 5.0, "WEEK 4", 28, "TREATMENT", "2012-09-02", 29], ["CDISCPILOT01", "QS", "01-701-1023", 4094, "DAITM14", "USE THE TOILET WITHOUT \"ACCIDENTS\"", "DAD", "CONTINENCE", "Y", "", "1", 1, "", "", "", "", "", 201.0, "RETRIEVAL", 168, "TREATMENT", "2013-02-18", 198], ["CDISCPILOT01", "QS", "01-701-1023", 4015, "DAITM15", "DECIDE THAT HE/SHE NEEDS TO EAT", "DAD", "EATING", "Y", "", "1", 1, "", "", "", "Y", "", 3.0, "BASELINE", 1, "TREATMENT", "2012-08-05", 1], ["CDISCPILOT01", "QS", "01-701-1023", 4055, "DAITM15", "DECIDE THAT HE/SHE NEEDS TO EAT", "DAD", "EATING", "Y", "", "1", 1, "", "", "", "", "", 5.0, "WEEK 4", 28, "TREATMENT", "2012-09-02", 29], ["CDISCPILOT01", "QS", "01-701-1023", 4095, "DAITM15", "DECIDE THAT HE/SHE NEEDS TO EAT", "DAD", "EATING", "Y", "", "1", 1, "", "", "", "", "", 201.0, "RETRIEVAL", 168, "TREATMENT", "2013-02-18", 198], ["CDISCPILOT01", "QS", "01-701-1023", 4016, "DAITM16", "CHOOSE APPROPRIATE UTENSILS", "DAD", "EATING", "Y", "", "1", 1, "", "", "", "Y", "", 3.0, "BASELINE", 1, "TREATMENT", "2012-08-05", 1], ["CDISCPILOT01", "QS", "01-701-1023", 4056, "DAITM16", "CHOOSE APPROPRIATE UTENSILS", "DAD", "EATING", "Y", "", "1", 1, "", "", "", "", "", 5.0, "WEEK 4", 28, "TREATMENT", "2012-09-02", 29], ["CDISCPILOT01", "QS", "01-701-1023", 4096, "DAITM16", "CHOOSE APPROPRIATE UTENSILS", "DAD", "EATING", "N", "", "0", 0, "", "", "", "", "", 201.0, "RETRIEVAL", 168, "TREATMENT", "2013-02-18", 198], ["CDISCPILOT01", "QS", "01-701-1023", 4017, "DAITM17", "EAT HIS/HER MEALS AT A NORMAL PACE", "DAD", "EATING", "Y", "", "1", 1, "", "", "", "Y", "", 3.0, "BASELINE", 1, "TREATMENT", "2012-08-05", 1], ["CDISCPILOT01", "QS", "01-701-1023", 4057, "DAITM17", "EAT HIS/HER MEALS AT A NORMAL PACE", "DAD", "EATING", "Y", "", "1", 1, "", "", "", "", "", 5.0, "WEEK 4", 28, "TREATMENT", "2012-09-02", 29], ["CDISCPILOT01", "QS", "01-701-1023", 4097, "DAITM17", "EAT HIS/HER MEALS AT A NORMAL PACE", "DAD", "EATING", "Y", "", "1", 1, "", "", "", "", "", 201.0, "RETRIEVAL", 168, "TREATMENT", "2013-02-18", 198], ["CDISCPILOT01", "QS", "01-701-1023", 4018, "DAITM18", "UNDERTAKE TO PREPARE A LIGHT MEAL", "DAD", "MEAL PREPARATION", "Y", "", "1", 1, "", "", "", "Y", "", 3.0, "BASELINE", 1, "TREATMENT", "2012-08-05", 1], ["CDISCPILOT01", "QS", "01-701-1023", 4058, "DAITM18", "UNDERTAKE TO PREPARE A LIGHT MEAL", "DAD", "MEAL PREPARATION", "Y", "", "1", 1, "", "", "", "", "", 5.0, "WEEK 4", 28, "TREATMENT", "2012-09-02", 29], ["CDISCPILOT01", "QS", "01-701-1023", 4098, "DAITM18", "UNDERTAKE TO PREPARE A LIGHT MEAL", "DAD", "MEAL PREPARATION", "Y", "", "1", 1, "", "", "", "", "", 201.0, "RETRIEVAL", 168, "TREATMENT", "2013-02-18", 198], ["CDISCPILOT01", "QS", "01-701-1023", 4019, "DAITM19", "ADEQUATELY PLAN A LIGHT MEAL OR SNACK", "DAD", "MEAL PREPARATION", "Y", "", "1", 1, "", "", "", "Y", "", 3.0, "BASELINE", 1, "TREATMENT", "2012-08-05", 1], ["CDISCPILOT01", "QS", "01-701-1023", 4059, "DAITM19", "ADEQUATELY PLAN A LIGHT MEAL OR SNACK", "DAD", "MEAL PREPARATION", "Y", "", "1", 1, "", "", "", "", "", 5.0, "WEEK 4", 28, "TREATMENT", "2012-09-02", 29], ["CDISCPILOT01", "QS", "01-701-1023", 4099, "DAITM19", "ADEQUATELY PLAN A LIGHT MEAL OR SNACK", "DAD", "MEAL PREPARATION", "Y", "", "1", 1, "", "", "", "", "", 201.0, "RETRIEVAL", 168, "TREATMENT", "2013-02-18", 198], ["CDISCPILOT01", "QS", "01-701-1023", 4020, "DAITM20", "PREPARE OR COOK A LIGHT MEAL OR A SNACK", "DAD", "MEAL PREPARATION", "Y", "", "1", 1, "", "", "", "Y", "", 3.0, "BASELINE", 1, "TREATMENT", "2012-08-05", 1], ["CDISCPILOT01", "QS", "01-701-1023", 4060, "DAITM20", "PREPARE OR COOK A LIGHT MEAL OR A SNACK", "DAD", "MEAL PREPARATION", "Y", "", "1", 1, "", "", "", "", "", 5.0, "WEEK 4", 28, "TREATMENT", "2012-09-02", 29], ["CDISCPILOT01", "QS", "01-701-1023", 4100, "DAITM20", "PREPARE OR COOK A LIGHT MEAL OR A SNACK", "DAD", "MEAL PREPARATION", "Y", "", "1", 1, "", "", "", "", "", 201.0, "RETRIEVAL", 168, "TREATMENT", "2013-02-18", 198], ["CDISCPILOT01", "QS", "01-701-1023", 4021, "DAITM21", "ATTEMPT TO TELEPHONE SOMEONE", "DAD", "TELEPHONING", "Y", "", "1", 1, "", "", "", "Y", "", 3.0, "BASELINE", 1, "TREATMENT", "2012-08-05", 1], ["CDISCPILOT01", "QS", "01-701-1023", 4061, "DAITM21", "ATTEMPT TO TELEPHONE SOMEONE", "DAD", "TELEPHONING", "Y", "", "1", 1, "", "", "", "", "", 5.0, "WEEK 4", 28, "TREATMENT", "2012-09-02", 29], ["CDISCPILOT01", "QS", "01-701-1023", 4101, "DAITM21", "ATTEMPT TO TELEPHONE SOMEONE", "DAD", "TELEPHONING", "Y", "", "1", 1, "", "", "", "", "", 201.0, "RETRIEVAL", 168, "TREATMENT", "2013-02-18", 198], ["CDISCPILOT01", "QS", "01-701-1023", 4022, "DAITM22", "FIND AND DIAL A TELEPHONE NUMBER CORRECT", "DAD", "TELEPHONING", "Y", "", "1", 1, "", "", "", "Y", "", 3.0, "BASELINE", 1, "TREATMENT", "2012-08-05", 1], ["CDISCPILOT01", "QS", "01-701-1023", 4062, "DAITM22", "FIND AND DIAL A TELEPHONE NUMBER CORRECT", "DAD", "TELEPHONING", "Y", "", "1", 1, "", "", "", "", "", 5.0, "WEEK 4", 28, "TREATMENT", "2012-09-02", 29], ["CDISCPILOT01", "QS", "01-701-1023", 4102, "DAITM22", "FIND AND DIAL A TELEPHONE NUMBER CORRECT", "DAD", "TELEPHONING", "Y", "", "1", 1, "", "", "", "", "", 201.0, "RETRIEVAL", 168, "TREATMENT", "2013-02-18", 198], ["CDISCPILOT01", "QS", "01-701-1023", 4023, "DAITM23", "CARRY OUT A TELEPHONE CONVERSATION", "DAD", "TELEPHONING", "Y", "", "1", 1, "", "", "", "Y", "", 3.0, "BASELINE", 1, "TREATMENT", "2012-08-05", 1], ["CDISCPILOT01", "QS", "01-701-1023", 4063, "DAITM23", "CARRY OUT A TELEPHONE CONVERSATION", "DAD", "TELEPHONING", "Y", "", "1", 1, "", "", "", "", "", 5.0, "WEEK 4", 28, "TREATMENT", "2012-09-02", 29], ["CDISCPILOT01", "QS", "01-701-1023", 4103, "DAITM23", "CARRY OUT A TELEPHONE CONVERSATION", "DAD", "TELEPHONING", "Y", "", "1", 1, "", "", "", "", "", 201.0, "RETRIEVAL", 168, "TREATMENT", "2013-02-18", 198], ["CDISCPILOT01", "QS", "01-701-1023", 4024, "DAITM24", "WRITE AND CONVEY A TELEPHONE MESSAGE", "DAD", "TELEPHONING", "Y", "", "1", 1, "", "", "", "Y", "", 3.0, "BASELINE", 1, "TREATMENT", "2012-08-05", 1], ["CDISCPILOT01", "QS", "01-701-1023", 4064, "DAITM24", "WRITE AND CONVEY A TELEPHONE MESSAGE", "DAD", "TELEPHONING", "Y", "", "1", 1, "", "", "", "", "", 5.0, "WEEK 4", 28, "TREATMENT", "2012-09-02", 29], ["CDISCPILOT01", "QS", "01-701-1023", 4104, "DAITM24", "WRITE AND CONVEY A TELEPHONE MESSAGE", "DAD", "TELEPHONING", "N", "", "0", 0, "", "", "", "", "", 201.0, "RETRIEVAL", 168, "TREATMENT", "2013-02-18", 198], ["CDISCPILOT01", "QS", "01-701-1023", 4025, "DAITM25", "UNDERTAKE TO GO OUT", "DAD", "GOING ON AN OUTING", "Y", "", "1", 1, "", "", "", "Y", "", 3.0, "BASELINE", 1, "TREATMENT", "2012-08-05", 1], ["CDISCPILOT01", "QS", "01-701-1023", 4065, "DAITM25", "UNDERTAKE TO GO OUT", "DAD", "GOING ON AN OUTING", "Y", "", "1", 1, "", "", "", "", "", 5.0, "WEEK 4", 28, "TREATMENT", "2012-09-02", 29], ["CDISCPILOT01", "QS", "01-701-1023", 4105, "DAITM25", "UNDERTAKE TO GO OUT", "DAD", "GOING ON AN OUTING", "Y", "", "1", 1, "", "", "", "", "", 201.0, "RETRIEVAL", 168, "TREATMENT", "2013-02-18", 198], ["CDISCPILOT01", "QS", "01-701-1023", 4026, "DAITM26", "ADEQUATELY ORGANIZE AN OUTING", "DAD", "GOING ON AN OUTING", "Y", "", "1", 1, "", "", "", "Y", "", 3.0, "BASELINE", 1, "TREATMENT", "2012-08-05", 1], ["CDISCPILOT01", "QS", "01-701-1023", 4066, "DAITM26", "ADEQUATELY ORGANIZE AN OUTING", "DAD", "GOING ON AN OUTING", "Y", "", "1", 1, "", "", "", "", "", 5.0, "WEEK 4", 28, "TREATMENT", "2012-09-02", 29], ["CDISCPILOT01", "QS", "01-701-1023", 4106, "DAITM26", "ADEQUATELY ORGANIZE AN OUTING", "DAD", "GOING ON AN OUTING", "Y", "", "1", 1, "", "", "", "", "", 201.0, "RETRIEVAL", 168, "TREATMENT", "2013-02-18", 198], ["CDISCPILOT01", "QS", "01-701-1023", 4027, "DAITM27", "GO OUT AND REACH A FAMILIAR DESTINATION", "DAD", "GOING ON AN OUTING", "Y", "", "1", 1, "", "", "", "Y", "", 3.0, "BASELINE", 1, "TREATMENT", "2012-08-05", 1], ["CDISCPILOT01", "QS", "01-701-1023", 4067, "DAITM27", "GO OUT AND REACH A FAMILIAR DESTINATION", "DAD", "GOING ON AN OUTING", "Y", "", "1", 1, "", "", "", "", "", 5.0, "WEEK 4", 28, "TREATMENT", "2012-09-02", 29], ["CDISCPILOT01", "QS", "01-701-1023", 4107, "DAITM27", "GO OUT AND REACH A FAMILIAR DESTINATION", "DAD", "GOING ON AN OUTING", "Y", "", "1", 1, "", "", "", "", "", 201.0, "RETRIEVAL", 168, "TREATMENT", "2013-02-18", 198], ["CDISCPILOT01", "QS", "01-701-1023", 4028, "DAITM28", "SAFELY TAKE CAR, BUS, TAXI", "DAD", "GOING ON AN OUTING", "Y", "", "1", 1, "", "", "", "Y", "", 3.0, "BASELINE", 1, "TREATMENT", "2012-08-05", 1], ["CDISCPILOT01", "QS", "01-701-1023", 4068, "DAITM28", "SAFELY TAKE CAR, BUS, TAXI", "DAD", "GOING ON AN OUTING", "Y", "", "1", 1, "", "", "", "", "", 5.0, "WEEK 4", 28, "TREATMENT", "2012-09-02", 29], ["CDISCPILOT01", "QS", "01-701-1023", 4108, "DAITM28", "SAFELY TAKE CAR, BUS, TAXI", "DAD", "GOING ON AN OUTING", "Y", "", "1", 1, "", "", "", "", "", 201.0, "RETRIEVAL", 168, "TREATMENT", "2013-02-18", 198], ["CDISCPILOT01", "QS", "01-701-1023", 4029, "DAITM29", "RETURN FROM THE STORE", "DAD", "GOING ON AN OUTING", "Y", "", "1", 1, "", "", "", "Y", "", 3.0, "BASELINE", 1, "TREATMENT", "2012-08-05", 1], ["CDISCPILOT01", "QS", "01-701-1023", 4069, "DAITM29", "RETURN FROM THE STORE", "DAD", "GOING ON AN OUTING", "Y", "", "1", 1, "", "", "", "", "", 5.0, "WEEK 4", 28, "TREATMENT", "2012-09-02", 29], ["CDISCPILOT01", "QS", "01-701-1023", 4109, "DAITM29", "RETURN FROM THE STORE", "DAD", "GOING ON AN OUTING", "N", "", "0", 0, "", "", "", "", "", 201.0, "RETRIEVAL", 168, "TREATMENT", "2013-02-18", 198], ["CDISCPILOT01", "QS", "01-701-1023", 4030, "DAITM30", "INTEREST IN HIS/HER PERSONAL AFFAIRS", "DAD", "FINANCE AND CORRESPONDE", "Y", "", "1", 1, "", "", "", "Y", "", 3.0, "BASELINE", 1, "TREATMENT", "2012-08-05", 1], ["CDISCPILOT01", "QS", "01-701-1023", 4070, "DAITM30", "INTEREST IN HIS/HER PERSONAL AFFAIRS", "DAD", "FINANCE AND CORRESPONDE", "Y", "", "1", 1, "", "", "", "", "", 5.0, "WEEK 4", 28, "TREATMENT", "2012-09-02", 29], ["CDISCPILOT01", "QS", "01-701-1023", 4110, "DAITM30", "INTEREST IN HIS/HER PERSONAL AFFAIRS", "DAD", "FINANCE AND CORRESPONDE", "Y", "", "1", 1, "", "", "", "", "", 201.0, "RETRIEVAL", 168, "TREATMENT", "2013-02-18", 198], ["CDISCPILOT01", "QS", "01-701-1023", 4031, "DAITM31", "PAY HIS/HER BILLS", "DAD", "FINANCE AND CORRESPONDE", "Y", "", "1", 1, "", "", "", "Y", "", 3.0, "BASELINE", 1, "TREATMENT", "2012-08-05", 1], ["CDISCPILOT01", "QS", "01-701-1023", 4071, "DAITM31", "PAY HIS/HER BILLS", "DAD", "FINANCE AND CORRESPONDE", "Y", "", "1", 1, "", "", "", "", "", 5.0, "WEEK 4", 28, "TREATMENT", "2012-09-02", 29], ["CDISCPILOT01", "QS", "01-701-1023", 4111, "DAITM31", "PAY HIS/HER BILLS", "DAD", "FINANCE AND CORRESPONDE", "NA", "", "96", 96, "", "", "", "", "", 201.0, "RETRIEVAL", 168, "TREATMENT", "2013-02-18", 198], ["CDISCPILOT01", "QS", "01-701-1023", 4032, "DAITM32", "ORGANIZE HIS/HER CORRESPONDENCE", "DAD", "FINANCE AND CORRESPONDE", "Y", "", "1", 1, "", "", "", "Y", "", 3.0, "BASELINE", 1, "TREATMENT", "2012-08-05", 1], ["CDISCPILOT01", "QS", "01-701-1023", 4072, "DAITM32", "ORGANIZE HIS/HER CORRESPONDENCE", "DAD", "FINANCE AND CORRESPONDE", "Y", "", "1", 1, "", "", "", "", "", 5.0, "WEEK 4", 28, "TREATMENT", "2012-09-02", 29], ["CDISCPILOT01", "QS", "01-701-1023", 4112, "DAITM32", "ORGANIZE HIS/HER CORRESPONDENCE", "DAD", "FINANCE AND CORRESPONDE", "Y", "", "1", 1, "", "", "", "", "", 201.0, "RETRIEVAL", 168, "TREATMENT", "2013-02-18", 198], ["CDISCPILOT01", "QS", "01-701-1023", 4033, "DAITM33", "HANDLE ADEQUATELY HIS/HER MONEY", "DAD", "FINANCE AND CORRESPONDE", "Y", "", "1", 1, "", "", "", "Y", "", 3.0, "BASELINE", 1, "TREATMENT", "2012-08-05", 1], ["CDISCPILOT01", "QS", "01-701-1023", 4073, "DAITM33", "HANDLE ADEQUATELY HIS/HER MONEY", "DAD", "FINANCE AND CORRESPONDE", "Y", "", "1", 1, "", "", "", "", "", 5.0, "WEEK 4", 28, "TREATMENT", "2012-09-02", 29], ["CDISCPILOT01", "QS", "01-701-1023", 4113, "DAITM33", "HANDLE ADEQUATELY HIS/HER MONEY", "DAD", "FINANCE AND CORRESPONDE", "N", "", "0", 0, "", "", "", "", "", 201.0, "RETRIEVAL", 168, "TREATMENT", "2013-02-18", 198], ["CDISCPILOT01", "QS", "01-701-1023", 4034, "DAITM34", "DECIDE TO TAKE HIS/HER MEDICATIONS", "DAD", "MEDICATIONS", "Y", "", "1", 1, "", "", "", "Y", "", 3.0, "BASELINE", 1, "TREATMENT", "2012-08-05", 1], ["CDISCPILOT01", "QS", "01-701-1023", 4074, "DAITM34", "DECIDE TO TAKE HIS/HER MEDICATIONS", "DAD", "MEDICATIONS", "Y", "", "1", 1, "", "", "", "", "", 5.0, "WEEK 4", 28, "TREATMENT", "2012-09-02", 29], ["CDISCPILOT01", "QS", "01-701-1023", 4114, "DAITM34", "DECIDE TO TAKE HIS/HER MEDICATIONS", "DAD", "MEDICATIONS", "N", "", "0", 0, "", "", "", "", "", 201.0, "RETRIEVAL", 168, "TREATMENT", "2013-02-18", 198], ["CDISCPILOT01", "QS", "01-701-1023", 4035, "DAITM35", "TAKE HIS/HER MEDICATIONS AS PRESCRIBED", "DAD", "MEDICATIONS", "Y", "", "1", 1, "", "", "", "Y", "", 3.0, "BASELINE", 1, "TREATMENT", "2012-08-05", 1], ["CDISCPILOT01", "QS", "01-701-1023", 4075, "DAITM35", "TAKE HIS/HER MEDICATIONS AS PRESCRIBED", "DAD", "MEDICATIONS", "Y", "", "1", 1, "", "", "", "", "", 5.0, "WEEK 4", 28, "TREATMENT", "2012-09-02", 29], ["CDISCPILOT01", "QS", "01-701-1023", 4115, "DAITM35", "TAKE HIS/HER MEDICATIONS AS PRESCRIBED", "DAD", "MEDICATIONS", "N", "", "0", 0, "", "", "", "", "", 201.0, "RETRIEVAL", 168, "TREATMENT", "2013-02-18", 198], ["CDISCPILOT01", "QS", "01-701-1023", 4036, "DAITM36", "SHOW AN INTEREST IN LEISURE ACTIVITY", "DAD", "LEISURE AND HOUSEWORK", "Y", "", "1", 1, "", "", "", "Y", "", 3.0, "BASELINE", 1, "TREATMENT", "2012-08-05", 1], ["CDISCPILOT01", "QS", "01-701-1023", 4076, "DAITM36", "SHOW AN INTEREST IN LEISURE ACTIVITY", "DAD", "LEISURE AND HOUSEWORK", "Y", "", "1", 1, "", "", "", "", "", 5.0, "WEEK 4", 28, "TREATMENT", "2012-09-02", 29], ["CDISCPILOT01", "QS", "01-701-1023", 4116, "DAITM36", "SHOW AN INTEREST IN LEISURE ACTIVITY", "DAD", "LEISURE AND HOUSEWORK", "N", "", "0", 0, "", "", "", "", "", 201.0, "RETRIEVAL", 168, "TREATMENT", "2013-02-18", 198], ["CDISCPILOT01", "QS", "01-701-1023", 4037, "DAITM37", "TAKE AN INTEREST IN HOUSEHOLD CHORES", "DAD", "LEISURE AND HOUSEWORK", "Y", "", "1", 1, "", "", "", "Y", "", 3.0, "BASELINE", 1, "TREATMENT", "2012-08-05", 1], ["CDISCPILOT01", "QS", "01-701-1023", 4077, "DAITM37", "TAKE AN INTEREST IN HOUSEHOLD CHORES", "DAD", "LEISURE AND HOUSEWORK", "Y", "", "1", 1, "", "", "", "", "", 5.0, "WEEK 4", 28, "TREATMENT", "2012-09-02", 29], ["CDISCPILOT01", "QS", "01-701-1023", 4117, "DAITM37", "TAKE AN INTEREST IN HOUSEHOLD CHORES", "DAD", "LEISURE AND HOUSEWORK", "N", "", "0", 0, "", "", "", "", "", 201.0, "RETRIEVAL", 168, "TREATMENT", "2013-02-18", 198], ["CDISCPILOT01", "QS", "01-701-1023", 4038, "DAITM38", "PLAN AND ORGANIZE HOUSEHOLD CHORES", "DAD", "LEISURE AND HOUSEWORK", "Y", "", "1", 1, "", "", "", "Y", "", 3.0, "BASELINE", 1, "TREATMENT", "2012-08-05", 1], ["CDISCPILOT01", "QS", "01-701-1023", 4078, "DAITM38", "PLAN AND ORGANIZE HOUSEHOLD CHORES", "DAD", "LEISURE AND HOUSEWORK", "Y", "", "1", 1, "", "", "", "", "", 5.0, "WEEK 4", 28, "TREATMENT", "2012-09-02", 29], ["CDISCPILOT01", "QS", "01-701-1023", 4118, "DAITM38", "PLAN AND ORGANIZE HOUSEHOLD CHORES", "DAD", "LEISURE AND HOUSEWORK", "N", "", "0", 0, "", "", "", "", "", 201.0, "RETRIEVAL", 168, "TREATMENT", "2013-02-18", 198], ["CDISCPILOT01", "QS", "01-701-1023", 4039, "DAITM39", "COMPLETE HOUSEHOLD CHORES", "DAD", "LEISURE AND HOUSEWORK", "Y", "", "1", 1, "", "", "", "Y", "", 3.0, "BASELINE", 1, "TREATMENT", "2012-08-05", 1], ["CDISCPILOT01", "QS", "01-701-1023", 4079, "DAITM39", "COMPLETE HOUSEHOLD CHORES", "DAD", "LEISURE AND HOUSEWORK", "Y", "", "1", 1, "", "", "", "", "", 5.0, "WEEK 4", 28, "TREATMENT", "2012-09-02", 29], ["CDISCPILOT01", "QS", "01-701-1023", 4119, "DAITM39", "COMPLETE HOUSEHOLD CHORES", "DAD", "LEISURE AND HOUSEWORK", "N", "", "0", 0, "", "", "", "", "", 201.0, "RETRIEVAL", 168, "TREATMENT", "2013-02-18", 198], ["CDISCPILOT01", "QS", "01-701-1023", 4040, "DAITM40", "STAY SAFELY AT HOME BY HIMSELF/HERSELF", "DAD", "LEISURE AND HOUSEWORK", "Y", "", "1", 1, "", "", "", "Y", "", 3.0, "BASELINE", 1, "TREATMENT", "2012-08-05", 1], ["CDISCPILOT01", "QS", "01-701-1023", 4080, "DAITM40", "STAY SAFELY AT HOME BY HIMSELF/HERSELF", "DAD", "LEISURE AND HOUSEWORK", "Y", "", "1", 1, "", "", "", "", "", 5.0, "WEEK 4", 28, "TREATMENT", "2012-09-02", 29], ["CDISCPILOT01", "QS", "01-701-1023", 4120, "DAITM40", "STAY SAFELY AT HOME BY HIMSELF/HERSELF", "DAD", "LEISURE AND HOUSEWORK", "N", "", "0", 0, "", "", "", "", "", 201.0, "RETRIEVAL", 168, "TREATMENT", "2013-02-18", 198], ["CDISCPILOT01", "QS", "01-701-1028", 4001, "DAITM01", "UNDERTAKE TO WASH HIMSELF/HERSELF", "DAD", "HYGIENE", "Y", "", "1", 1, "", "", "", "Y", "", 3.0, "BASELINE", 1, "TREATMENT", "2013-07-19", 1], ["CDISCPILOT01", "QS", "01-701-1028", 4041, "DAITM01", "UNDERTAKE TO WASH HIMSELF/HERSELF", "DAD", "HYGIENE", "Y", "", "1", 1, "", "", "", "", "", 8.0, "WEEK 8", 56, "TREATMENT", "2013-09-10", 54], ["CDISCPILOT01", "QS", "01-701-1028", 4081, "DAITM01", "UNDERTAKE TO WASH HIMSELF/HERSELF", "DAD", "HYGIENE", "Y", "", "1", 1, "", "", "", "", "", 10.0, "WEEK 16", 112, "TREATMENT", "2013-11-06", 111], ["CDISCPILOT01", "QS", "01-701-1028", 4121, "DAITM01", "UNDERTAKE TO WASH HIMSELF/HERSELF", "DAD", "HYGIENE", "Y", "", "1", 1, "", "", "", "", "", 12.0, "WEEK 24", 168, "TREATMENT", "2014-01-06", 172], ["CDISCPILOT01", "QS", "01-701-1028", 4002, "DAITM02", "UNDERTAKE TO BRUSH HIS/HER TEETH", "DAD", "HYGIENE", "Y", "", "1", 1, "", "", "", "Y", "", 3.0, "BASELINE", 1, "TREATMENT", "2013-07-19", 1], ["CDISCPILOT01", "QS", "01-701-1028", 4042, "DAITM02", "UNDERTAKE TO BRUSH HIS/HER TEETH", "DAD", "HYGIENE", "Y", "", "1", 1, "", "", "", "", "", 8.0, "WEEK 8", 56, "TREATMENT", "2013-09-10", 54], ["CDISCPILOT01", "QS", "01-701-1028", 4082, "DAITM02", "UNDERTAKE TO BRUSH HIS/HER TEETH", "DAD", "HYGIENE", "Y", "", "1", 1, "", "", "", "", "", 10.0, "WEEK 16", 112, "TREATMENT", "2013-11-06", 111], ["CDISCPILOT01", "QS", "01-701-1028", 4122, "DAITM02", "UNDERTAKE TO BRUSH HIS/HER TEETH", "DAD", "HYGIENE", "Y", "", "1", 1, "", "", "", "", "", 12.0, "WEEK 24", 168, "TREATMENT", "2014-01-06", 172], ["CDISCPILOT01", "QS", "01-701-1028", 4003, "DAITM03", "DECIDE TO CARE FOR HIS/HER HAIR", "DAD", "HYGIENE", "Y", "", "1", 1, "", "", "", "Y", "", 3.0, "BASELINE", 1, "TREATMENT", "2013-07-19", 1], ["CDISCPILOT01", "QS", "01-701-1028", 4043, "DAITM03", "DECIDE TO CARE FOR HIS/HER HAIR", "DAD", "HYGIENE", "Y", "", "1", 1, "", "", "", "", "", 8.0, "WEEK 8", 56, "TREATMENT", "2013-09-10", 54], ["CDISCPILOT01", "QS", "01-701-1028", 4083, "DAITM03", "DECIDE TO CARE FOR HIS/HER HAIR", "DAD", "HYGIENE", "Y", "", "1", 1, "", "", "", "", "", 10.0, "WEEK 16", 112, "TREATMENT", "2013-11-06", 111], ["CDISCPILOT01", "QS", "01-701-1028", 4123, "DAITM03", "DECIDE TO CARE FOR HIS/HER HAIR", "DAD", "HYGIENE", "Y", "", "1", 1, "", "", "", "", "", 12.0, "WEEK 24", 168, "TREATMENT", "2014-01-06", 172], ["CDISCPILOT01", "QS", "01-701-1028", 4004, "DAITM04", "PREPARE FOR WASHING, TAKING A BATH", "DAD", "HYGIENE", "Y", "", "1", 1, "", "", "", "Y", "", 3.0, "BASELINE", 1, "TREATMENT", "2013-07-19", 1], ["CDISCPILOT01", "QS", "01-701-1028", 4044, "DAITM04", "PREPARE FOR WASHING, TAKING A BATH", "DAD", "HYGIENE", "Y", "", "1", 1, "", "", "", "", "", 8.0, "WEEK 8", 56, "TREATMENT", "2013-09-10", 54], ["CDISCPILOT01", "QS", "01-701-1028", 4084, "DAITM04", "PREPARE FOR WASHING, TAKING A BATH", "DAD", "HYGIENE", "Y", "", "1", 1, "", "", "", "", "", 10.0, "WEEK 16", 112, "TREATMENT", "2013-11-06", 111], ["CDISCPILOT01", "QS", "01-701-1028", 4124, "DAITM04", "PREPARE FOR WASHING, TAKING A BATH", "DAD", "HYGIENE", "Y", "", "1", 1, "", "", "", "", "", 12.0, "WEEK 24", 168, "TREATMENT", "2014-01-06", 172], ["CDISCPILOT01", "QS", "01-701-1028", 4005, "DAITM05", "WASH AND DRY COMPLETELY SAFELY", "DAD", "HYGIENE", "Y", "", "1", 1, "", "", "", "Y", "", 3.0, "BASELINE", 1, "TREATMENT", "2013-07-19", 1], ["CDISCPILOT01", "QS", "01-701-1028", 4045, "DAITM05", "WASH AND DRY COMPLETELY SAFELY", "DAD", "HYGIENE", "Y", "", "1", 1, "", "", "", "", "", 8.0, "WEEK 8", 56, "TREATMENT", "2013-09-10", 54], ["CDISCPILOT01", "QS", "01-701-1028", 4085, "DAITM05", "WASH AND DRY COMPLETELY SAFELY", "DAD", "HYGIENE", "Y", "", "1", 1, "", "", "", "", "", 10.0, "WEEK 16", 112, "TREATMENT", "2013-11-06", 111], ["CDISCPILOT01", "QS", "01-701-1028", 4125, "DAITM05", "WASH AND DRY COMPLETELY SAFELY", "DAD", "HYGIENE", "Y", "", "1", 1, "", "", "", "", "", 12.0, "WEEK 24", 168, "TREATMENT", "2014-01-06", 172], ["CDISCPILOT01", "QS", "01-701-1028", 4006, "DAITM06", "BRUSH HIS/HER TEETH", "DAD", "HYGIENE", "Y", "", "1", 1, "", "", "", "Y", "", 3.0, "BASELINE", 1, "TREATMENT", "2013-07-19", 1], ["CDISCPILOT01", "QS", "01-701-1028", 4046, "DAITM06", "BRUSH HIS/HER TEETH", "DAD", "HYGIENE", "Y", "", "1", 1, "", "", "", "", "", 8.0, "WEEK 8", 56, "TREATMENT", "2013-09-10", 54], ["CDISCPILOT01", "QS", "01-701-1028", 4086, "DAITM06", "BRUSH HIS/HER TEETH", "DAD", "HYGIENE", "N", "", "0", 0, "", "", "", "", "", 10.0, "WEEK 16", 112, "TREATMENT", "2013-11-06", 111], ["CDISCPILOT01", "QS", "01-701-1028", 4126, "DAITM06", "BRUSH HIS/HER TEETH", "DAD", "HYGIENE", "Y", "", "1", 1, "", "", "", "", "", 12.0, "WEEK 24", 168, "TREATMENT", "2014-01-06", 172], ["CDISCPILOT01", "QS", "01-701-1028", 4007, "DAITM07", "CARE FOR HIS/HER HAIR", "DAD", "HYGIENE", "Y", "", "1", 1, "", "", "", "Y", "", 3.0, "BASELINE", 1, "TREATMENT", "2013-07-19", 1], ["CDISCPILOT01", "QS", "01-701-1028", 4047, "DAITM07", "CARE FOR HIS/HER HAIR", "DAD", "HYGIENE", "Y", "", "1", 1, "", "", "", "", "", 8.0, "WEEK 8", 56, "TREATMENT", "2013-09-10", 54], ["CDISCPILOT01", "QS", "01-701-1028", 4087, "DAITM07", "CARE FOR HIS/HER HAIR", "DAD", "HYGIENE", "Y", "", "1", 1, "", "", "", "", "", 10.0, "WEEK 16", 112, "TREATMENT", "2013-11-06", 111], ["CDISCPILOT01", "QS", "01-701-1028", 4127, "DAITM07", "CARE FOR HIS/HER HAIR", "DAD", "HYGIENE", "Y", "", "1", 1, "", "", "", "", "", 12.0, "WEEK 24", 168, "TREATMENT", "2014-01-06", 172], ["CDISCPILOT01", "QS", "01-701-1028", 4008, "DAITM08", "UNDERTAKE TO DRESS HIMSELF/HERSELF", "DAD", "DRESSING", "Y", "", "1", 1, "", "", "", "Y", "", 3.0, "BASELINE", 1, "TREATMENT", "2013-07-19", 1], ["CDISCPILOT01", "QS", "01-701-1028", 4048, "DAITM08", "UNDERTAKE TO DRESS HIMSELF/HERSELF", "DAD", "DRESSING", "Y", "", "1", 1, "", "", "", "", "", 8.0, "WEEK 8", 56, "TREATMENT", "2013-09-10", 54], ["CDISCPILOT01", "QS", "01-701-1028", 4088, "DAITM08", "UNDERTAKE TO DRESS HIMSELF/HERSELF", "DAD", "DRESSING", "Y", "", "1", 1, "", "", "", "", "", 10.0, "WEEK 16", 112, "TREATMENT", "2013-11-06", 111], ["CDISCPILOT01", "QS", "01-701-1028", 4128, "DAITM08", "UNDERTAKE TO DRESS HIMSELF/HERSELF", "DAD", "DRESSING", "Y", "", "1", 1, "", "", "", "", "", 12.0, "WEEK 24", 168, "TREATMENT", "2014-01-06", 172], ["CDISCPILOT01", "QS", "01-701-1028", 4009, "DAITM09", "CHOOSE APPROPRIATE CLOTHING", "DAD", "DRESSING", "Y", "", "1", 1, "", "", "", "Y", "", 3.0, "BASELINE", 1, "TREATMENT", "2013-07-19", 1], ["CDISCPILOT01", "QS", "01-701-1028", 4049, "DAITM09", "CHOOSE APPROPRIATE CLOTHING", "DAD", "DRESSING", "N", "", "0", 0, "", "", "", "", "", 8.0, "WEEK 8", 56, "TREATMENT", "2013-09-10", 54], ["CDISCPILOT01", "QS", "01-701-1028", 4089, "DAITM09", "CHOOSE APPROPRIATE CLOTHING", "DAD", "DRESSING", "Y", "", "1", 1, "", "", "", "", "", 10.0, "WEEK 16", 112, "TREATMENT", "2013-11-06", 111], ["CDISCPILOT01", "QS", "01-701-1028", 4129, "DAITM09", "CHOOSE APPROPRIATE CLOTHING", "DAD", "DRESSING", "Y", "", "1", 1, "", "", "", "", "", 12.0, "WEEK 24", 168, "TREATMENT", "2014-01-06", 172], ["CDISCPILOT01", "QS", "01-701-1028", 4010, "DAITM10", "DRESS HIMSELF/HERSELF", "DAD", "DRESSING", "Y", "", "1", 1, "", "", "", "Y", "", 3.0, "BASELINE", 1, "TREATMENT", "2013-07-19", 1], ["CDISCPILOT01", "QS", "01-701-1028", 4050, "DAITM10", "DRESS HIMSELF/HERSELF", "DAD", "DRESSING", "Y", "", "1", 1, "", "", "", "", "", 8.0, "WEEK 8", 56, "TREATMENT", "2013-09-10", 54], ["CDISCPILOT01", "QS", "01-701-1028", 4090, "DAITM10", "DRESS HIMSELF/HERSELF", "DAD", "DRESSING", "Y", "", "1", 1, "", "", "", "", "", 10.0, "WEEK 16", 112, "TREATMENT", "2013-11-06", 111], ["CDISCPILOT01", "QS", "01-701-1028", 4130, "DAITM10", "DRESS HIMSELF/HERSELF", "DAD", "DRESSING", "Y", "", "1", 1, "", "", "", "", "", 12.0, "WEEK 24", 168, "TREATMENT", "2014-01-06", 172], ["CDISCPILOT01", "QS", "01-701-1028", 4011, "DAITM11", "DRESS HIMSELF/HERSELF COMPLETELY", "DAD", "DRESSING", "Y", "", "1", 1, "", "", "", "Y", "", 3.0, "BASELINE", 1, "TREATMENT", "2013-07-19", 1], ["CDISCPILOT01", "QS", "01-701-1028", 4051, "DAITM11", "DRESS HIMSELF/HERSELF COMPLETELY", "DAD", "DRESSING", "Y", "", "1", 1, "", "", "", "", "", 8.0, "WEEK 8", 56, "TREATMENT", "2013-09-10", 54], ["CDISCPILOT01", "QS", "01-701-1028", 4091, "DAITM11", "DRESS HIMSELF/HERSELF COMPLETELY", "DAD", "DRESSING", "Y", "", "1", 1, "", "", "", "", "", 10.0, "WEEK 16", 112, "TREATMENT", "2013-11-06", 111], ["CDISCPILOT01", "QS", "01-701-1028", 4131, "DAITM11", "DRESS HIMSELF/HERSELF COMPLETELY", "DAD", "DRESSING", "Y", "", "1", 1, "", "", "", "", "", 12.0, "WEEK 24", 168, "TREATMENT", "2014-01-06", 172], ["CDISCPILOT01", "QS", "01-701-1028", 4012, "DAITM12", "UNDRESS HIMSELF/HERSELF COMPLETELY", "DAD", "DRESSING", "Y", "", "1", 1, "", "", "", "Y", "", 3.0, "BASELINE", 1, "TREATMENT", "2013-07-19", 1], ["CDISCPILOT01", "QS", "01-701-1028", 4052, "DAITM12", "UNDRESS HIMSELF/HERSELF COMPLETELY", "DAD", "DRESSING", "Y", "", "1", 1, "", "", "", "", "", 8.0, "WEEK 8", 56, "TREATMENT", "2013-09-10", 54], ["CDISCPILOT01", "QS", "01-701-1028", 4092, "DAITM12", "UNDRESS HIMSELF/HERSELF COMPLETELY", "DAD", "DRESSING", "Y", "", "1", 1, "", "", "", "", "", 10.0, "WEEK 16", 112, "TREATMENT", "2013-11-06", 111], ["CDISCPILOT01", "QS", "01-701-1028", 4132, "DAITM12", "UNDRESS HIMSELF/HERSELF COMPLETELY", "DAD", "DRESSING", "Y", "", "1", 1, "", "", "", "", "", 12.0, "WEEK 24", 168, "TREATMENT", "2014-01-06", 172], ["CDISCPILOT01", "QS", "01-701-1028", 4013, "DAITM13", "DECIDE TO USE THE TOILET AT APPROPRIATE", "DAD", "CONTINENCE", "Y", "", "1", 1, "", "", "", "Y", "", 3.0, "BASELINE", 1, "TREATMENT", "2013-07-19", 1], ["CDISCPILOT01", "QS", "01-701-1028", 4053, "DAITM13", "DECIDE TO USE THE TOILET AT APPROPRIATE", "DAD", "CONTINENCE", "Y", "", "1", 1, "", "", "", "", "", 8.0, "WEEK 8", 56, "TREATMENT", "2013-09-10", 54], ["CDISCPILOT01", "QS", "01-701-1028", 4093, "DAITM13", "DECIDE TO USE THE TOILET AT APPROPRIATE", "DAD", "CONTINENCE", "Y", "", "1", 1, "", "", "", "", "", 10.0, "WEEK 16", 112, "TREATMENT", "2013-11-06", 111], ["CDISCPILOT01", "QS", "01-701-1028", 4133, "DAITM13", "DECIDE TO USE THE TOILET AT APPROPRIATE", "DAD", "CONTINENCE", "Y", "", "1", 1, "", "", "", "", "", 12.0, "WEEK 24", 168, "TREATMENT", "2014-01-06", 172], ["CDISCPILOT01", "QS", "01-701-1028", 4014, "DAITM14", "USE THE TOILET WITHOUT \"ACCIDENTS\"", "DAD", "CONTINENCE", "Y", "", "1", 1, "", "", "", "Y", "", 3.0, "BASELINE", 1, "TREATMENT", "2013-07-19", 1], ["CDISCPILOT01", "QS", "01-701-1028", 4054, "DAITM14", "USE THE TOILET WITHOUT \"ACCIDENTS\"", "DAD", "CONTINENCE", "Y", "", "1", 1, "", "", "", "", "", 8.0, "WEEK 8", 56, "TREATMENT", "2013-09-10", 54], ["CDISCPILOT01", "QS", "01-701-1028", 4094, "DAITM14", "USE THE TOILET WITHOUT \"ACCIDENTS\"", "DAD", "CONTINENCE", "Y", "", "1", 1, "", "", "", "", "", 10.0, "WEEK 16", 112, "TREATMENT", "2013-11-06", 111], ["CDISCPILOT01", "QS", "01-701-1028", 4134, "DAITM14", "USE THE TOILET WITHOUT \"ACCIDENTS\"", "DAD", "CONTINENCE", "Y", "", "1", 1, "", "", "", "", "", 12.0, "WEEK 24", 168, "TREATMENT", "2014-01-06", 172], ["CDISCPILOT01", "QS", "01-701-1028", 4015, "DAITM15", "DECIDE THAT HE/SHE NEEDS TO EAT", "DAD", "EATING", "Y", "", "1", 1, "", "", "", "Y", "", 3.0, "BASELINE", 1, "TREATMENT", "2013-07-19", 1], ["CDISCPILOT01", "QS", "01-701-1028", 4055, "DAITM15", "DECIDE THAT HE/SHE NEEDS TO EAT", "DAD", "EATING", "Y", "", "1", 1, "", "", "", "", "", 8.0, "WEEK 8", 56, "TREATMENT", "2013-09-10", 54], ["CDISCPILOT01", "QS", "01-701-1028", 4095, "DAITM15", "DECIDE THAT HE/SHE NEEDS TO EAT", "DAD", "EATING", "Y", "", "1", 1, "", "", "", "", "", 10.0, "WEEK 16", 112, "TREATMENT", "2013-11-06", 111], ["CDISCPILOT01", "QS", "01-701-1028", 4135, "DAITM15", "DECIDE THAT HE/SHE NEEDS TO EAT", "DAD", "EATING", "Y", "", "1", 1, "", "", "", "", "", 12.0, "WEEK 24", 168, "TREATMENT", "2014-01-06", 172], ["CDISCPILOT01", "QS", "01-701-1028", 4016, "DAITM16", "CHOOSE APPROPRIATE UTENSILS", "DAD", "EATING", "Y", "", "1", 1, "", "", "", "Y", "", 3.0, "BASELINE", 1, "TREATMENT", "2013-07-19", 1], ["CDISCPILOT01", "QS", "01-701-1028", 4056, "DAITM16", "CHOOSE APPROPRIATE UTENSILS", "DAD", "EATING", "Y", "", "1", 1, "", "", "", "", "", 8.0, "WEEK 8", 56, "TREATMENT", "2013-09-10", 54], ["CDISCPILOT01", "QS", "01-701-1028", 4096, "DAITM16", "CHOOSE APPROPRIATE UTENSILS", "DAD", "EATING", "Y", "", "1", 1, "", "", "", "", "", 10.0, "WEEK 16", 112, "TREATMENT", "2013-11-06", 111], ["CDISCPILOT01", "QS", "01-701-1028", 4136, "DAITM16", "CHOOSE APPROPRIATE UTENSILS", "DAD", "EATING", "Y", "", "1", 1, "", "", "", "", "", 12.0, "WEEK 24", 168, "TREATMENT", "2014-01-06", 172], ["CDISCPILOT01", "QS", "01-701-1028", 4017, "DAITM17", "EAT HIS/HER MEALS AT A NORMAL PACE", "DAD", "EATING", "Y", "", "1", 1, "", "", "", "Y", "", 3.0, "BASELINE", 1, "TREATMENT", "2013-07-19", 1], ["CDISCPILOT01", "QS", "01-701-1028", 4057, "DAITM17", "EAT HIS/HER MEALS AT A NORMAL PACE", "DAD", "EATING", "Y", "", "1", 1, "", "", "", "", "", 8.0, "WEEK 8", 56, "TREATMENT", "2013-09-10", 54], ["CDISCPILOT01", "QS", "01-701-1028", 4097, "DAITM17", "EAT HIS/HER MEALS AT A NORMAL PACE", "DAD", "EATING", "Y", "", "1", 1, "", "", "", "", "", 10.0, "WEEK 16", 112, "TREATMENT", "2013-11-06", 111], ["CDISCPILOT01", "QS", "01-701-1028", 4137, "DAITM17", "EAT HIS/HER MEALS AT A NORMAL PACE", "DAD", "EATING", "Y", "", "1", 1, "", "", "", "", "", 12.0, "WEEK 24", 168, "TREATMENT", "2014-01-06", 172], ["CDISCPILOT01", "QS", "01-701-1028", 4018, "DAITM18", "UNDERTAKE TO PREPARE A LIGHT MEAL", "DAD", "MEAL PREPARATION", "Y", "", "1", 1, "", "", "", "Y", "", 3.0, "BASELINE", 1, "TREATMENT", "2013-07-19", 1], ["CDISCPILOT01", "QS", "01-701-1028", 4058, "DAITM18", "UNDERTAKE TO PREPARE A LIGHT MEAL", "DAD", "MEAL PREPARATION", "Y", "", "1", 1, "", "", "", "", "", 8.0, "WEEK 8", 56, "TREATMENT", "2013-09-10", 54], ["CDISCPILOT01", "QS", "01-701-1028", 4098, "DAITM18", "UNDERTAKE TO PREPARE A LIGHT MEAL", "DAD", "MEAL PREPARATION", "Y", "", "1", 1, "", "", "", "", "", 10.0, "WEEK 16", 112, "TREATMENT", "2013-11-06", 111], ["CDISCPILOT01", "QS", "01-701-1028", 4138, "DAITM18", "UNDERTAKE TO PREPARE A LIGHT MEAL", "DAD", "MEAL PREPARATION", "Y", "", "1", 1, "", "", "", "", "", 12.0, "WEEK 24", 168, "TREATMENT", "2014-01-06", 172], ["CDISCPILOT01", "QS", "01-701-1028", 4019, "DAITM19", "ADEQUATELY PLAN A LIGHT MEAL OR SNACK", "DAD", "MEAL PREPARATION", "Y", "", "1", 1, "", "", "", "Y", "", 3.0, "BASELINE", 1, "TREATMENT", "2013-07-19", 1], ["CDISCPILOT01", "QS", "01-701-1028", 4059, "DAITM19", "ADEQUATELY PLAN A LIGHT MEAL OR SNACK", "DAD", "MEAL PREPARATION", "Y", "", "1", 1, "", "", "", "", "", 8.0, "WEEK 8", 56, "TREATMENT", "2013-09-10", 54], ["CDISCPILOT01", "QS", "01-701-1028", 4099, "DAITM19", "ADEQUATELY PLAN A LIGHT MEAL OR SNACK", "DAD", "MEAL PREPARATION", "Y", "", "1", 1, "", "", "", "", "", 10.0, "WEEK 16", 112, "TREATMENT", "2013-11-06", 111], ["CDISCPILOT01", "QS", "01-701-1028", 4139, "DAITM19", "ADEQUATELY PLAN A LIGHT MEAL OR SNACK", "DAD", "MEAL PREPARATION", "Y", "", "1", 1, "", "", "", "", "", 12.0, "WEEK 24", 168, "TREATMENT", "2014-01-06", 172], ["CDISCPILOT01", "QS", "01-701-1028", 4020, "DAITM20", "PREPARE OR COOK A LIGHT MEAL OR A SNACK", "DAD", "MEAL PREPARATION", "Y", "", "1", 1, "", "", "", "Y", "", 3.0, "BASELINE", 1, "TREATMENT", "2013-07-19", 1], ["CDISCPILOT01", "QS", "01-701-1028", 4060, "DAITM20", "PREPARE OR COOK A LIGHT MEAL OR A SNACK", "DAD", "MEAL PREPARATION", "Y", "", "1", 1, "", "", "", "", "", 8.0, "WEEK 8", 56, "TREATMENT", "2013-09-10", 54], ["CDISCPILOT01", "QS", "01-701-1028", 4100, "DAITM20", "PREPARE OR COOK A LIGHT MEAL OR A SNACK", "DAD", "MEAL PREPARATION", "Y", "", "1", 1, "", "", "", "", "", 10.0, "WEEK 16", 112, "TREATMENT", "2013-11-06", 111], ["CDISCPILOT01", "QS", "01-701-1028", 4140, "DAITM20", "PREPARE OR COOK A LIGHT MEAL OR A SNACK", "DAD", "MEAL PREPARATION", "Y", "", "1", 1, "", "", "", "", "", 12.0, "WEEK 24", 168, "TREATMENT", "2014-01-06", 172], ["CDISCPILOT01", "QS", "01-701-1028", 4021, "DAITM21", "ATTEMPT TO TELEPHONE SOMEONE", "DAD", "TELEPHONING", "Y", "", "1", 1, "", "", "", "Y", "", 3.0, "BASELINE", 1, "TREATMENT", "2013-07-19", 1], ["CDISCPILOT01", "QS", "01-701-1028", 4061, "DAITM21", "ATTEMPT TO TELEPHONE SOMEONE", "DAD", "TELEPHONING", "Y", "", "1", 1, "", "", "", "", "", 8.0, "WEEK 8", 56, "TREATMENT", "2013-09-10", 54], ["CDISCPILOT01", "QS", "01-701-1028", 4101, "DAITM21", "ATTEMPT TO TELEPHONE SOMEONE", "DAD", "TELEPHONING", "Y", "", "1", 1, "", "", "", "", "", 10.0, "WEEK 16", 112, "TREATMENT", "2013-11-06", 111], ["CDISCPILOT01", "QS", "01-701-1028", 4141, "DAITM21", "ATTEMPT TO TELEPHONE SOMEONE", "DAD", "TELEPHONING", "Y", "", "1", 1, "", "", "", "", "", 12.0, "WEEK 24", 168, "TREATMENT", "2014-01-06", 172], ["CDISCPILOT01", "QS", "01-701-1028", 4022, "DAITM22", "FIND AND DIAL A TELEPHONE NUMBER CORRECT", "DAD", "TELEPHONING", "Y", "", "1", 1, "", "", "", "Y", "", 3.0, "BASELINE", 1, "TREATMENT", "2013-07-19", 1], ["CDISCPILOT01", "QS", "01-701-1028", 4062, "DAITM22", "FIND AND DIAL A TELEPHONE NUMBER CORRECT", "DAD", "TELEPHONING", "Y", "", "1", 1, "", "", "", "", "", 8.0, "WEEK 8", 56, "TREATMENT", "2013-09-10", 54], ["CDISCPILOT01", "QS", "01-701-1028", 4102, "DAITM22", "FIND AND DIAL A TELEPHONE NUMBER CORRECT", "DAD", "TELEPHONING", "Y", "", "1", 1, "", "", "", "", "", 10.0, "WEEK 16", 112, "TREATMENT", "2013-11-06", 111], ["CDISCPILOT01", "QS", "01-701-1028", 4142, "DAITM22", "FIND AND DIAL A TELEPHONE NUMBER CORRECT", "DAD", "TELEPHONING", "Y", "", "1", 1, "", "", "", "", "", 12.0, "WEEK 24", 168, "TREATMENT", "2014-01-06", 172], ["CDISCPILOT01", "QS", "01-701-1028", 4023, "DAITM23", "CARRY OUT A TELEPHONE CONVERSATION", "DAD", "TELEPHONING", "Y", "", "1", 1, "", "", "", "Y", "", 3.0, "BASELINE", 1, "TREATMENT", "2013-07-19", 1], ["CDISCPILOT01", "QS", "01-701-1028", 4063, "DAITM23", "CARRY OUT A TELEPHONE CONVERSATION", "DAD", "TELEPHONING", "Y", "", "1", 1, "", "", "", "", "", 8.0, "WEEK 8", 56, "TREATMENT", "2013-09-10", 54], ["CDISCPILOT01", "QS", "01-701-1028", 4103, "DAITM23", "CARRY OUT A TELEPHONE CONVERSATION", "DAD", "TELEPHONING", "Y", "", "1", 1, "", "", "", "", "", 10.0, "WEEK 16", 112, "TREATMENT", "2013-11-06", 111], ["CDISCPILOT01", "QS", "01-701-1028", 4143, "DAITM23", "CARRY OUT A TELEPHONE CONVERSATION", "DAD", "TELEPHONING", "Y", "", "1", 1, "", "", "", "", "", 12.0, "WEEK 24", 168, "TREATMENT", "2014-01-06", 172], ["CDISCPILOT01", "QS", "01-701-1028", 4024, "DAITM24", "WRITE AND CONVEY A TELEPHONE MESSAGE", "DAD", "TELEPHONING", "Y", "", "1", 1, "", "", "", "Y", "", 3.0, "BASELINE", 1, "TREATMENT", "2013-07-19", 1], ["CDISCPILOT01", "QS", "01-701-1028", 4064, "DAITM24", "WRITE AND CONVEY A TELEPHONE MESSAGE", "DAD", "TELEPHONING", "Y", "", "1", 1, "", "", "", "", "", 8.0, "WEEK 8", 56, "TREATMENT", "2013-09-10", 54], ["CDISCPILOT01", "QS", "01-701-1028", 4104, "DAITM24", "WRITE AND CONVEY A TELEPHONE MESSAGE", "DAD", "TELEPHONING", "Y", "", "1", 1, "", "", "", "", "", 10.0, "WEEK 16", 112, "TREATMENT", "2013-11-06", 111], ["CDISCPILOT01", "QS", "01-701-1028", 4144, "DAITM24", "WRITE AND CONVEY A TELEPHONE MESSAGE", "DAD", "TELEPHONING", "Y", "", "1", 1, "", "", "", "", "", 12.0, "WEEK 24", 168, "TREATMENT", "2014-01-06", 172], ["CDISCPILOT01", "QS", "01-701-1028", 4025, "DAITM25", "UNDERTAKE TO GO OUT", "DAD", "GOING ON AN OUTING", "Y", "", "1", 1, "", "", "", "Y", "", 3.0, "BASELINE", 1, "TREATMENT", "2013-07-19", 1], ["CDISCPILOT01", "QS", "01-701-1028", 4065, "DAITM25", "UNDERTAKE TO GO OUT", "DAD", "GOING ON AN OUTING", "Y", "", "1", 1, "", "", "", "", "", 8.0, "WEEK 8", 56, "TREATMENT", "2013-09-10", 54], ["CDISCPILOT01", "QS", "01-701-1028", 4105, "DAITM25", "UNDERTAKE TO GO OUT", "DAD", "GOING ON AN OUTING", "Y", "", "1", 1, "", "", "", "", "", 10.0, "WEEK 16", 112, "TREATMENT", "2013-11-06", 111], ["CDISCPILOT01", "QS", "01-701-1028", 4145, "DAITM25", "UNDERTAKE TO GO OUT", "DAD", "GOING ON AN OUTING", "Y", "", "1", 1, "", "", "", "", "", 12.0, "WEEK 24", 168, "TREATMENT", "2014-01-06", 172], ["CDISCPILOT01", "QS", "01-701-1028", 4026, "DAITM26", "ADEQUATELY ORGANIZE AN OUTING", "DAD", "GOING ON AN OUTING", "Y", "", "1", 1, "", "", "", "Y", "", 3.0, "BASELINE", 1, "TREATMENT", "2013-07-19", 1], ["CDISCPILOT01", "QS", "01-701-1028", 4066, "DAITM26", "ADEQUATELY ORGANIZE AN OUTING", "DAD", "GOING ON AN OUTING", "Y", "", "1", 1, "", "", "", "", "", 8.0, "WEEK 8", 56, "TREATMENT", "2013-09-10", 54], ["CDISCPILOT01", "QS", "01-701-1028", 4106, "DAITM26", "ADEQUATELY ORGANIZE AN OUTING", "DAD", "GOING ON AN OUTING", "Y", "", "1", 1, "", "", "", "", "", 10.0, "WEEK 16", 112, "TREATMENT", "2013-11-06", 111], ["CDISCPILOT01", "QS", "01-701-1028", 4146, "DAITM26", "ADEQUATELY ORGANIZE AN OUTING", "DAD", "GOING ON AN OUTING", "Y", "", "1", 1, "", "", "", "", "", 12.0, "WEEK 24", 168, "TREATMENT", "2014-01-06", 172], ["CDISCPILOT01", "QS", "01-701-1028", 4027, "DAITM27", "GO OUT AND REACH A FAMILIAR DESTINATION", "DAD", "GOING ON AN OUTING", "Y", "", "1", 1, "", "", "", "Y", "", 3.0, "BASELINE", 1, "TREATMENT", "2013-07-19", 1], ["CDISCPILOT01", "QS", "01-701-1028", 4067, "DAITM27", "GO OUT AND REACH A FAMILIAR DESTINATION", "DAD", "GOING ON AN OUTING", "Y", "", "1", 1, "", "", "", "", "", 8.0, "WEEK 8", 56, "TREATMENT", "2013-09-10", 54], ["CDISCPILOT01", "QS", "01-701-1028", 4107, "DAITM27", "GO OUT AND REACH A FAMILIAR DESTINATION", "DAD", "GOING ON AN OUTING", "Y", "", "1", 1, "", "", "", "", "", 10.0, "WEEK 16", 112, "TREATMENT", "2013-11-06", 111], ["CDISCPILOT01", "QS", "01-701-1028", 4147, "DAITM27", "GO OUT AND REACH A FAMILIAR DESTINATION", "DAD", "GOING ON AN OUTING", "Y", "", "1", 1, "", "", "", "", "", 12.0, "WEEK 24", 168, "TREATMENT", "2014-01-06", 172], ["CDISCPILOT01", "QS", "01-701-1028", 4028, "DAITM28", "SAFELY TAKE CAR, BUS, TAXI", "DAD", "GOING ON AN OUTING", "Y", "", "1", 1, "", "", "", "Y", "", 3.0, "BASELINE", 1, "TREATMENT", "2013-07-19", 1], ["CDISCPILOT01", "QS", "01-701-1028", 4068, "DAITM28", "SAFELY TAKE CAR, BUS, TAXI", "DAD", "GOING ON AN OUTING", "Y", "", "1", 1, "", "", "", "", "", 8.0, "WEEK 8", 56, "TREATMENT", "2013-09-10", 54], ["CDISCPILOT01", "QS", "01-701-1028", 4108, "DAITM28", "SAFELY TAKE CAR, BUS, TAXI", "DAD", "GOING ON AN OUTING", "Y", "", "1", 1, "", "", "", "", "", 10.0, "WEEK 16", 112, "TREATMENT", "2013-11-06", 111], ["CDISCPILOT01", "QS", "01-701-1028", 4148, "DAITM28", "SAFELY TAKE CAR, BUS, TAXI", "DAD", "GOING ON AN OUTING", "Y", "", "1", 1, "", "", "", "", "", 12.0, "WEEK 24", 168, "TREATMENT", "2014-01-06", 172], ["CDISCPILOT01", "QS", "01-701-1028", 4029, "DAITM29", "RETURN FROM THE STORE", "DAD", "GOING ON AN OUTING", "Y", "", "1", 1, "", "", "", "Y", "", 3.0, "BASELINE", 1, "TREATMENT", "2013-07-19", 1], ["CDISCPILOT01", "QS", "01-701-1028", 4069, "DAITM29", "RETURN FROM THE STORE", "DAD", "GOING ON AN OUTING", "Y", "", "1", 1, "", "", "", "", "", 8.0, "WEEK 8", 56, "TREATMENT", "2013-09-10", 54], ["CDISCPILOT01", "QS", "01-701-1028", 4109, "DAITM29", "RETURN FROM THE STORE", "DAD", "GOING ON AN OUTING", "Y", "", "1", 1, "", "", "", "", "", 10.0, "WEEK 16", 112, "TREATMENT", "2013-11-06", 111], ["CDISCPILOT01", "QS", "01-701-1028", 4149, "DAITM29", "RETURN FROM THE STORE", "DAD", "GOING ON AN OUTING", "Y", "", "1", 1, "", "", "", "", "", 12.0, "WEEK 24", 168, "TREATMENT", "2014-01-06", 172], ["CDISCPILOT01", "QS", "01-701-1028", 4030, "DAITM30", "INTEREST IN HIS/HER PERSONAL AFFAIRS", "DAD", "FINANCE AND CORRESPONDE", "Y", "", "1", 1, "", "", "", "Y", "", 3.0, "BASELINE", 1, "TREATMENT", "2013-07-19", 1], ["CDISCPILOT01", "QS", "01-701-1028", 4070, "DAITM30", "INTEREST IN HIS/HER PERSONAL AFFAIRS", "DAD", "FINANCE AND CORRESPONDE", "Y", "", "1", 1, "", "", "", "", "", 8.0, "WEEK 8", 56, "TREATMENT", "2013-09-10", 54], ["CDISCPILOT01", "QS", "01-701-1028", 4110, "DAITM30", "INTEREST IN HIS/HER PERSONAL AFFAIRS", "DAD", "FINANCE AND CORRESPONDE", "Y", "", "1", 1, "", "", "", "", "", 10.0, "WEEK 16", 112, "TREATMENT", "2013-11-06", 111], ["CDISCPILOT01", "QS", "01-701-1028", 4150, "DAITM30", "INTEREST IN HIS/HER PERSONAL AFFAIRS", "DAD", "FINANCE AND CORRESPONDE", "Y", "", "1", 1, "", "", "", "", "", 12.0, "WEEK 24", 168, "TREATMENT", "2014-01-06", 172], ["CDISCPILOT01", "QS", "01-701-1028", 4031, "DAITM31", "PAY HIS/HER BILLS", "DAD", "FINANCE AND CORRESPONDE", "Y", "", "1", 1, "", "", "", "Y", "", 3.0, "BASELINE", 1, "TREATMENT", "2013-07-19", 1], ["CDISCPILOT01", "QS", "01-701-1028", 4071, "DAITM31", "PAY HIS/HER BILLS", "DAD", "FINANCE AND CORRESPONDE", "Y", "", "1", 1, "", "", "", "", "", 8.0, "WEEK 8", 56, "TREATMENT", "2013-09-10", 54], ["CDISCPILOT01", "QS", "01-701-1028", 4111, "DAITM31", "PAY HIS/HER BILLS", "DAD", "FINANCE AND CORRESPONDE", "Y", "", "1", 1, "", "", "", "", "", 10.0, "WEEK 16", 112, "TREATMENT", "2013-11-06", 111], ["CDISCPILOT01", "QS", "01-701-1028", 4151, "DAITM31", "PAY HIS/HER BILLS", "DAD", "FINANCE AND CORRESPONDE", "Y", "", "1", 1, "", "", "", "", "", 12.0, "WEEK 24", 168, "TREATMENT", "2014-01-06", 172], ["CDISCPILOT01", "QS", "01-701-1028", 4032, "DAITM32", "ORGANIZE HIS/HER CORRESPONDENCE", "DAD", "FINANCE AND CORRESPONDE", "Y", "", "1", 1, "", "", "", "Y", "", 3.0, "BASELINE", 1, "TREATMENT", "2013-07-19", 1], ["CDISCPILOT01", "QS", "01-701-1028", 4072, "DAITM32", "ORGANIZE HIS/HER CORRESPONDENCE", "DAD", "FINANCE AND CORRESPONDE", "Y", "", "1", 1, "", "", "", "", "", 8.0, "WEEK 8", 56, "TREATMENT", "2013-09-10", 54], ["CDISCPILOT01", "QS", "01-701-1028", 4112, "DAITM32", "ORGANIZE HIS/HER CORRESPONDENCE", "DAD", "FINANCE AND CORRESPONDE", "Y", "", "1", 1, "", "", "", "", "", 10.0, "WEEK 16", 112, "TREATMENT", "2013-11-06", 111], ["CDISCPILOT01", "QS", "01-701-1028", 4152, "DAITM32", "ORGANIZE HIS/HER CORRESPONDENCE", "DAD", "FINANCE AND CORRESPONDE", "Y", "", "1", 1, "", "", "", "", "", 12.0, "WEEK 24", 168, "TREATMENT", "2014-01-06", 172], ["CDISCPILOT01", "QS", "01-701-1028", 4033, "DAITM33", "HANDLE ADEQUATELY HIS/HER MONEY", "DAD", "FINANCE AND CORRESPONDE", "Y", "", "1", 1, "", "", "", "Y", "", 3.0, "BASELINE", 1, "TREATMENT", "2013-07-19", 1], ["CDISCPILOT01", "QS", "01-701-1028", 4073, "DAITM33", "HANDLE ADEQUATELY HIS/HER MONEY", "DAD", "FINANCE AND CORRESPONDE", "Y", "", "1", 1, "", "", "", "", "", 8.0, "WEEK 8", 56, "TREATMENT", "2013-09-10", 54], ["CDISCPILOT01", "QS", "01-701-1028", 4113, "DAITM33", "HANDLE ADEQUATELY HIS/HER MONEY", "DAD", "FINANCE AND CORRESPONDE", "Y", "", "1", 1, "", "", "", "", "", 10.0, "WEEK 16", 112, "TREATMENT", "2013-11-06", 111], ["CDISCPILOT01", "QS", "01-701-1028", 4153, "DAITM33", "HANDLE ADEQUATELY HIS/HER MONEY", "DAD", "FINANCE AND CORRESPONDE", "Y", "", "1", 1, "", "", "", "", "", 12.0, "WEEK 24", 168, "TREATMENT", "2014-01-06", 172], ["CDISCPILOT01", "QS", "01-701-1028", 4034, "DAITM34", "DECIDE TO TAKE HIS/HER MEDICATIONS", "DAD", "MEDICATIONS", "Y", "", "1", 1, "", "", "", "Y", "", 3.0, "BASELINE", 1, "TREATMENT", "2013-07-19", 1], ["CDISCPILOT01", "QS", "01-701-1028", 4074, "DAITM34", "DECIDE TO TAKE HIS/HER MEDICATIONS", "DAD", "MEDICATIONS", "Y", "", "1", 1, "", "", "", "", "", 8.0, "WEEK 8", 56, "TREATMENT", "2013-09-10", 54], ["CDISCPILOT01", "QS", "01-701-1028", 4114, "DAITM34", "DECIDE TO TAKE HIS/HER MEDICATIONS", "DAD", "MEDICATIONS", "Y", "", "1", 1, "", "", "", "", "", 10.0, "WEEK 16", 112, "TREATMENT", "2013-11-06", 111], ["CDISCPILOT01", "QS", "01-701-1028", 4154, "DAITM34", "DECIDE TO TAKE HIS/HER MEDICATIONS", "DAD", "MEDICATIONS", "Y", "", "1", 1, "", "", "", "", "", 12.0, "WEEK 24", 168, "TREATMENT", "2014-01-06", 172], ["CDISCPILOT01", "QS", "01-701-1028", 4035, "DAITM35", "TAKE HIS/HER MEDICATIONS AS PRESCRIBED", "DAD", "MEDICATIONS", "Y", "", "1", 1, "", "", "", "Y", "", 3.0, "BASELINE", 1, "TREATMENT", "2013-07-19", 1], ["CDISCPILOT01", "QS", "01-701-1028", 4075, "DAITM35", "TAKE HIS/HER MEDICATIONS AS PRESCRIBED", "DAD", "MEDICATIONS", "Y", "", "1", 1, "", "", "", "", "", 8.0, "WEEK 8", 56, "TREATMENT", "2013-09-10", 54], ["CDISCPILOT01", "QS", "01-701-1028", 4115, "DAITM35", "TAKE HIS/HER MEDICATIONS AS PRESCRIBED", "DAD", "MEDICATIONS", "Y", "", "1", 1, "", "", "", "", "", 10.0, "WEEK 16", 112, "TREATMENT", "2013-11-06", 111], ["CDISCPILOT01", "QS", "01-701-1028", 4155, "DAITM35", "TAKE HIS/HER MEDICATIONS AS PRESCRIBED", "DAD", "MEDICATIONS", "Y", "", "1", 1, "", "", "", "", "", 12.0, "WEEK 24", 168, "TREATMENT", "2014-01-06", 172], ["CDISCPILOT01", "QS", "01-701-1028", 4036, "DAITM36", "SHOW AN INTEREST IN LEISURE ACTIVITY", "DAD", "LEISURE AND HOUSEWORK", "Y", "", "1", 1, "", "", "", "Y", "", 3.0, "BASELINE", 1, "TREATMENT", "2013-07-19", 1], ["CDISCPILOT01", "QS", "01-701-1028", 4076, "DAITM36", "SHOW AN INTEREST IN LEISURE ACTIVITY", "DAD", "LEISURE AND HOUSEWORK", "Y", "", "1", 1, "", "", "", "", "", 8.0, "WEEK 8", 56, "TREATMENT", "2013-09-10", 54], ["CDISCPILOT01", "QS", "01-701-1028", 4116, "DAITM36", "SHOW AN INTEREST IN LEISURE ACTIVITY", "DAD", "LEISURE AND HOUSEWORK", "Y", "", "1", 1, "", "", "", "", "", 10.0, "WEEK 16", 112, "TREATMENT", "2013-11-06", 111], ["CDISCPILOT01", "QS", "01-701-1028", 4156, "DAITM36", "SHOW AN INTEREST IN LEISURE ACTIVITY", "DAD", "LEISURE AND HOUSEWORK", "Y", "", "1", 1, "", "", "", "", "", 12.0, "WEEK 24", 168, "TREATMENT", "2014-01-06", 172], ["CDISCPILOT01", "QS", "01-701-1028", 4037, "DAITM37", "TAKE AN INTEREST IN HOUSEHOLD CHORES", "DAD", "LEISURE AND HOUSEWORK", "Y", "", "1", 1, "", "", "", "Y", "", 3.0, "BASELINE", 1, "TREATMENT", "2013-07-19", 1], ["CDISCPILOT01", "QS", "01-701-1028", 4077, "DAITM37", "TAKE AN INTEREST IN HOUSEHOLD CHORES", "DAD", "LEISURE AND HOUSEWORK", "Y", "", "1", 1, "", "", "", "", "", 8.0, "WEEK 8", 56, "TREATMENT", "2013-09-10", 54], ["CDISCPILOT01", "QS", "01-701-1028", 4117, "DAITM37", "TAKE AN INTEREST IN HOUSEHOLD CHORES", "DAD", "LEISURE AND HOUSEWORK", "Y", "", "1", 1, "", "", "", "", "", 10.0, "WEEK 16", 112, "TREATMENT", "2013-11-06", 111], ["CDISCPILOT01", "QS", "01-701-1028", 4157, "DAITM37", "TAKE AN INTEREST IN HOUSEHOLD CHORES", "DAD", "LEISURE AND HOUSEWORK", "Y", "", "1", 1, "", "", "", "", "", 12.0, "WEEK 24", 168, "TREATMENT", "2014-01-06", 172], ["CDISCPILOT01", "QS", "01-701-1028", 4038, "DAITM38", "PLAN AND ORGANIZE HOUSEHOLD CHORES", "DAD", "LEISURE AND HOUSEWORK", "Y", "", "1", 1, "", "", "", "Y", "", 3.0, "BASELINE", 1, "TREATMENT", "2013-07-19", 1], ["CDISCPILOT01", "QS", "01-701-1028", 4078, "DAITM38", "PLAN AND ORGANIZE HOUSEHOLD CHORES", "DAD", "LEISURE AND HOUSEWORK", "Y", "", "1", 1, "", "", "", "", "", 8.0, "WEEK 8", 56, "TREATMENT", "2013-09-10", 54], ["CDISCPILOT01", "QS", "01-701-1028", 4118, "DAITM38", "PLAN AND ORGANIZE HOUSEHOLD CHORES", "DAD", "LEISURE AND HOUSEWORK", "Y", "", "1", 1, "", "", "", "", "", 10.0, "WEEK 16", 112, "TREATMENT", "2013-11-06", 111], ["CDISCPILOT01", "QS", "01-701-1028", 4158, "DAITM38", "PLAN AND ORGANIZE HOUSEHOLD CHORES", "DAD", "LEISURE AND HOUSEWORK", "Y", "", "1", 1, "", "", "", "", "", 12.0, "WEEK 24", 168, "TREATMENT", "2014-01-06", 172], ["CDISCPILOT01", "QS", "01-701-1028", 4039, "DAITM39", "COMPLETE HOUSEHOLD CHORES", "DAD", "LEISURE AND HOUSEWORK", "Y", "", "1", 1, "", "", "", "Y", "", 3.0, "BASELINE", 1, "TREATMENT", "2013-07-19", 1], ["CDISCPILOT01", "QS", "01-701-1028", 4079, "DAITM39", "COMPLETE HOUSEHOLD CHORES", "DAD", "LEISURE AND HOUSEWORK", "Y", "", "1", 1, "", "", "", "", "", 8.0, "WEEK 8", 56, "TREATMENT", "2013-09-10", 54], ["CDISCPILOT01", "QS", "01-701-1028", 4119, "DAITM39", "COMPLETE HOUSEHOLD CHORES", "DAD", "LEISURE AND HOUSEWORK", "Y", "", "1", 1, "", "", "", "", "", 10.0, "WEEK 16", 112, "TREATMENT", "2013-11-06", 111], ["CDISCPILOT01", "QS", "01-701-1028", 4159, "DAITM39", "COMPLETE HOUSEHOLD CHORES", "DAD", "LEISURE AND HOUSEWORK", "Y", "", "1", 1, "", "", "", "", "", 12.0, "WEEK 24", 168, "TREATMENT", "2014-01-06", 172], ["CDISCPILOT01", "QS", "01-701-1028", 4040, "DAITM40", "STAY SAFELY AT HOME BY HIMSELF/HERSELF", "DAD", "LEISURE AND HOUSEWORK", "Y", "", "1", 1, "", "", "", "Y", "", 3.0, "BASELINE", 1, "TREATMENT", "2013-07-19", 1], ["CDISCPILOT01", "QS", "01-701-1028", 4080, "DAITM40", "STAY SAFELY AT HOME BY HIMSELF/HERSELF", "DAD", "LEISURE AND HOUSEWORK", "Y", "", "1", 1, "", "", "", "", "", 8.0, "WEEK 8", 56, "TREATMENT", "2013-09-10", 54], ["CDISCPILOT01", "QS", "01-701-1028", 4120, "DAITM40", "STAY SAFELY AT HOME BY HIMSELF/HERSELF", "DAD", "LEISURE AND HOUSEWORK", "Y", "", "1", 1, "", "", "", "", "", 10.0, "WEEK 16", 112, "TREATMENT", "2013-11-06", 111], ["CDISCPILOT01", "QS", "01-701-1028", 4160, "DAITM40", "STAY SAFELY AT HOME BY HIMSELF/HERSELF", "DAD", "LEISURE AND HOUSEWORK", "Y", "", "1", 1, "", "", "", "", "", 12.0, "WEEK 24", 168, "TREATMENT", "2014-01-06", 172], ["CDISCPILOT01", "QS", "01-701-1033", 4001, "DAITM01", "UNDERTAKE TO WASH HIMSELF/HERSELF", "DAD", "HYGIENE", "Y", "", "1", 1, "", "", "", "Y", "", 3.0, "BASELINE", 1, "TREATMENT", "2014-03-18", 1], ["CDISCPILOT01", "QS", "01-701-1033", 4041, "DAITM01", "UNDERTAKE TO WASH HIMSELF/HERSELF", "DAD", "HYGIENE", "Y", "", "1", 1, "", "", "", "", "", 5.0, "WEEK 4", 28, "TREATMENT", "2014-04-14", 28], ["CDISCPILOT01", "QS", "01-701-1033", 4081, "DAITM01", "UNDERTAKE TO WASH HIMSELF/HERSELF", "DAD", "HYGIENE", "Y", "", "1", 1, "", "", "", "", "", 201.0, "RETRIEVAL", 168, "TREATMENT", "2014-09-15", 182], ["CDISCPILOT01", "QS", "01-701-1033", 4002, "DAITM02", "UNDERTAKE TO BRUSH HIS/HER TEETH", "DAD", "HYGIENE", "Y", "", "1", 1, "", "", "", "Y", "", 3.0, "BASELINE", 1, "TREATMENT", "2014-03-18", 1], ["CDISCPILOT01", "QS", "01-701-1033", 4042, "DAITM02", "UNDERTAKE TO BRUSH HIS/HER TEETH", "DAD", "HYGIENE", "Y", "", "1", 1, "", "", "", "", "", 5.0, "WEEK 4", 28, "TREATMENT", "2014-04-14", 28], ["CDISCPILOT01", "QS", "01-701-1033", 4082, "DAITM02", "UNDERTAKE TO BRUSH HIS/HER TEETH", "DAD", "HYGIENE", "Y", "", "1", 1, "", "", "", "", "", 201.0, "RETRIEVAL", 168, "TREATMENT", "2014-09-15", 182], ["CDISCPILOT01", "QS", "01-701-1033", 4003, "DAITM03", "DECIDE TO CARE FOR HIS/HER HAIR", "DAD", "HYGIENE", "Y", "", "1", 1, "", "", "", "Y", "", 3.0, "BASELINE", 1, "TREATMENT", "2014-03-18", 1], ["CDISCPILOT01", "QS", "01-701-1033", 4043, "DAITM03", "DECIDE TO CARE FOR HIS/HER HAIR", "DAD", "HYGIENE", "Y", "", "1", 1, "", "", "", "", "", 5.0, "WEEK 4", 28, "TREATMENT", "2014-04-14", 28], ["CDISCPILOT01", "QS", "01-701-1033", 4083, "DAITM03", "DECIDE TO CARE FOR HIS/HER HAIR", "DAD", "HYGIENE", "Y", "", "1", 1, "", "", "", "", "", 201.0, "RETRIEVAL", 168, "TREATMENT", "2014-09-15", 182], ["CDISCPILOT01", "QS", "01-701-1033", 4004, "DAITM04", "PREPARE FOR WASHING, TAKING A BATH", "DAD", "HYGIENE", "Y", "", "1", 1, "", "", "", "Y", "", 3.0, "BASELINE", 1, "TREATMENT", "2014-03-18", 1], ["CDISCPILOT01", "QS", "01-701-1033", 4044, "DAITM04", "PREPARE FOR WASHING, TAKING A BATH", "DAD", "HYGIENE", "Y", "", "1", 1, "", "", "", "", "", 5.0, "WEEK 4", 28, "TREATMENT", "2014-04-14", 28], ["CDISCPILOT01", "QS", "01-701-1033", 4084, "DAITM04", "PREPARE FOR WASHING, TAKING A BATH", "DAD", "HYGIENE", "Y", "", "1", 1, "", "", "", "", "", 201.0, "RETRIEVAL", 168, "TREATMENT", "2014-09-15", 182], ["CDISCPILOT01", "QS", "01-701-1033", 4005, "DAITM05", "WASH AND DRY COMPLETELY SAFELY", "DAD", "HYGIENE", "Y", "", "1", 1, "", "", "", "Y", "", 3.0, "BASELINE", 1, "TREATMENT", "2014-03-18", 1], ["CDISCPILOT01", "QS", "01-701-1033", 4045, "DAITM05", "WASH AND DRY COMPLETELY SAFELY", "DAD", "HYGIENE", "Y", "", "1", 1, "", "", "", "", "", 5.0, "WEEK 4", 28, "TREATMENT", "2014-04-14", 28], ["CDISCPILOT01", "QS", "01-701-1033", 4085, "DAITM05", "WASH AND DRY COMPLETELY SAFELY", "DAD", "HYGIENE", "Y", "", "1", 1, "", "", "", "", "", 201.0, "RETRIEVAL", 168, "TREATMENT", "2014-09-15", 182], ["CDISCPILOT01", "QS", "01-701-1033", 4006, "DAITM06", "BRUSH HIS/HER TEETH", "DAD", "HYGIENE", "Y", "", "1", 1, "", "", "", "Y", "", 3.0, "BASELINE", 1, "TREATMENT", "2014-03-18", 1], ["CDISCPILOT01", "QS", "01-701-1033", 4046, "DAITM06", "BRUSH HIS/HER TEETH", "DAD", "HYGIENE", "Y", "", "1", 1, "", "", "", "", "", 5.0, "WEEK 4", 28, "TREATMENT", "2014-04-14", 28], ["CDISCPILOT01", "QS", "01-701-1033", 4086, "DAITM06", "BRUSH HIS/HER TEETH", "DAD", "HYGIENE", "Y", "", "1", 1, "", "", "", "", "", 201.0, "RETRIEVAL", 168, "TREATMENT", "2014-09-15", 182], ["CDISCPILOT01", "QS", "01-701-1033", 4007, "DAITM07", "CARE FOR HIS/HER HAIR", "DAD", "HYGIENE", "Y", "", "1", 1, "", "", "", "Y", "", 3.0, "BASELINE", 1, "TREATMENT", "2014-03-18", 1], ["CDISCPILOT01", "QS", "01-701-1033", 4047, "DAITM07", "CARE FOR HIS/HER HAIR", "DAD", "HYGIENE", "Y", "", "1", 1, "", "", "", "", "", 5.0, "WEEK 4", 28, "TREATMENT", "2014-04-14", 28], ["CDISCPILOT01", "QS", "01-701-1033", 4087, "DAITM07", "CARE FOR HIS/HER HAIR", "DAD", "HYGIENE", "Y", "", "1", 1, "", "", "", "", "", 201.0, "RETRIEVAL", 168, "TREATMENT", "2014-09-15", 182], ["CDISCPILOT01", "QS", "01-701-1033", 4008, "DAITM08", "UNDERTAKE TO DRESS HIMSELF/HERSELF", "DAD", "DRESSING", "Y", "", "1", 1, "", "", "", "Y", "", 3.0, "BASELINE", 1, "TREATMENT", "2014-03-18", 1], ["CDISCPILOT01", "QS", "01-701-1033", 4048, "DAITM08", "UNDERTAKE TO DRESS HIMSELF/HERSELF", "DAD", "DRESSING", "Y", "", "1", 1, "", "", "", "", "", 5.0, "WEEK 4", 28, "TREATMENT", "2014-04-14", 28], ["CDISCPILOT01", "QS", "01-701-1033", 4088, "DAITM08", "UNDERTAKE TO DRESS HIMSELF/HERSELF", "DAD", "DRESSING", "Y", "", "1", 1, "", "", "", "", "", 201.0, "RETRIEVAL", 168, "TREATMENT", "2014-09-15", 182], ["CDISCPILOT01", "QS", "01-701-1033", 4009, "DAITM09", "CHOOSE APPROPRIATE CLOTHING", "DAD", "DRESSING", "Y", "", "1", 1, "", "", "", "Y", "", 3.0, "BASELINE", 1, "TREATMENT", "2014-03-18", 1], ["CDISCPILOT01", "QS", "01-701-1033", 4049, "DAITM09", "CHOOSE APPROPRIATE CLOTHING", "DAD", "DRESSING", "Y", "", "1", 1, "", "", "", "", "", 5.0, "WEEK 4", 28, "TREATMENT", "2014-04-14", 28], ["CDISCPILOT01", "QS", "01-701-1033", 4089, "DAITM09", "CHOOSE APPROPRIATE CLOTHING", "DAD", "DRESSING", "Y", "", "1", 1, "", "", "", "", "", 201.0, "RETRIEVAL", 168, "TREATMENT", "2014-09-15", 182], ["CDISCPILOT01", "QS", "01-701-1033", 4010, "DAITM10", "DRESS HIMSELF/HERSELF", "DAD", "DRESSING", "Y", "", "1", 1, "", "", "", "Y", "", 3.0, "BASELINE", 1, "TREATMENT", "2014-03-18", 1], ["CDISCPILOT01", "QS", "01-701-1033", 4050, "DAITM10", "DRESS HIMSELF/HERSELF", "DAD", "DRESSING", "Y", "", "1", 1, "", "", "", "", "", 5.0, "WEEK 4", 28, "TREATMENT", "2014-04-14", 28], ["CDISCPILOT01", "QS", "01-701-1033", 4090, "DAITM10", "DRESS HIMSELF/HERSELF", "DAD", "DRESSING", "Y", "", "1", 1, "", "", "", "", "", 201.0, "RETRIEVAL", 168, "TREATMENT", "2014-09-15", 182], ["CDISCPILOT01", "QS", "01-701-1033", 4011, "DAITM11", "DRESS HIMSELF/HERSELF COMPLETELY", "DAD", "DRESSING", "Y", "", "1", 1, "", "", "", "Y", "", 3.0, "BASELINE", 1, "TREATMENT", "2014-03-18", 1], ["CDISCPILOT01", "QS", "01-701-1033", 4051, "DAITM11", "DRESS HIMSELF/HERSELF COMPLETELY", "DAD", "DRESSING", "Y", "", "1", 1, "", "", "", "", "", 5.0, "WEEK 4", 28, "TREATMENT", "2014-04-14", 28], ["CDISCPILOT01", "QS", "01-701-1033", 4091, "DAITM11", "DRESS HIMSELF/HERSELF COMPLETELY", "DAD", "DRESSING", "Y", "", "1", 1, "", "", "", "", "", 201.0, "RETRIEVAL", 168, "TREATMENT", "2014-09-15", 182], ["CDISCPILOT01", "QS", "01-701-1033", 4012, "DAITM12", "UNDRESS HIMSELF/HERSELF COMPLETELY", "DAD", "DRESSING", "Y", "", "1", 1, "", "", "", "Y", "", 3.0, "BASELINE", 1, "TREATMENT", "2014-03-18", 1], ["CDISCPILOT01", "QS", "01-701-1033", 4052, "DAITM12", "UNDRESS HIMSELF/HERSELF COMPLETELY", "DAD", "DRESSING", "Y", "", "1", 1, "", "", "", "", "", 5.0, "WEEK 4", 28, "TREATMENT", "2014-04-14", 28], ["CDISCPILOT01", "QS", "01-701-1033", 4092, "DAITM12", "UNDRESS HIMSELF/HERSELF COMPLETELY", "DAD", "DRESSING", "Y", "", "1", 1, "", "", "", "", "", 201.0, "RETRIEVAL", 168, "TREATMENT", "2014-09-15", 182], ["CDISCPILOT01", "QS", "01-701-1033", 4013, "DAITM13", "DECIDE TO USE THE TOILET AT APPROPRIATE", "DAD", "CONTINENCE", "Y", "", "1", 1, "", "", "", "Y", "", 3.0, "BASELINE", 1, "TREATMENT", "2014-03-18", 1], ["CDISCPILOT01", "QS", "01-701-1033", 4053, "DAITM13", "DECIDE TO USE THE TOILET AT APPROPRIATE", "DAD", "CONTINENCE", "Y", "", "1", 1, "", "", "", "", "", 5.0, "WEEK 4", 28, "TREATMENT", "2014-04-14", 28], ["CDISCPILOT01", "QS", "01-701-1033", 4093, "DAITM13", "DECIDE TO USE THE TOILET AT APPROPRIATE", "DAD", "CONTINENCE", "Y", "", "1", 1, "", "", "", "", "", 201.0, "RETRIEVAL", 168, "TREATMENT", "2014-09-15", 182], ["CDISCPILOT01", "QS", "01-701-1033", 4014, "DAITM14", "USE THE TOILET WITHOUT \"ACCIDENTS\"", "DAD", "CONTINENCE", "Y", "", "1", 1, "", "", "", "Y", "", 3.0, "BASELINE", 1, "TREATMENT", "2014-03-18", 1], ["CDISCPILOT01", "QS", "01-701-1033", 4054, "DAITM14", "USE THE TOILET WITHOUT \"ACCIDENTS\"", "DAD", "CONTINENCE", "Y", "", "1", 1, "", "", "", "", "", 5.0, "WEEK 4", 28, "TREATMENT", "2014-04-14", 28], ["CDISCPILOT01", "QS", "01-701-1033", 4094, "DAITM14", "USE THE TOILET WITHOUT \"ACCIDENTS\"", "DAD", "CONTINENCE", "Y", "", "1", 1, "", "", "", "", "", 201.0, "RETRIEVAL", 168, "TREATMENT", "2014-09-15", 182], ["CDISCPILOT01", "QS", "01-701-1033", 4015, "DAITM15", "DECIDE THAT HE/SHE NEEDS TO EAT", "DAD", "EATING", "Y", "", "1", 1, "", "", "", "Y", "", 3.0, "BASELINE", 1, "TREATMENT", "2014-03-18", 1], ["CDISCPILOT01", "QS", "01-701-1033", 4055, "DAITM15", "DECIDE THAT HE/SHE NEEDS TO EAT", "DAD", "EATING", "Y", "", "1", 1, "", "", "", "", "", 5.0, "WEEK 4", 28, "TREATMENT", "2014-04-14", 28], ["CDISCPILOT01", "QS", "01-701-1033", 4095, "DAITM15", "DECIDE THAT HE/SHE NEEDS TO EAT", "DAD", "EATING", "Y", "", "1", 1, "", "", "", "", "", 201.0, "RETRIEVAL", 168, "TREATMENT", "2014-09-15", 182], ["CDISCPILOT01", "QS", "01-701-1033", 4016, "DAITM16", "CHOOSE APPROPRIATE UTENSILS", "DAD", "EATING", "Y", "", "1", 1, "", "", "", "Y", "", 3.0, "BASELINE", 1, "TREATMENT", "2014-03-18", 1], ["CDISCPILOT01", "QS", "01-701-1033", 4056, "DAITM16", "CHOOSE APPROPRIATE UTENSILS", "DAD", "EATING", "Y", "", "1", 1, "", "", "", "", "", 5.0, "WEEK 4", 28, "TREATMENT", "2014-04-14", 28], ["CDISCPILOT01", "QS", "01-701-1033", 4096, "DAITM16", "CHOOSE APPROPRIATE UTENSILS", "DAD", "EATING", "Y", "", "1", 1, "", "", "", "", "", 201.0, "RETRIEVAL", 168, "TREATMENT", "2014-09-15", 182], ["CDISCPILOT01", "QS", "01-701-1033", 4017, "DAITM17", "EAT HIS/HER MEALS AT A NORMAL PACE", "DAD", "EATING", "Y", "", "1", 1, "", "", "", "Y", "", 3.0, "BASELINE", 1, "TREATMENT", "2014-03-18", 1], ["CDISCPILOT01", "QS", "01-701-1033", 4057, "DAITM17", "EAT HIS/HER MEALS AT A NORMAL PACE", "DAD", "EATING", "Y", "", "1", 1, "", "", "", "", "", 5.0, "WEEK 4", 28, "TREATMENT", "2014-04-14", 28], ["CDISCPILOT01", "QS", "01-701-1033", 4097, "DAITM17", "EAT HIS/HER MEALS AT A NORMAL PACE", "DAD", "EATING", "Y", "", "1", 1, "", "", "", "", "", 201.0, "RETRIEVAL", 168, "TREATMENT", "2014-09-15", 182], ["CDISCPILOT01", "QS", "01-701-1033", 4018, "DAITM18", "UNDERTAKE TO PREPARE A LIGHT MEAL", "DAD", "MEAL PREPARATION", "Y", "", "1", 1, "", "", "", "Y", "", 3.0, "BASELINE", 1, "TREATMENT", "2014-03-18", 1], ["CDISCPILOT01", "QS", "01-701-1033", 4058, "DAITM18", "UNDERTAKE TO PREPARE A LIGHT MEAL", "DAD", "MEAL PREPARATION", "Y", "", "1", 1, "", "", "", "", "", 5.0, "WEEK 4", 28, "TREATMENT", "2014-04-14", 28], ["CDISCPILOT01", "QS", "01-701-1033", 4098, "DAITM18", "UNDERTAKE TO PREPARE A LIGHT MEAL", "DAD", "MEAL PREPARATION", "Y", "", "1", 1, "", "", "", "", "", 201.0, "RETRIEVAL", 168, "TREATMENT", "2014-09-15", 182], ["CDISCPILOT01", "QS", "01-701-1033", 4019, "DAITM19", "ADEQUATELY PLAN A LIGHT MEAL OR SNACK", "DAD", "MEAL PREPARATION", "Y", "", "1", 1, "", "", "", "Y", "", 3.0, "BASELINE", 1, "TREATMENT", "2014-03-18", 1], ["CDISCPILOT01", "QS", "01-701-1033", 4059, "DAITM19", "ADEQUATELY PLAN A LIGHT MEAL OR SNACK", "DAD", "MEAL PREPARATION", "Y", "", "1", 1, "", "", "", "", "", 5.0, "WEEK 4", 28, "TREATMENT", "2014-04-14", 28], ["CDISCPILOT01", "QS", "01-701-1033", 4099, "DAITM19", "ADEQUATELY PLAN A LIGHT MEAL OR SNACK", "DAD", "MEAL PREPARATION", "Y", "", "1", 1, "", "", "", "", "", 201.0, "RETRIEVAL", 168, "TREATMENT", "2014-09-15", 182], ["CDISCPILOT01", "QS", "01-701-1033", 4020, "DAITM20", "PREPARE OR COOK A LIGHT MEAL OR A SNACK", "DAD", "MEAL PREPARATION", "Y", "", "1", 1, "", "", "", "Y", "", 3.0, "BASELINE", 1, "TREATMENT", "2014-03-18", 1], ["CDISCPILOT01", "QS", "01-701-1033", 4060, "DAITM20", "PREPARE OR COOK A LIGHT MEAL OR A SNACK", "DAD", "MEAL PREPARATION", "Y", "", "1", 1, "", "", "", "", "", 5.0, "WEEK 4", 28, "TREATMENT", "2014-04-14", 28], ["CDISCPILOT01", "QS", "01-701-1033", 4100, "DAITM20", "PREPARE OR COOK A LIGHT MEAL OR A SNACK", "DAD", "MEAL PREPARATION", "Y", "", "1", 1, "", "", "", "", "", 201.0, "RETRIEVAL", 168, "TREATMENT", "2014-09-15", 182], ["CDISCPILOT01", "QS", "01-701-1033", 4021, "DAITM21", "ATTEMPT TO TELEPHONE SOMEONE", "DAD", "TELEPHONING", "Y", "", "1", 1, "", "", "", "Y", "", 3.0, "BASELINE", 1, "TREATMENT", "2014-03-18", 1], ["CDISCPILOT01", "QS", "01-701-1033", 4061, "DAITM21", "ATTEMPT TO TELEPHONE SOMEONE", "DAD", "TELEPHONING", "Y", "", "1", 1, "", "", "", "", "", 5.0, "WEEK 4", 28, "TREATMENT", "2014-04-14", 28], ["CDISCPILOT01", "QS", "01-701-1033", 4101, "DAITM21", "ATTEMPT TO TELEPHONE SOMEONE", "DAD", "TELEPHONING", "Y", "", "1", 1, "", "", "", "", "", 201.0, "RETRIEVAL", 168, "TREATMENT", "2014-09-15", 182], ["CDISCPILOT01", "QS", "01-701-1033", 4022, "DAITM22", "FIND AND DIAL A TELEPHONE NUMBER CORRECT", "DAD", "TELEPHONING", "Y", "", "1", 1, "", "", "", "Y", "", 3.0, "BASELINE", 1, "TREATMENT", "2014-03-18", 1], ["CDISCPILOT01", "QS", "01-701-1033", 4062, "DAITM22", "FIND AND DIAL A TELEPHONE NUMBER CORRECT", "DAD", "TELEPHONING", "Y", "", "1", 1, "", "", "", "", "", 5.0, "WEEK 4", 28, "TREATMENT", "2014-04-14", 28], ["CDISCPILOT01", "QS", "01-701-1033", 4102, "DAITM22", "FIND AND DIAL A TELEPHONE NUMBER CORRECT", "DAD", "TELEPHONING", "Y", "", "1", 1, "", "", "", "", "", 201.0, "RETRIEVAL", 168, "TREATMENT", "2014-09-15", 182], ["CDISCPILOT01", "QS", "01-701-1033", 4023, "DAITM23", "CARRY OUT A TELEPHONE CONVERSATION", "DAD", "TELEPHONING", "Y", "", "1", 1, "", "", "", "Y", "", 3.0, "BASELINE", 1, "TREATMENT", "2014-03-18", 1], ["CDISCPILOT01", "QS", "01-701-1033", 4063, "DAITM23", "CARRY OUT A TELEPHONE CONVERSATION", "DAD", "TELEPHONING", "Y", "", "1", 1, "", "", "", "", "", 5.0, "WEEK 4", 28, "TREATMENT", "2014-04-14", 28], ["CDISCPILOT01", "QS", "01-701-1033", 4103, "DAITM23", "CARRY OUT A TELEPHONE CONVERSATION", "DAD", "TELEPHONING", "Y", "", "1", 1, "", "", "", "", "", 201.0, "RETRIEVAL", 168, "TREATMENT", "2014-09-15", 182], ["CDISCPILOT01", "QS", "01-701-1033", 4024, "DAITM24", "WRITE AND CONVEY A TELEPHONE MESSAGE", "DAD", "TELEPHONING", "Y", "", "1", 1, "", "", "", "Y", "", 3.0, "BASELINE", 1, "TREATMENT", "2014-03-18", 1], ["CDISCPILOT01", "QS", "01-701-1033", 4064, "DAITM24", "WRITE AND CONVEY A TELEPHONE MESSAGE", "DAD", "TELEPHONING", "Y", "", "1", 1, "", "", "", "", "", 5.0, "WEEK 4", 28, "TREATMENT", "2014-04-14", 28], ["CDISCPILOT01", "QS", "01-701-1033", 4104, "DAITM24", "WRITE AND CONVEY A TELEPHONE MESSAGE", "DAD", "TELEPHONING", "N", "", "0", 0, "", "", "", "", "", 201.0, "RETRIEVAL", 168, "TREATMENT", "2014-09-15", 182], ["CDISCPILOT01", "QS", "01-701-1033", 4025, "DAITM25", "UNDERTAKE TO GO OUT", "DAD", "GOING ON AN OUTING", "Y", "", "1", 1, "", "", "", "Y", "", 3.0, "BASELINE", 1, "TREATMENT", "2014-03-18", 1], ["CDISCPILOT01", "QS", "01-701-1033", 4065, "DAITM25", "UNDERTAKE TO GO OUT", "DAD", "GOING ON AN OUTING", "Y", "", "1", 1, "", "", "", "", "", 5.0, "WEEK 4", 28, "TREATMENT", "2014-04-14", 28], ["CDISCPILOT01", "QS", "01-701-1033", 4105, "DAITM25", "UNDERTAKE TO GO OUT", "DAD", "GOING ON AN OUTING", "Y", "", "1", 1, "", "", "", "", "", 201.0, "RETRIEVAL", 168, "TREATMENT", "2014-09-15", 182], ["CDISCPILOT01", "QS", "01-701-1033", 4026, "DAITM26", "ADEQUATELY ORGANIZE AN OUTING", "DAD", "GOING ON AN OUTING", "Y", "", "1", 1, "", "", "", "Y", "", 3.0, "BASELINE", 1, "TREATMENT", "2014-03-18", 1], ["CDISCPILOT01", "QS", "01-701-1033", 4066, "DAITM26", "ADEQUATELY ORGANIZE AN OUTING", "DAD", "GOING ON AN OUTING", "Y", "", "1", 1, "", "", "", "", "", 5.0, "WEEK 4", 28, "TREATMENT", "2014-04-14", 28], ["CDISCPILOT01", "QS", "01-701-1033", 4106, "DAITM26", "ADEQUATELY ORGANIZE AN OUTING", "DAD", "GOING ON AN OUTING", "Y", "", "1", 1, "", "", "", "", "", 201.0, "RETRIEVAL", 168, "TREATMENT", "2014-09-15", 182], ["CDISCPILOT01", "QS", "01-701-1033", 4027, "DAITM27", "GO OUT AND REACH A FAMILIAR DESTINATION", "DAD", "GOING ON AN OUTING", "Y", "", "1", 1, "", "", "", "Y", "", 3.0, "BASELINE", 1, "TREATMENT", "2014-03-18", 1], ["CDISCPILOT01", "QS", "01-701-1033", 4067, "DAITM27", "GO OUT AND REACH A FAMILIAR DESTINATION", "DAD", "GOING ON AN OUTING", "Y", "", "1", 1, "", "", "", "", "", 5.0, "WEEK 4", 28, "TREATMENT", "2014-04-14", 28], ["CDISCPILOT01", "QS", "01-701-1033", 4107, "DAITM27", "GO OUT AND REACH A FAMILIAR DESTINATION", "DAD", "GOING ON AN OUTING", "Y", "", "1", 1, "", "", "", "", "", 201.0, "RETRIEVAL", 168, "TREATMENT", "2014-09-15", 182], ["CDISCPILOT01", "QS", "01-701-1033", 4028, "DAITM28", "SAFELY TAKE CAR, BUS, TAXI", "DAD", "GOING ON AN OUTING", "Y", "", "1", 1, "", "", "", "Y", "", 3.0, "BASELINE", 1, "TREATMENT", "2014-03-18", 1], ["CDISCPILOT01", "QS", "01-701-1033", 4068, "DAITM28", "SAFELY TAKE CAR, BUS, TAXI", "DAD", "GOING ON AN OUTING", "Y", "", "1", 1, "", "", "", "", "", 5.0, "WEEK 4", 28, "TREATMENT", "2014-04-14", 28], ["CDISCPILOT01", "QS", "01-701-1033", 4108, "DAITM28", "SAFELY TAKE CAR, BUS, TAXI", "DAD", "GOING ON AN OUTING", "Y", "", "1", 1, "", "", "", "", "", 201.0, "RETRIEVAL", 168, "TREATMENT", "2014-09-15", 182], ["CDISCPILOT01", "QS", "01-701-1033", 4029, "DAITM29", "RETURN FROM THE STORE", "DAD", "GOING ON AN OUTING", "Y", "", "1", 1, "", "", "", "Y", "", 3.0, "BASELINE", 1, "TREATMENT", "2014-03-18", 1], ["CDISCPILOT01", "QS", "01-701-1033", 4069, "DAITM29", "RETURN FROM THE STORE", "DAD", "GOING ON AN OUTING", "Y", "", "1", 1, "", "", "", "", "", 5.0, "WEEK 4", 28, "TREATMENT", "2014-04-14", 28], ["CDISCPILOT01", "QS", "01-701-1033", 4109, "DAITM29", "RETURN FROM THE STORE", "DAD", "GOING ON AN OUTING", "Y", "", "1", 1, "", "", "", "", "", 201.0, "RETRIEVAL", 168, "TREATMENT", "2014-09-15", 182], ["CDISCPILOT01", "QS", "01-701-1033", 4030, "DAITM30", "INTEREST IN HIS/HER PERSONAL AFFAIRS", "DAD", "FINANCE AND CORRESPONDE", "Y", "", "1", 1, "", "", "", "Y", "", 3.0, "BASELINE", 1, "TREATMENT", "2014-03-18", 1], ["CDISCPILOT01", "QS", "01-701-1033", 4070, "DAITM30", "INTEREST IN HIS/HER PERSONAL AFFAIRS", "DAD", "FINANCE AND CORRESPONDE", "Y", "", "1", 1, "", "", "", "", "", 5.0, "WEEK 4", 28, "TREATMENT", "2014-04-14", 28], ["CDISCPILOT01", "QS", "01-701-1033", 4110, "DAITM30", "INTEREST IN HIS/HER PERSONAL AFFAIRS", "DAD", "FINANCE AND CORRESPONDE", "Y", "", "1", 1, "", "", "", "", "", 201.0, "RETRIEVAL", 168, "TREATMENT", "2014-09-15", 182], ["CDISCPILOT01", "QS", "01-701-1033", 4031, "DAITM31", "PAY HIS/HER BILLS", "DAD", "FINANCE AND CORRESPONDE", "Y", "", "1", 1, "", "", "", "Y", "", 3.0, "BASELINE", 1, "TREATMENT", "2014-03-18", 1], ["CDISCPILOT01", "QS", "01-701-1033", 4071, "DAITM31", "PAY HIS/HER BILLS", "DAD", "FINANCE AND CORRESPONDE", "Y", "", "1", 1, "", "", "", "", "", 5.0, "WEEK 4", 28, "TREATMENT", "2014-04-14", 28], ["CDISCPILOT01", "QS", "01-701-1033", 4111, "DAITM31", "PAY HIS/HER BILLS", "DAD", "FINANCE AND CORRESPONDE", "Y", "", "1", 1, "", "", "", "", "", 201.0, "RETRIEVAL", 168, "TREATMENT", "2014-09-15", 182], ["CDISCPILOT01", "QS", "01-701-1033", 4032, "DAITM32", "ORGANIZE HIS/HER CORRESPONDENCE", "DAD", "FINANCE AND CORRESPONDE", "Y", "", "1", 1, "", "", "", "Y", "", 3.0, "BASELINE", 1, "TREATMENT", "2014-03-18", 1], ["CDISCPILOT01", "QS", "01-701-1033", 4072, "DAITM32", "ORGANIZE HIS/HER CORRESPONDENCE", "DAD", "FINANCE AND CORRESPONDE", "Y", "", "1", 1, "", "", "", "", "", 5.0, "WEEK 4", 28, "TREATMENT", "2014-04-14", 28], ["CDISCPILOT01", "QS", "01-701-1033", 4112, "DAITM32", "ORGANIZE HIS/HER CORRESPONDENCE", "DAD", "FINANCE AND CORRESPONDE", "Y", "", "1", 1, "", "", "", "", "", 201.0, "RETRIEVAL", 168, "TREATMENT", "2014-09-15", 182], ["CDISCPILOT01", "QS", "01-701-1033", 4033, "DAITM33", "HANDLE ADEQUATELY HIS/HER MONEY", "DAD", "FINANCE AND CORRESPONDE", "Y", "", "1", 1, "", "", "", "Y", "", 3.0, "BASELINE", 1, "TREATMENT", "2014-03-18", 1], ["CDISCPILOT01", "QS", "01-701-1033", 4073, "DAITM33", "HANDLE ADEQUATELY HIS/HER MONEY", "DAD", "FINANCE AND CORRESPONDE", "Y", "", "1", 1, "", "", "", "", "", 5.0, "WEEK 4", 28, "TREATMENT", "2014-04-14", 28], ["CDISCPILOT01", "QS", "01-701-1033", 4113, "DAITM33", "HANDLE ADEQUATELY HIS/HER MONEY", "DAD", "FINANCE AND CORRESPONDE", "Y", "", "1", 1, "", "", "", "", "", 201.0, "RETRIEVAL", 168, "TREATMENT", "2014-09-15", 182], ["CDISCPILOT01", "QS", "01-701-1033", 4034, "DAITM34", "DECIDE TO TAKE HIS/HER MEDICATIONS", "DAD", "MEDICATIONS", "Y", "", "1", 1, "", "", "", "Y", "", 3.0, "BASELINE", 1, "TREATMENT", "2014-03-18", 1], ["CDISCPILOT01", "QS", "01-701-1033", 4074, "DAITM34", "DECIDE TO TAKE HIS/HER MEDICATIONS", "DAD", "MEDICATIONS", "Y", "", "1", 1, "", "", "", "", "", 5.0, "WEEK 4", 28, "TREATMENT", "2014-04-14", 28], ["CDISCPILOT01", "QS", "01-701-1033", 4114, "DAITM34", "DECIDE TO TAKE HIS/HER MEDICATIONS", "DAD", "MEDICATIONS", "Y", "", "1", 1, "", "", "", "", "", 201.0, "RETRIEVAL", 168, "TREATMENT", "2014-09-15", 182], ["CDISCPILOT01", "QS", "01-701-1033", 4035, "DAITM35", "TAKE HIS/HER MEDICATIONS AS PRESCRIBED", "DAD", "MEDICATIONS", "Y", "", "1", 1, "", "", "", "Y", "", 3.0, "BASELINE", 1, "TREATMENT", "2014-03-18", 1], ["CDISCPILOT01", "QS", "01-701-1033", 4075, "DAITM35", "TAKE HIS/HER MEDICATIONS AS PRESCRIBED", "DAD", "MEDICATIONS", "Y", "", "1", 1, "", "", "", "", "", 5.0, "WEEK 4", 28, "TREATMENT", "2014-04-14", 28], ["CDISCPILOT01", "QS", "01-701-1033", 4115, "DAITM35", "TAKE HIS/HER MEDICATIONS AS PRESCRIBED", "DAD", "MEDICATIONS", "Y", "", "1", 1, "", "", "", "", "", 201.0, "RETRIEVAL", 168, "TREATMENT", "2014-09-15", 182], ["CDISCPILOT01", "QS", "01-701-1033", 4036, "DAITM36", "SHOW AN INTEREST IN LEISURE ACTIVITY", "DAD", "LEISURE AND HOUSEWORK", "Y", "", "1", 1, "", "", "", "Y", "", 3.0, "BASELINE", 1, "TREATMENT", "2014-03-18", 1], ["CDISCPILOT01", "QS", "01-701-1033", 4076, "DAITM36", "SHOW AN INTEREST IN LEISURE ACTIVITY", "DAD", "LEISURE AND HOUSEWORK", "Y", "", "1", 1, "", "", "", "", "", 5.0, "WEEK 4", 28, "TREATMENT", "2014-04-14", 28], ["CDISCPILOT01", "QS", "01-701-1033", 4116, "DAITM36", "SHOW AN INTEREST IN LEISURE ACTIVITY", "DAD", "LEISURE AND HOUSEWORK", "Y", "", "1", 1, "", "", "", "", "", 201.0, "RETRIEVAL", 168, "TREATMENT", "2014-09-15", 182], ["CDISCPILOT01", "QS", "01-701-1033", 4037, "DAITM37", "TAKE AN INTEREST IN HOUSEHOLD CHORES", "DAD", "LEISURE AND HOUSEWORK", "Y", "", "1", 1, "", "", "", "Y", "", 3.0, "BASELINE", 1, "TREATMENT", "2014-03-18", 1], ["CDISCPILOT01", "QS", "01-701-1033", 4077, "DAITM37", "TAKE AN INTEREST IN HOUSEHOLD CHORES", "DAD", "LEISURE AND HOUSEWORK", "Y", "", "1", 1, "", "", "", "", "", 5.0, "WEEK 4", 28, "TREATMENT", "2014-04-14", 28], ["CDISCPILOT01", "QS", "01-701-1033", 4117, "DAITM37", "TAKE AN INTEREST IN HOUSEHOLD CHORES", "DAD", "LEISURE AND HOUSEWORK", "Y", "", "1", 1, "", "", "", "", "", 201.0, "RETRIEVAL", 168, "TREATMENT", "2014-09-15", 182], ["CDISCPILOT01", "QS", "01-701-1033", 4038, "DAITM38", "PLAN AND ORGANIZE HOUSEHOLD CHORES", "DAD", "LEISURE AND HOUSEWORK", "Y", "", "1", 1, "", "", "", "Y", "", 3.0, "BASELINE", 1, "TREATMENT", "2014-03-18", 1], ["CDISCPILOT01", "QS", "01-701-1033", 4078, "DAITM38", "PLAN AND ORGANIZE HOUSEHOLD CHORES", "DAD", "LEISURE AND HOUSEWORK", "Y", "", "1", 1, "", "", "", "", "", 5.0, "WEEK 4", 28, "TREATMENT", "2014-04-14", 28], ["CDISCPILOT01", "QS", "01-701-1033", 4118, "DAITM38", "PLAN AND ORGANIZE HOUSEHOLD CHORES", "DAD", "LEISURE AND HOUSEWORK", "Y", "", "1", 1, "", "", "", "", "", 201.0, "RETRIEVAL", 168, "TREATMENT", "2014-09-15", 182], ["CDISCPILOT01", "QS", "01-701-1033", 4039, "DAITM39", "COMPLETE HOUSEHOLD CHORES", "DAD", "LEISURE AND HOUSEWORK", "Y", "", "1", 1, "", "", "", "Y", "", 3.0, "BASELINE", 1, "TREATMENT", "2014-03-18", 1], ["CDISCPILOT01", "QS", "01-701-1033", 4079, "DAITM39", "COMPLETE HOUSEHOLD CHORES", "DAD", "LEISURE AND HOUSEWORK", "Y", "", "1", 1, "", "", "", "", "", 5.0, "WEEK 4", 28, "TREATMENT", "2014-04-14", 28], ["CDISCPILOT01", "QS", "01-701-1033", 4119, "DAITM39", "COMPLETE HOUSEHOLD CHORES", "DAD", "LEISURE AND HOUSEWORK", "Y", "", "1", 1, "", "", "", "", "", 201.0, "RETRIEVAL", 168, "TREATMENT", "2014-09-15", 182], ["CDISCPILOT01", "QS", "01-701-1033", 4040, "DAITM40", "STAY SAFELY AT HOME BY HIMSELF/HERSELF", "DAD", "LEISURE AND HOUSEWORK", "Y", "", "1", 1, "", "", "", "Y", "", 3.0, "BASELINE", 1, "TREATMENT", "2014-03-18", 1], ["CDISCPILOT01", "QS", "01-701-1033", 4080, "DAITM40", "STAY SAFELY AT HOME BY HIMSELF/HERSELF", "DAD", "LEISURE AND HOUSEWORK", "Y", "", "1", 1, "", "", "", "", "", 5.0, "WEEK 4", 28, "TREATMENT", "2014-04-14", 28], ["CDISCPILOT01", "QS", "01-701-1033", 4120, "DAITM40", "STAY SAFELY AT HOME BY HIMSELF/HERSELF", "DAD", "LEISURE AND HOUSEWORK", "Y", "", "1", 1, "", "", "", "", "", 201.0, "RETRIEVAL", 168, "TREATMENT", "2014-09-15", 182], ["CDISCPILOT01", "QS", "01-701-1034", 4001, "DAITM01", "UNDERTAKE TO WASH HIMSELF/HERSELF", "DAD", "HYGIENE", "Y", "", "1", 1, "", "", "", "Y", "", 3.0, "BASELINE", 1, "TREATMENT", "2014-07-01", 1], ["CDISCPILOT01", "QS", "01-701-1034", 4041, "DAITM01", "UNDERTAKE TO WASH HIMSELF/HERSELF", "DAD", "HYGIENE", "Y", "", "1", 1, "", "", "", "", "", 8.0, "WEEK 8", 56, "TREATMENT", "2014-08-26", 57], ["CDISCPILOT01", "QS", "01-701-1034", 4081, "DAITM01", "UNDERTAKE TO WASH HIMSELF/HERSELF", "DAD", "HYGIENE", "Y", "", "1", 1, "", "", "", "", "", 10.0, "WEEK 16", 112, "TREATMENT", "2014-10-21", 113], ["CDISCPILOT01", "QS", "01-701-1034", 4121, "DAITM01", "UNDERTAKE TO WASH HIMSELF/HERSELF", "DAD", "HYGIENE", "Y", "", "1", 1, "", "", "", "", "", 12.0, "WEEK 24", 168, "TREATMENT", "2014-12-17", 170], ["CDISCPILOT01", "QS", "01-701-1034", 4002, "DAITM02", "UNDERTAKE TO BRUSH HIS/HER TEETH", "DAD", "HYGIENE", "Y", "", "1", 1, "", "", "", "Y", "", 3.0, "BASELINE", 1, "TREATMENT", "2014-07-01", 1], ["CDISCPILOT01", "QS", "01-701-1034", 4042, "DAITM02", "UNDERTAKE TO BRUSH HIS/HER TEETH", "DAD", "HYGIENE", "Y", "", "1", 1, "", "", "", "", "", 8.0, "WEEK 8", 56, "TREATMENT", "2014-08-26", 57], ["CDISCPILOT01", "QS", "01-701-1034", 4082, "DAITM02", "UNDERTAKE TO BRUSH HIS/HER TEETH", "DAD", "HYGIENE", "Y", "", "1", 1, "", "", "", "", "", 10.0, "WEEK 16", 112, "TREATMENT", "2014-10-21", 113], ["CDISCPILOT01", "QS", "01-701-1034", 4122, "DAITM02", "UNDERTAKE TO BRUSH HIS/HER TEETH", "DAD", "HYGIENE", "Y", "", "1", 1, "", "", "", "", "", 12.0, "WEEK 24", 168, "TREATMENT", "2014-12-17", 170], ["CDISCPILOT01", "QS", "01-701-1034", 4003, "DAITM03", "DECIDE TO CARE FOR HIS/HER HAIR", "DAD", "HYGIENE", "Y", "", "1", 1, "", "", "", "Y", "", 3.0, "BASELINE", 1, "TREATMENT", "2014-07-01", 1], ["CDISCPILOT01", "QS", "01-701-1034", 4043, "DAITM03", "DECIDE TO CARE FOR HIS/HER HAIR", "DAD", "HYGIENE", "Y", "", "1", 1, "", "", "", "", "", 8.0, "WEEK 8", 56, "TREATMENT", "2014-08-26", 57], ["CDISCPILOT01", "QS", "01-701-1034", 4083, "DAITM03", "DECIDE TO CARE FOR HIS/HER HAIR", "DAD", "HYGIENE", "Y", "", "1", 1, "", "", "", "", "", 10.0, "WEEK 16", 112, "TREATMENT", "2014-10-21", 113], ["CDISCPILOT01", "QS", "01-701-1034", 4123, "DAITM03", "DECIDE TO CARE FOR HIS/HER HAIR", "DAD", "HYGIENE", "Y", "", "1", 1, "", "", "", "", "", 12.0, "WEEK 24", 168, "TREATMENT", "2014-12-17", 170], ["CDISCPILOT01", "QS", "01-701-1034", 4004, "DAITM04", "PREPARE FOR WASHING, TAKING A BATH", "DAD", "HYGIENE", "Y", "", "1", 1, "", "", "", "Y", "", 3.0, "BASELINE", 1, "TREATMENT", "2014-07-01", 1], ["CDISCPILOT01", "QS", "01-701-1034", 4044, "DAITM04", "PREPARE FOR WASHING, TAKING A BATH", "DAD", "HYGIENE", "Y", "", "1", 1, "", "", "", "", "", 8.0, "WEEK 8", 56, "TREATMENT", "2014-08-26", 57], ["CDISCPILOT01", "QS", "01-701-1034", 4084, "DAITM04", "PREPARE FOR WASHING, TAKING A BATH", "DAD", "HYGIENE", "Y", "", "1", 1, "", "", "", "", "", 10.0, "WEEK 16", 112, "TREATMENT", "2014-10-21", 113], ["CDISCPILOT01", "QS", "01-701-1034", 4124, "DAITM04", "PREPARE FOR WASHING, TAKING A BATH", "DAD", "HYGIENE", "Y", "", "1", 1, "", "", "", "", "", 12.0, "WEEK 24", 168, "TREATMENT", "2014-12-17", 170], ["CDISCPILOT01", "QS", "01-701-1034", 4005, "DAITM05", "WASH AND DRY COMPLETELY SAFELY", "DAD", "HYGIENE", "Y", "", "1", 1, "", "", "", "Y", "", 3.0, "BASELINE", 1, "TREATMENT", "2014-07-01", 1], ["CDISCPILOT01", "QS", "01-701-1034", 4045, "DAITM05", "WASH AND DRY COMPLETELY SAFELY", "DAD", "HYGIENE", "Y", "", "1", 1, "", "", "", "", "", 8.0, "WEEK 8", 56, "TREATMENT", "2014-08-26", 57], ["CDISCPILOT01", "QS", "01-701-1034", 4085, "DAITM05", "WASH AND DRY COMPLETELY SAFELY", "DAD", "HYGIENE", "Y", "", "1", 1, "", "", "", "", "", 10.0, "WEEK 16", 112, "TREATMENT", "2014-10-21", 113], ["CDISCPILOT01", "QS", "01-701-1034", 4125, "DAITM05", "WASH AND DRY COMPLETELY SAFELY", "DAD", "HYGIENE", "Y", "", "1", 1, "", "", "", "", "", 12.0, "WEEK 24", 168, "TREATMENT", "2014-12-17", 170], ["CDISCPILOT01", "QS", "01-701-1034", 4006, "DAITM06", "BRUSH HIS/HER TEETH", "DAD", "HYGIENE", "Y", "", "1", 1, "", "", "", "Y", "", 3.0, "BASELINE", 1, "TREATMENT", "2014-07-01", 1], ["CDISCPILOT01", "QS", "01-701-1034", 4046, "DAITM06", "BRUSH HIS/HER TEETH", "DAD", "HYGIENE", "Y", "", "1", 1, "", "", "", "", "", 8.0, "WEEK 8", 56, "TREATMENT", "2014-08-26", 57], ["CDISCPILOT01", "QS", "01-701-1034", 4086, "DAITM06", "BRUSH HIS/HER TEETH", "DAD", "HYGIENE", "Y", "", "1", 1, "", "", "", "", "", 10.0, "WEEK 16", 112, "TREATMENT", "2014-10-21", 113], ["CDISCPILOT01", "QS", "01-701-1034", 4126, "DAITM06", "BRUSH HIS/HER TEETH", "DAD", "HYGIENE", "Y", "", "1", 1, "", "", "", "", "", 12.0, "WEEK 24", 168, "TREATMENT", "2014-12-17", 170], ["CDISCPILOT01", "QS", "01-701-1034", 4007, "DAITM07", "CARE FOR HIS/HER HAIR", "DAD", "HYGIENE", "Y", "", "1", 1, "", "", "", "Y", "", 3.0, "BASELINE", 1, "TREATMENT", "2014-07-01", 1], ["CDISCPILOT01", "QS", "01-701-1034", 4047, "DAITM07", "CARE FOR HIS/HER HAIR", "DAD", "HYGIENE", "Y", "", "1", 1, "", "", "", "", "", 8.0, "WEEK 8", 56, "TREATMENT", "2014-08-26", 57], ["CDISCPILOT01", "QS", "01-701-1034", 4087, "DAITM07", "CARE FOR HIS/HER HAIR", "DAD", "HYGIENE", "Y", "", "1", 1, "", "", "", "", "", 10.0, "WEEK 16", 112, "TREATMENT", "2014-10-21", 113], ["CDISCPILOT01", "QS", "01-701-1034", 4127, "DAITM07", "CARE FOR HIS/HER HAIR", "DAD", "HYGIENE", "Y", "", "1", 1, "", "", "", "", "", 12.0, "WEEK 24", 168, "TREATMENT", "2014-12-17", 170], ["CDISCPILOT01", "QS", "01-701-1034", 4008, "DAITM08", "UNDERTAKE TO DRESS HIMSELF/HERSELF", "DAD", "DRESSING", "Y", "", "1", 1, "", "", "", "Y", "", 3.0, "BASELINE", 1, "TREATMENT", "2014-07-01", 1], ["CDISCPILOT01", "QS", "01-701-1034", 4048, "DAITM08", "UNDERTAKE TO DRESS HIMSELF/HERSELF", "DAD", "DRESSING", "Y", "", "1", 1, "", "", "", "", "", 8.0, "WEEK 8", 56, "TREATMENT", "2014-08-26", 57], ["CDISCPILOT01", "QS", "01-701-1034", 4088, "DAITM08", "UNDERTAKE TO DRESS HIMSELF/HERSELF", "DAD", "DRESSING", "Y", "", "1", 1, "", "", "", "", "", 10.0, "WEEK 16", 112, "TREATMENT", "2014-10-21", 113], ["CDISCPILOT01", "QS", "01-701-1034", 4128, "DAITM08", "UNDERTAKE TO DRESS HIMSELF/HERSELF", "DAD", "DRESSING", "Y", "", "1", 1, "", "", "", "", "", 12.0, "WEEK 24", 168, "TREATMENT", "2014-12-17", 170], ["CDISCPILOT01", "QS", "01-701-1034", 4009, "DAITM09", "CHOOSE APPROPRIATE CLOTHING", "DAD", "DRESSING", "Y", "", "1", 1, "", "", "", "Y", "", 3.0, "BASELINE", 1, "TREATMENT", "2014-07-01", 1], ["CDISCPILOT01", "QS", "01-701-1034", 4049, "DAITM09", "CHOOSE APPROPRIATE CLOTHING", "DAD", "DRESSING", "Y", "", "1", 1, "", "", "", "", "", 8.0, "WEEK 8", 56, "TREATMENT", "2014-08-26", 57], ["CDISCPILOT01", "QS", "01-701-1034", 4089, "DAITM09", "CHOOSE APPROPRIATE CLOTHING", "DAD", "DRESSING", "Y", "", "1", 1, "", "", "", "", "", 10.0, "WEEK 16", 112, "TREATMENT", "2014-10-21", 113], ["CDISCPILOT01", "QS", "01-701-1034", 4129, "DAITM09", "CHOOSE APPROPRIATE CLOTHING", "DAD", "DRESSING", "Y", "", "1", 1, "", "", "", "", "", 12.0, "WEEK 24", 168, "TREATMENT", "2014-12-17", 170], ["CDISCPILOT01", "QS", "01-701-1034", 4010, "DAITM10", "DRESS HIMSELF/HERSELF", "DAD", "DRESSING", "Y", "", "1", 1, "", "", "", "Y", "", 3.0, "BASELINE", 1, "TREATMENT", "2014-07-01", 1], ["CDISCPILOT01", "QS", "01-701-1034", 4050, "DAITM10", "DRESS HIMSELF/HERSELF", "DAD", "DRESSING", "Y", "", "1", 1, "", "", "", "", "", 8.0, "WEEK 8", 56, "TREATMENT", "2014-08-26", 57], ["CDISCPILOT01", "QS", "01-701-1034", 4090, "DAITM10", "DRESS HIMSELF/HERSELF", "DAD", "DRESSING", "Y", "", "1", 1, "", "", "", "", "", 10.0, "WEEK 16", 112, "TREATMENT", "2014-10-21", 113], ["CDISCPILOT01", "QS", "01-701-1034", 4130, "DAITM10", "DRESS HIMSELF/HERSELF", "DAD", "DRESSING", "Y", "", "1", 1, "", "", "", "", "", 12.0, "WEEK 24", 168, "TREATMENT", "2014-12-17", 170], ["CDISCPILOT01", "QS", "01-701-1034", 4011, "DAITM11", "DRESS HIMSELF/HERSELF COMPLETELY", "DAD", "DRESSING", "Y", "", "1", 1, "", "", "", "Y", "", 3.0, "BASELINE", 1, "TREATMENT", "2014-07-01", 1], ["CDISCPILOT01", "QS", "01-701-1034", 4051, "DAITM11", "DRESS HIMSELF/HERSELF COMPLETELY", "DAD", "DRESSING", "Y", "", "1", 1, "", "", "", "", "", 8.0, "WEEK 8", 56, "TREATMENT", "2014-08-26", 57], ["CDISCPILOT01", "QS", "01-701-1034", 4091, "DAITM11", "DRESS HIMSELF/HERSELF COMPLETELY", "DAD", "DRESSING", "Y", "", "1", 1, "", "", "", "", "", 10.0, "WEEK 16", 112, "TREATMENT", "2014-10-21", 113], ["CDISCPILOT01", "QS", "01-701-1034", 4131, "DAITM11", "DRESS HIMSELF/HERSELF COMPLETELY", "DAD", "DRESSING", "Y", "", "1", 1, "", "", "", "", "", 12.0, "WEEK 24", 168, "TREATMENT", "2014-12-17", 170], ["CDISCPILOT01", "QS", "01-701-1034", 4012, "DAITM12", "UNDRESS HIMSELF/HERSELF COMPLETELY", "DAD", "DRESSING", "Y", "", "1", 1, "", "", "", "Y", "", 3.0, "BASELINE", 1, "TREATMENT", "2014-07-01", 1], ["CDISCPILOT01", "QS", "01-701-1034", 4052, "DAITM12", "UNDRESS HIMSELF/HERSELF COMPLETELY", "DAD", "DRESSING", "Y", "", "1", 1, "", "", "", "", "", 8.0, "WEEK 8", 56, "TREATMENT", "2014-08-26", 57], ["CDISCPILOT01", "QS", "01-701-1034", 4092, "DAITM12", "UNDRESS HIMSELF/HERSELF COMPLETELY", "DAD", "DRESSING", "Y", "", "1", 1, "", "", "", "", "", 10.0, "WEEK 16", 112, "TREATMENT", "2014-10-21", 113], ["CDISCPILOT01", "QS", "01-701-1034", 4132, "DAITM12", "UNDRESS HIMSELF/HERSELF COMPLETELY", "DAD", "DRESSING", "Y", "", "1", 1, "", "", "", "", "", 12.0, "WEEK 24", 168, "TREATMENT", "2014-12-17", 170], ["CDISCPILOT01", "QS", "01-701-1034", 4013, "DAITM13", "DECIDE TO USE THE TOILET AT APPROPRIATE", "DAD", "CONTINENCE", "Y", "", "1", 1, "", "", "", "Y", "", 3.0, "BASELINE", 1, "TREATMENT", "2014-07-01", 1], ["CDISCPILOT01", "QS", "01-701-1034", 4053, "DAITM13", "DECIDE TO USE THE TOILET AT APPROPRIATE", "DAD", "CONTINENCE", "Y", "", "1", 1, "", "", "", "", "", 8.0, "WEEK 8", 56, "TREATMENT", "2014-08-26", 57], ["CDISCPILOT01", "QS", "01-701-1034", 4093, "DAITM13", "DECIDE TO USE THE TOILET AT APPROPRIATE", "DAD", "CONTINENCE", "Y", "", "1", 1, "", "", "", "", "", 10.0, "WEEK 16", 112, "TREATMENT", "2014-10-21", 113], ["CDISCPILOT01", "QS", "01-701-1034", 4133, "DAITM13", "DECIDE TO USE THE TOILET AT APPROPRIATE", "DAD", "CONTINENCE", "Y", "", "1", 1, "", "", "", "", "", 12.0, "WEEK 24", 168, "TREATMENT", "2014-12-17", 170], ["CDISCPILOT01", "QS", "01-701-1034", 4014, "DAITM14", "USE THE TOILET WITHOUT \"ACCIDENTS\"", "DAD", "CONTINENCE", "Y", "", "1", 1, "", "", "", "Y", "", 3.0, "BASELINE", 1, "TREATMENT", "2014-07-01", 1], ["CDISCPILOT01", "QS", "01-701-1034", 4054, "DAITM14", "USE THE TOILET WITHOUT \"ACCIDENTS\"", "DAD", "CONTINENCE", "Y", "", "1", 1, "", "", "", "", "", 8.0, "WEEK 8", 56, "TREATMENT", "2014-08-26", 57], ["CDISCPILOT01", "QS", "01-701-1034", 4094, "DAITM14", "USE THE TOILET WITHOUT \"ACCIDENTS\"", "DAD", "CONTINENCE", "Y", "", "1", 1, "", "", "", "", "", 10.0, "WEEK 16", 112, "TREATMENT", "2014-10-21", 113], ["CDISCPILOT01", "QS", "01-701-1034", 4134, "DAITM14", "USE THE TOILET WITHOUT \"ACCIDENTS\"", "DAD", "CONTINENCE", "Y", "", "1", 1, "", "", "", "", "", 12.0, "WEEK 24", 168, "TREATMENT", "2014-12-17", 170], ["CDISCPILOT01", "QS", "01-701-1034", 4015, "DAITM15", "DECIDE THAT HE/SHE NEEDS TO EAT", "DAD", "EATING", "Y", "", "1", 1, "", "", "", "Y", "", 3.0, "BASELINE", 1, "TREATMENT", "2014-07-01", 1], ["CDISCPILOT01", "QS", "01-701-1034", 4055, "DAITM15", "DECIDE THAT HE/SHE NEEDS TO EAT", "DAD", "EATING", "Y", "", "1", 1, "", "", "", "", "", 8.0, "WEEK 8", 56, "TREATMENT", "2014-08-26", 57], ["CDISCPILOT01", "QS", "01-701-1034", 4095, "DAITM15", "DECIDE THAT HE/SHE NEEDS TO EAT", "DAD", "EATING", "Y", "", "1", 1, "", "", "", "", "", 10.0, "WEEK 16", 112, "TREATMENT", "2014-10-21", 113], ["CDISCPILOT01", "QS", "01-701-1034", 4135, "DAITM15", "DECIDE THAT HE/SHE NEEDS TO EAT", "DAD", "EATING", "Y", "", "1", 1, "", "", "", "", "", 12.0, "WEEK 24", 168, "TREATMENT", "2014-12-17", 170], ["CDISCPILOT01", "QS", "01-701-1034", 4016, "DAITM16", "CHOOSE APPROPRIATE UTENSILS", "DAD", "EATING", "Y", "", "1", 1, "", "", "", "Y", "", 3.0, "BASELINE", 1, "TREATMENT", "2014-07-01", 1], ["CDISCPILOT01", "QS", "01-701-1034", 4056, "DAITM16", "CHOOSE APPROPRIATE UTENSILS", "DAD", "EATING", "Y", "", "1", 1, "", "", "", "", "", 8.0, "WEEK 8", 56, "TREATMENT", "2014-08-26", 57], ["CDISCPILOT01", "QS", "01-701-1034", 4096, "DAITM16", "CHOOSE APPROPRIATE UTENSILS", "DAD", "EATING", "Y", "", "1", 1, "", "", "", "", "", 10.0, "WEEK 16", 112, "TREATMENT", "2014-10-21", 113], ["CDISCPILOT01", "QS", "01-701-1034", 4136, "DAITM16", "CHOOSE APPROPRIATE UTENSILS", "DAD", "EATING", "Y", "", "1", 1, "", "", "", "", "", 12.0, "WEEK 24", 168, "TREATMENT", "2014-12-17", 170], ["CDISCPILOT01", "QS", "01-701-1034", 4017, "DAITM17", "EAT HIS/HER MEALS AT A NORMAL PACE", "DAD", "EATING", "Y", "", "1", 1, "", "", "", "Y", "", 3.0, "BASELINE", 1, "TREATMENT", "2014-07-01", 1], ["CDISCPILOT01", "QS", "01-701-1034", 4057, "DAITM17", "EAT HIS/HER MEALS AT A NORMAL PACE", "DAD", "EATING", "Y", "", "1", 1, "", "", "", "", "", 8.0, "WEEK 8", 56, "TREATMENT", "2014-08-26", 57], ["CDISCPILOT01", "QS", "01-701-1034", 4097, "DAITM17", "EAT HIS/HER MEALS AT A NORMAL PACE", "DAD", "EATING", "Y", "", "1", 1, "", "", "", "", "", 10.0, "WEEK 16", 112, "TREATMENT", "2014-10-21", 113], ["CDISCPILOT01", "QS", "01-701-1034", 4137, "DAITM17", "EAT HIS/HER MEALS AT A NORMAL PACE", "DAD", "EATING", "Y", "", "1", 1, "", "", "", "", "", 12.0, "WEEK 24", 168, "TREATMENT", "2014-12-17", 170], ["CDISCPILOT01", "QS", "01-701-1034", 4018, "DAITM18", "UNDERTAKE TO PREPARE A LIGHT MEAL", "DAD", "MEAL PREPARATION", "Y", "", "1", 1, "", "", "", "Y", "", 3.0, "BASELINE", 1, "TREATMENT", "2014-07-01", 1], ["CDISCPILOT01", "QS", "01-701-1034", 4058, "DAITM18", "UNDERTAKE TO PREPARE A LIGHT MEAL", "DAD", "MEAL PREPARATION", "Y", "", "1", 1, "", "", "", "", "", 8.0, "WEEK 8", 56, "TREATMENT", "2014-08-26", 57], ["CDISCPILOT01", "QS", "01-701-1034", 4098, "DAITM18", "UNDERTAKE TO PREPARE A LIGHT MEAL", "DAD", "MEAL PREPARATION", "Y", "", "1", 1, "", "", "", "", "", 10.0, "WEEK 16", 112, "TREATMENT", "2014-10-21", 113], ["CDISCPILOT01", "QS", "01-701-1034", 4138, "DAITM18", "UNDERTAKE TO PREPARE A LIGHT MEAL", "DAD", "MEAL PREPARATION", "Y", "", "1", 1, "", "", "", "", "", 12.0, "WEEK 24", 168, "TREATMENT", "2014-12-17", 170], ["CDISCPILOT01", "QS", "01-701-1034", 4019, "DAITM19", "ADEQUATELY PLAN A LIGHT MEAL OR SNACK", "DAD", "MEAL PREPARATION", "Y", "", "1", 1, "", "", "", "Y", "", 3.0, "BASELINE", 1, "TREATMENT", "2014-07-01", 1], ["CDISCPILOT01", "QS", "01-701-1034", 4059, "DAITM19", "ADEQUATELY PLAN A LIGHT MEAL OR SNACK", "DAD", "MEAL PREPARATION", "Y", "", "1", 1, "", "", "", "", "", 8.0, "WEEK 8", 56, "TREATMENT", "2014-08-26", 57], ["CDISCPILOT01", "QS", "01-701-1034", 4099, "DAITM19", "ADEQUATELY PLAN A LIGHT MEAL OR SNACK", "DAD", "MEAL PREPARATION", "Y", "", "1", 1, "", "", "", "", "", 10.0, "WEEK 16", 112, "TREATMENT", "2014-10-21", 113], ["CDISCPILOT01", "QS", "01-701-1034", 4139, "DAITM19", "ADEQUATELY PLAN A LIGHT MEAL OR SNACK", "DAD", "MEAL PREPARATION", "Y", "", "1", 1, "", "", "", "", "", 12.0, "WEEK 24", 168, "TREATMENT", "2014-12-17", 170], ["CDISCPILOT01", "QS", "01-701-1034", 4020, "DAITM20", "PREPARE OR COOK A LIGHT MEAL OR A SNACK", "DAD", "MEAL PREPARATION", "Y", "", "1", 1, "", "", "", "Y", "", 3.0, "BASELINE", 1, "TREATMENT", "2014-07-01", 1], ["CDISCPILOT01", "QS", "01-701-1034", 4060, "DAITM20", "PREPARE OR COOK A LIGHT MEAL OR A SNACK", "DAD", "MEAL PREPARATION", "Y", "", "1", 1, "", "", "", "", "", 8.0, "WEEK 8", 56, "TREATMENT", "2014-08-26", 57], ["CDISCPILOT01", "QS", "01-701-1034", 4100, "DAITM20", "PREPARE OR COOK A LIGHT MEAL OR A SNACK", "DAD", "MEAL PREPARATION", "Y", "", "1", 1, "", "", "", "", "", 10.0, "WEEK 16", 112, "TREATMENT", "2014-10-21", 113], ["CDISCPILOT01", "QS", "01-701-1034", 4140, "DAITM20", "PREPARE OR COOK A LIGHT MEAL OR A SNACK", "DAD", "MEAL PREPARATION", "Y", "", "1", 1, "", "", "", "", "", 12.0, "WEEK 24", 168, "TREATMENT", "2014-12-17", 170], ["CDISCPILOT01", "QS", "01-701-1034", 4021, "DAITM21", "ATTEMPT TO TELEPHONE SOMEONE", "DAD", "TELEPHONING", "Y", "", "1", 1, "", "", "", "Y", "", 3.0, "BASELINE", 1, "TREATMENT", "2014-07-01", 1], ["CDISCPILOT01", "QS", "01-701-1034", 4061, "DAITM21", "ATTEMPT TO TELEPHONE SOMEONE", "DAD", "TELEPHONING", "Y", "", "1", 1, "", "", "", "", "", 8.0, "WEEK 8", 56, "TREATMENT", "2014-08-26", 57], ["CDISCPILOT01", "QS", "01-701-1034", 4101, "DAITM21", "ATTEMPT TO TELEPHONE SOMEONE", "DAD", "TELEPHONING", "Y", "", "1", 1, "", "", "", "", "", 10.0, "WEEK 16", 112, "TREATMENT", "2014-10-21", 113], ["CDISCPILOT01", "QS", "01-701-1034", 4141, "DAITM21", "ATTEMPT TO TELEPHONE SOMEONE", "DAD", "TELEPHONING", "Y", "", "1", 1, "", "", "", "", "", 12.0, "WEEK 24", 168, "TREATMENT", "2014-12-17", 170], ["CDISCPILOT01", "QS", "01-701-1034", 4022, "DAITM22", "FIND AND DIAL A TELEPHONE NUMBER CORRECT", "DAD", "TELEPHONING", "Y", "", "1", 1, "", "", "", "Y", "", 3.0, "BASELINE", 1, "TREATMENT", "2014-07-01", 1], ["CDISCPILOT01", "QS", "01-701-1034", 4062, "DAITM22", "FIND AND DIAL A TELEPHONE NUMBER CORRECT", "DAD", "TELEPHONING", "Y", "", "1", 1, "", "", "", "", "", 8.0, "WEEK 8", 56, "TREATMENT", "2014-08-26", 57], ["CDISCPILOT01", "QS", "01-701-1034", 4102, "DAITM22", "FIND AND DIAL A TELEPHONE NUMBER CORRECT", "DAD", "TELEPHONING", "Y", "", "1", 1, "", "", "", "", "", 10.0, "WEEK 16", 112, "TREATMENT", "2014-10-21", 113], ["CDISCPILOT01", "QS", "01-701-1034", 4142, "DAITM22", "FIND AND DIAL A TELEPHONE NUMBER CORRECT", "DAD", "TELEPHONING", "Y", "", "1", 1, "", "", "", "", "", 12.0, "WEEK 24", 168, "TREATMENT", "2014-12-17", 170], ["CDISCPILOT01", "QS", "01-701-1034", 4023, "DAITM23", "CARRY OUT A TELEPHONE CONVERSATION", "DAD", "TELEPHONING", "Y", "", "1", 1, "", "", "", "Y", "", 3.0, "BASELINE", 1, "TREATMENT", "2014-07-01", 1], ["CDISCPILOT01", "QS", "01-701-1034", 4063, "DAITM23", "CARRY OUT A TELEPHONE CONVERSATION", "DAD", "TELEPHONING", "Y", "", "1", 1, "", "", "", "", "", 8.0, "WEEK 8", 56, "TREATMENT", "2014-08-26", 57], ["CDISCPILOT01", "QS", "01-701-1034", 4103, "DAITM23", "CARRY OUT A TELEPHONE CONVERSATION", "DAD", "TELEPHONING", "Y", "", "1", 1, "", "", "", "", "", 10.0, "WEEK 16", 112, "TREATMENT", "2014-10-21", 113], ["CDISCPILOT01", "QS", "01-701-1034", 4143, "DAITM23", "CARRY OUT A TELEPHONE CONVERSATION", "DAD", "TELEPHONING", "Y", "", "1", 1, "", "", "", "", "", 12.0, "WEEK 24", 168, "TREATMENT", "2014-12-17", 170], ["CDISCPILOT01", "QS", "01-701-1034", 4024, "DAITM24", "WRITE AND CONVEY A TELEPHONE MESSAGE", "DAD", "TELEPHONING", "Y", "", "1", 1, "", "", "", "Y", "", 3.0, "BASELINE", 1, "TREATMENT", "2014-07-01", 1], ["CDISCPILOT01", "QS", "01-701-1034", 4064, "DAITM24", "WRITE AND CONVEY A TELEPHONE MESSAGE", "DAD", "TELEPHONING", "Y", "", "1", 1, "", "", "", "", "", 8.0, "WEEK 8", 56, "TREATMENT", "2014-08-26", 57], ["CDISCPILOT01", "QS", "01-701-1034", 4104, "DAITM24", "WRITE AND CONVEY A TELEPHONE MESSAGE", "DAD", "TELEPHONING", "Y", "", "1", 1, "", "", "", "", "", 10.0, "WEEK 16", 112, "TREATMENT", "2014-10-21", 113], ["CDISCPILOT01", "QS", "01-701-1034", 4144, "DAITM24", "WRITE AND CONVEY A TELEPHONE MESSAGE", "DAD", "TELEPHONING", "Y", "", "1", 1, "", "", "", "", "", 12.0, "WEEK 24", 168, "TREATMENT", "2014-12-17", 170], ["CDISCPILOT01", "QS", "01-701-1034", 4025, "DAITM25", "UNDERTAKE TO GO OUT", "DAD", "GOING ON AN OUTING", "Y", "", "1", 1, "", "", "", "Y", "", 3.0, "BASELINE", 1, "TREATMENT", "2014-07-01", 1], ["CDISCPILOT01", "QS", "01-701-1034", 4065, "DAITM25", "UNDERTAKE TO GO OUT", "DAD", "GOING ON AN OUTING", "Y", "", "1", 1, "", "", "", "", "", 8.0, "WEEK 8", 56, "TREATMENT", "2014-08-26", 57], ["CDISCPILOT01", "QS", "01-701-1034", 4105, "DAITM25", "UNDERTAKE TO GO OUT", "DAD", "GOING ON AN OUTING", "Y", "", "1", 1, "", "", "", "", "", 10.0, "WEEK 16", 112, "TREATMENT", "2014-10-21", 113], ["CDISCPILOT01", "QS", "01-701-1034", 4145, "DAITM25", "UNDERTAKE TO GO OUT", "DAD", "GOING ON AN OUTING", "Y", "", "1", 1, "", "", "", "", "", 12.0, "WEEK 24", 168, "TREATMENT", "2014-12-17", 170], ["CDISCPILOT01", "QS", "01-701-1034", 4026, "DAITM26", "ADEQUATELY ORGANIZE AN OUTING", "DAD", "GOING ON AN OUTING", "Y", "", "1", 1, "", "", "", "Y", "", 3.0, "BASELINE", 1, "TREATMENT", "2014-07-01", 1], ["CDISCPILOT01", "QS", "01-701-1034", 4066, "DAITM26", "ADEQUATELY ORGANIZE AN OUTING", "DAD", "GOING ON AN OUTING", "Y", "", "1", 1, "", "", "", "", "", 8.0, "WEEK 8", 56, "TREATMENT", "2014-08-26", 57], ["CDISCPILOT01", "QS", "01-701-1034", 4106, "DAITM26", "ADEQUATELY ORGANIZE AN OUTING", "DAD", "GOING ON AN OUTING", "Y", "", "1", 1, "", "", "", "", "", 10.0, "WEEK 16", 112, "TREATMENT", "2014-10-21", 113], ["CDISCPILOT01", "QS", "01-701-1034", 4146, "DAITM26", "ADEQUATELY ORGANIZE AN OUTING", "DAD", "GOING ON AN OUTING", "Y", "", "1", 1, "", "", "", "", "", 12.0, "WEEK 24", 168, "TREATMENT", "2014-12-17", 170], ["CDISCPILOT01", "QS", "01-701-1034", 4027, "DAITM27", "GO OUT AND REACH A FAMILIAR DESTINATION", "DAD", "GOING ON AN OUTING", "Y", "", "1", 1, "", "", "", "Y", "", 3.0, "BASELINE", 1, "TREATMENT", "2014-07-01", 1], ["CDISCPILOT01", "QS", "01-701-1034", 4067, "DAITM27", "GO OUT AND REACH A FAMILIAR DESTINATION", "DAD", "GOING ON AN OUTING", "Y", "", "1", 1, "", "", "", "", "", 8.0, "WEEK 8", 56, "TREATMENT", "2014-08-26", 57], ["CDISCPILOT01", "QS", "01-701-1034", 4107, "DAITM27", "GO OUT AND REACH A FAMILIAR DESTINATION", "DAD", "GOING ON AN OUTING", "Y", "", "1", 1, "", "", "", "", "", 10.0, "WEEK 16", 112, "TREATMENT", "2014-10-21", 113], ["CDISCPILOT01", "QS", "01-701-1034", 4147, "DAITM27", "GO OUT AND REACH A FAMILIAR DESTINATION", "DAD", "GOING ON AN OUTING", "Y", "", "1", 1, "", "", "", "", "", 12.0, "WEEK 24", 168, "TREATMENT", "2014-12-17", 170], ["CDISCPILOT01", "QS", "01-701-1034", 4028, "DAITM28", "SAFELY TAKE CAR, BUS, TAXI", "DAD", "GOING ON AN OUTING", "Y", "", "1", 1, "", "", "", "Y", "", 3.0, "BASELINE", 1, "TREATMENT", "2014-07-01", 1], ["CDISCPILOT01", "QS", "01-701-1034", 4068, "DAITM28", "SAFELY TAKE CAR, BUS, TAXI", "DAD", "GOING ON AN OUTING", "Y", "", "1", 1, "", "", "", "", "", 8.0, "WEEK 8", 56, "TREATMENT", "2014-08-26", 57], ["CDISCPILOT01", "QS", "01-701-1034", 4108, "DAITM28", "SAFELY TAKE CAR, BUS, TAXI", "DAD", "GOING ON AN OUTING", "Y", "", "1", 1, "", "", "", "", "", 10.0, "WEEK 16", 112, "TREATMENT", "2014-10-21", 113], ["CDISCPILOT01", "QS", "01-701-1034", 4148, "DAITM28", "SAFELY TAKE CAR, BUS, TAXI", "DAD", "GOING ON AN OUTING", "Y", "", "1", 1, "", "", "", "", "", 12.0, "WEEK 24", 168, "TREATMENT", "2014-12-17", 170], ["CDISCPILOT01", "QS", "01-701-1034", 4029, "DAITM29", "RETURN FROM THE STORE", "DAD", "GOING ON AN OUTING", "Y", "", "1", 1, "", "", "", "Y", "", 3.0, "BASELINE", 1, "TREATMENT", "2014-07-01", 1], ["CDISCPILOT01", "QS", "01-701-1034", 4069, "DAITM29", "RETURN FROM THE STORE", "DAD", "GOING ON AN OUTING", "Y", "", "1", 1, "", "", "", "", "", 8.0, "WEEK 8", 56, "TREATMENT", "2014-08-26", 57], ["CDISCPILOT01", "QS", "01-701-1034", 4109, "DAITM29", "RETURN FROM THE STORE", "DAD", "GOING ON AN OUTING", "Y", "", "1", 1, "", "", "", "", "", 10.0, "WEEK 16", 112, "TREATMENT", "2014-10-21", 113], ["CDISCPILOT01", "QS", "01-701-1034", 4149, "DAITM29", "RETURN FROM THE STORE", "DAD", "GOING ON AN OUTING", "Y", "", "1", 1, "", "", "", "", "", 12.0, "WEEK 24", 168, "TREATMENT", "2014-12-17", 170], ["CDISCPILOT01", "QS", "01-701-1034", 4030, "DAITM30", "INTEREST IN HIS/HER PERSONAL AFFAIRS", "DAD", "FINANCE AND CORRESPONDE", "Y", "", "1", 1, "", "", "", "Y", "", 3.0, "BASELINE", 1, "TREATMENT", "2014-07-01", 1], ["CDISCPILOT01", "QS", "01-701-1034", 4070, "DAITM30", "INTEREST IN HIS/HER PERSONAL AFFAIRS", "DAD", "FINANCE AND CORRESPONDE", "Y", "", "1", 1, "", "", "", "", "", 8.0, "WEEK 8", 56, "TREATMENT", "2014-08-26", 57], ["CDISCPILOT01", "QS", "01-701-1034", 4110, "DAITM30", "INTEREST IN HIS/HER PERSONAL AFFAIRS", "DAD", "FINANCE AND CORRESPONDE", "Y", "", "1", 1, "", "", "", "", "", 10.0, "WEEK 16", 112, "TREATMENT", "2014-10-21", 113], ["CDISCPILOT01", "QS", "01-701-1034", 4150, "DAITM30", "INTEREST IN HIS/HER PERSONAL AFFAIRS", "DAD", "FINANCE AND CORRESPONDE", "Y", "", "1", 1, "", "", "", "", "", 12.0, "WEEK 24", 168, "TREATMENT", "2014-12-17", 170], ["CDISCPILOT01", "QS", "01-701-1034", 4031, "DAITM31", "PAY HIS/HER BILLS", "DAD", "FINANCE AND CORRESPONDE", "Y", "", "1", 1, "", "", "", "Y", "", 3.0, "BASELINE", 1, "TREATMENT", "2014-07-01", 1], ["CDISCPILOT01", "QS", "01-701-1034", 4071, "DAITM31", "PAY HIS/HER BILLS", "DAD", "FINANCE AND CORRESPONDE", "Y", "", "1", 1, "", "", "", "", "", 8.0, "WEEK 8", 56, "TREATMENT", "2014-08-26", 57], ["CDISCPILOT01", "QS", "01-701-1034", 4111, "DAITM31", "PAY HIS/HER BILLS", "DAD", "FINANCE AND CORRESPONDE", "Y", "", "1", 1, "", "", "", "", "", 10.0, "WEEK 16", 112, "TREATMENT", "2014-10-21", 113], ["CDISCPILOT01", "QS", "01-701-1034", 4151, "DAITM31", "PAY HIS/HER BILLS", "DAD", "FINANCE AND CORRESPONDE", "Y", "", "1", 1, "", "", "", "", "", 12.0, "WEEK 24", 168, "TREATMENT", "2014-12-17", 170], ["CDISCPILOT01", "QS", "01-701-1034", 4032, "DAITM32", "ORGANIZE HIS/HER CORRESPONDENCE", "DAD", "FINANCE AND CORRESPONDE", "Y", "", "1", 1, "", "", "", "Y", "", 3.0, "BASELINE", 1, "TREATMENT", "2014-07-01", 1], ["CDISCPILOT01", "QS", "01-701-1034", 4072, "DAITM32", "ORGANIZE HIS/HER CORRESPONDENCE", "DAD", "FINANCE AND CORRESPONDE", "Y", "", "1", 1, "", "", "", "", "", 8.0, "WEEK 8", 56, "TREATMENT", "2014-08-26", 57], ["CDISCPILOT01", "QS", "01-701-1034", 4112, "DAITM32", "ORGANIZE HIS/HER CORRESPONDENCE", "DAD", "FINANCE AND CORRESPONDE", "Y", "", "1", 1, "", "", "", "", "", 10.0, "WEEK 16", 112, "TREATMENT", "2014-10-21", 113], ["CDISCPILOT01", "QS", "01-701-1034", 4152, "DAITM32", "ORGANIZE HIS/HER CORRESPONDENCE", "DAD", "FINANCE AND CORRESPONDE", "Y", "", "1", 1, "", "", "", "", "", 12.0, "WEEK 24", 168, "TREATMENT", "2014-12-17", 170], ["CDISCPILOT01", "QS", "01-701-1034", 4033, "DAITM33", "HANDLE ADEQUATELY HIS/HER MONEY", "DAD", "FINANCE AND CORRESPONDE", "Y", "", "1", 1, "", "", "", "Y", "", 3.0, "BASELINE", 1, "TREATMENT", "2014-07-01", 1], ["CDISCPILOT01", "QS", "01-701-1034", 4073, "DAITM33", "HANDLE ADEQUATELY HIS/HER MONEY", "DAD", "FINANCE AND CORRESPONDE", "Y", "", "1", 1, "", "", "", "", "", 8.0, "WEEK 8", 56, "TREATMENT", "2014-08-26", 57], ["CDISCPILOT01", "QS", "01-701-1034", 4113, "DAITM33", "HANDLE ADEQUATELY HIS/HER MONEY", "DAD", "FINANCE AND CORRESPONDE", "Y", "", "1", 1, "", "", "", "", "", 10.0, "WEEK 16", 112, "TREATMENT", "2014-10-21", 113], ["CDISCPILOT01", "QS", "01-701-1034", 4153, "DAITM33", "HANDLE ADEQUATELY HIS/HER MONEY", "DAD", "FINANCE AND CORRESPONDE", "Y", "", "1", 1, "", "", "", "", "", 12.0, "WEEK 24", 168, "TREATMENT", "2014-12-17", 170], ["CDISCPILOT01", "QS", "01-701-1034", 4034, "DAITM34", "DECIDE TO TAKE HIS/HER MEDICATIONS", "DAD", "MEDICATIONS", "Y", "", "1", 1, "", "", "", "Y", "", 3.0, "BASELINE", 1, "TREATMENT", "2014-07-01", 1], ["CDISCPILOT01", "QS", "01-701-1034", 4074, "DAITM34", "DECIDE TO TAKE HIS/HER MEDICATIONS", "DAD", "MEDICATIONS", "Y", "", "1", 1, "", "", "", "", "", 8.0, "WEEK 8", 56, "TREATMENT", "2014-08-26", 57], ["CDISCPILOT01", "QS", "01-701-1034", 4114, "DAITM34", "DECIDE TO TAKE HIS/HER MEDICATIONS", "DAD", "MEDICATIONS", "Y", "", "1", 1, "", "", "", "", "", 10.0, "WEEK 16", 112, "TREATMENT", "2014-10-21", 113], ["CDISCPILOT01", "QS", "01-701-1034", 4154, "DAITM34", "DECIDE TO TAKE HIS/HER MEDICATIONS", "DAD", "MEDICATIONS", "Y", "", "1", 1, "", "", "", "", "", 12.0, "WEEK 24", 168, "TREATMENT", "2014-12-17", 170], ["CDISCPILOT01", "QS", "01-701-1034", 4035, "DAITM35", "TAKE HIS/HER MEDICATIONS AS PRESCRIBED", "DAD", "MEDICATIONS", "Y", "", "1", 1, "", "", "", "Y", "", 3.0, "BASELINE", 1, "TREATMENT", "2014-07-01", 1], ["CDISCPILOT01", "QS", "01-701-1034", 4075, "DAITM35", "TAKE HIS/HER MEDICATIONS AS PRESCRIBED", "DAD", "MEDICATIONS", "Y", "", "1", 1, "", "", "", "", "", 8.0, "WEEK 8", 56, "TREATMENT", "2014-08-26", 57], ["CDISCPILOT01", "QS", "01-701-1034", 4115, "DAITM35", "TAKE HIS/HER MEDICATIONS AS PRESCRIBED", "DAD", "MEDICATIONS", "Y", "", "1", 1, "", "", "", "", "", 10.0, "WEEK 16", 112, "TREATMENT", "2014-10-21", 113], ["CDISCPILOT01", "QS", "01-701-1034", 4155, "DAITM35", "TAKE HIS/HER MEDICATIONS AS PRESCRIBED", "DAD", "MEDICATIONS", "Y", "", "1", 1, "", "", "", "", "", 12.0, "WEEK 24", 168, "TREATMENT", "2014-12-17", 170], ["CDISCPILOT01", "QS", "01-701-1034", 4036, "DAITM36", "SHOW AN INTEREST IN LEISURE ACTIVITY", "DAD", "LEISURE AND HOUSEWORK", "Y", "", "1", 1, "", "", "", "Y", "", 3.0, "BASELINE", 1, "TREATMENT", "2014-07-01", 1], ["CDISCPILOT01", "QS", "01-701-1034", 4076, "DAITM36", "SHOW AN INTEREST IN LEISURE ACTIVITY", "DAD", "LEISURE AND HOUSEWORK", "Y", "", "1", 1, "", "", "", "", "", 8.0, "WEEK 8", 56, "TREATMENT", "2014-08-26", 57], ["CDISCPILOT01", "QS", "01-701-1034", 4116, "DAITM36", "SHOW AN INTEREST IN LEISURE ACTIVITY", "DAD", "LEISURE AND HOUSEWORK", "Y", "", "1", 1, "", "", "", "", "", 10.0, "WEEK 16", 112, "TREATMENT", "2014-10-21", 113], ["CDISCPILOT01", "QS", "01-701-1034", 4156, "DAITM36", "SHOW AN INTEREST IN LEISURE ACTIVITY", "DAD", "LEISURE AND HOUSEWORK", "Y", "", "1", 1, "", "", "", "", "", 12.0, "WEEK 24", 168, "TREATMENT", "2014-12-17", 170], ["CDISCPILOT01", "QS", "01-701-1034", 4037, "DAITM37", "TAKE AN INTEREST IN HOUSEHOLD CHORES", "DAD", "LEISURE AND HOUSEWORK", "Y", "", "1", 1, "", "", "", "Y", "", 3.0, "BASELINE", 1, "TREATMENT", "2014-07-01", 1], ["CDISCPILOT01", "QS", "01-701-1034", 4077, "DAITM37", "TAKE AN INTEREST IN HOUSEHOLD CHORES", "DAD", "LEISURE AND HOUSEWORK", "Y", "", "1", 1, "", "", "", "", "", 8.0, "WEEK 8", 56, "TREATMENT", "2014-08-26", 57], ["CDISCPILOT01", "QS", "01-701-1034", 4117, "DAITM37", "TAKE AN INTEREST IN HOUSEHOLD CHORES", "DAD", "LEISURE AND HOUSEWORK", "Y", "", "1", 1, "", "", "", "", "", 10.0, "WEEK 16", 112, "TREATMENT", "2014-10-21", 113], ["CDISCPILOT01", "QS", "01-701-1034", 4157, "DAITM37", "TAKE AN INTEREST IN HOUSEHOLD CHORES", "DAD", "LEISURE AND HOUSEWORK", "Y", "", "1", 1, "", "", "", "", "", 12.0, "WEEK 24", 168, "TREATMENT", "2014-12-17", 170], ["CDISCPILOT01", "QS", "01-701-1034", 4038, "DAITM38", "PLAN AND ORGANIZE HOUSEHOLD CHORES", "DAD", "LEISURE AND HOUSEWORK", "Y", "", "1", 1, "", "", "", "Y", "", 3.0, "BASELINE", 1, "TREATMENT", "2014-07-01", 1], ["CDISCPILOT01", "QS", "01-701-1034", 4078, "DAITM38", "PLAN AND ORGANIZE HOUSEHOLD CHORES", "DAD", "LEISURE AND HOUSEWORK", "Y", "", "1", 1, "", "", "", "", "", 8.0, "WEEK 8", 56, "TREATMENT", "2014-08-26", 57], ["CDISCPILOT01", "QS", "01-701-1034", 4118, "DAITM38", "PLAN AND ORGANIZE HOUSEHOLD CHORES", "DAD", "LEISURE AND HOUSEWORK", "Y", "", "1", 1, "", "", "", "", "", 10.0, "WEEK 16", 112, "TREATMENT", "2014-10-21", 113], ["CDISCPILOT01", "QS", "01-701-1034", 4158, "DAITM38", "PLAN AND ORGANIZE HOUSEHOLD CHORES", "DAD", "LEISURE AND HOUSEWORK", "Y", "", "1", 1, "", "", "", "", "", 12.0, "WEEK 24", 168, "TREATMENT", "2014-12-17", 170], ["CDISCPILOT01", "QS", "01-701-1034", 4039, "DAITM39", "COMPLETE HOUSEHOLD CHORES", "DAD", "LEISURE AND HOUSEWORK", "Y", "", "1", 1, "", "", "", "Y", "", 3.0, "BASELINE", 1, "TREATMENT", "2014-07-01", 1], ["CDISCPILOT01", "QS", "01-701-1034", 4079, "DAITM39", "COMPLETE HOUSEHOLD CHORES", "DAD", "LEISURE AND HOUSEWORK", "Y", "", "1", 1, "", "", "", "", "", 8.0, "WEEK 8", 56, "TREATMENT", "2014-08-26", 57], ["CDISCPILOT01", "QS", "01-701-1034", 4119, "DAITM39", "COMPLETE HOUSEHOLD CHORES", "DAD", "LEISURE AND HOUSEWORK", "Y", "", "1", 1, "", "", "", "", "", 10.0, "WEEK 16", 112, "TREATMENT", "2014-10-21", 113], ["CDISCPILOT01", "QS", "01-701-1034", 4159, "DAITM39", "COMPLETE HOUSEHOLD CHORES", "DAD", "LEISURE AND HOUSEWORK", "Y", "", "1", 1, "", "", "", "", "", 12.0, "WEEK 24", 168, "TREATMENT", "2014-12-17", 170], ["CDISCPILOT01", "QS", "01-701-1034", 4040, "DAITM40", "STAY SAFELY AT HOME BY HIMSELF/HERSELF", "DAD", "LEISURE AND HOUSEWORK", "Y", "", "1", 1, "", "", "", "Y", "", 3.0, "BASELINE", 1, "TREATMENT", "2014-07-01", 1], ["CDISCPILOT01", "QS", "01-701-1034", 4080, "DAITM40", "STAY SAFELY AT HOME BY HIMSELF/HERSELF", "DAD", "LEISURE AND HOUSEWORK", "Y", "", "1", 1, "", "", "", "", "", 8.0, "WEEK 8", 56, "TREATMENT", "2014-08-26", 57], ["CDISCPILOT01", "QS", "01-701-1034", 4120, "DAITM40", "STAY SAFELY AT HOME BY HIMSELF/HERSELF", "DAD", "LEISURE AND HOUSEWORK", "Y", "", "1", 1, "", "", "", "", "", 10.0, "WEEK 16", 112, "TREATMENT", "2014-10-21", 113], ["CDISCPILOT01", "QS", "01-701-1034", 4160, "DAITM40", "STAY SAFELY AT HOME BY HIMSELF/HERSELF", "DAD", "LEISURE AND HOUSEWORK", "Y", "", "1", 1, "", "", "", "", "", 12.0, "WEEK 24", 168, "TREATMENT", "2014-12-17", 170], ["CDISCPILOT01", "QS", "01-701-1047", 4001, "DAITM01", "UNDERTAKE TO WASH HIMSELF/HERSELF", "DAD", "HYGIENE", "Y", "", "1", 1, "", "", "", "Y", "", 3.0, "BASELINE", 1, "TREATMENT", "2013-02-12", 1], ["CDISCPILOT01", "QS", "01-701-1047", 4041, "DAITM01", "UNDERTAKE TO WASH HIMSELF/HERSELF", "DAD", "HYGIENE", "Y", "", "1", 1, "", "", "", "", "", 6.0, "AMBUL ECG REMOVAL", 30, "TREATMENT", "2013-03-29", 46], ["CDISCPILOT01", "QS", "01-701-1047", 4081, "DAITM01", "UNDERTAKE TO WASH HIMSELF/HERSELF", "DAD", "HYGIENE", "Y", "", "1", 1, "", "", "", "", "", 201.0, "RETRIEVAL", 168, "TREATMENT", "2013-07-28", 167], ["CDISCPILOT01", "QS", "01-701-1047", 4002, "DAITM02", "UNDERTAKE TO BRUSH HIS/HER TEETH", "DAD", "HYGIENE", "Y", "", "1", 1, "", "", "", "Y", "", 3.0, "BASELINE", 1, "TREATMENT", "2013-02-12", 1], ["CDISCPILOT01", "QS", "01-701-1047", 4042, "DAITM02", "UNDERTAKE TO BRUSH HIS/HER TEETH", "DAD", "HYGIENE", "Y", "", "1", 1, "", "", "", "", "", 6.0, "AMBUL ECG REMOVAL", 30, "TREATMENT", "2013-03-29", 46], ["CDISCPILOT01", "QS", "01-701-1047", 4082, "DAITM02", "UNDERTAKE TO BRUSH HIS/HER TEETH", "DAD", "HYGIENE", "Y", "", "1", 1, "", "", "", "", "", 201.0, "RETRIEVAL", 168, "TREATMENT", "2013-07-28", 167], ["CDISCPILOT01", "QS", "01-701-1047", 4003, "DAITM03", "DECIDE TO CARE FOR HIS/HER HAIR", "DAD", "HYGIENE", "Y", "", "1", 1, "", "", "", "Y", "", 3.0, "BASELINE", 1, "TREATMENT", "2013-02-12", 1], ["CDISCPILOT01", "QS", "01-701-1047", 4043, "DAITM03", "DECIDE TO CARE FOR HIS/HER HAIR", "DAD", "HYGIENE", "Y", "", "1", 1, "", "", "", "", "", 6.0, "AMBUL ECG REMOVAL", 30, "TREATMENT", "2013-03-29", 46], ["CDISCPILOT01", "QS", "01-701-1047", 4083, "DAITM03", "DECIDE TO CARE FOR HIS/HER HAIR", "DAD", "HYGIENE", "Y", "", "1", 1, "", "", "", "", "", 201.0, "RETRIEVAL", 168, "TREATMENT", "2013-07-28", 167], ["CDISCPILOT01", "QS", "01-701-1047", 4004, "DAITM04", "PREPARE FOR WASHING, TAKING A BATH", "DAD", "HYGIENE", "Y", "", "1", 1, "", "", "", "Y", "", 3.0, "BASELINE", 1, "TREATMENT", "2013-02-12", 1], ["CDISCPILOT01", "QS", "01-701-1047", 4044, "DAITM04", "PREPARE FOR WASHING, TAKING A BATH", "DAD", "HYGIENE", "Y", "", "1", 1, "", "", "", "", "", 6.0, "AMBUL ECG REMOVAL", 30, "TREATMENT", "2013-03-29", 46], ["CDISCPILOT01", "QS", "01-701-1047", 4084, "DAITM04", "PREPARE FOR WASHING, TAKING A BATH", "DAD", "HYGIENE", "Y", "", "1", 1, "", "", "", "", "", 201.0, "RETRIEVAL", 168, "TREATMENT", "2013-07-28", 167], ["CDISCPILOT01", "QS", "01-701-1047", 4005, "DAITM05", "WASH AND DRY COMPLETELY SAFELY", "DAD", "HYGIENE", "Y", "", "1", 1, "", "", "", "Y", "", 3.0, "BASELINE", 1, "TREATMENT", "2013-02-12", 1], ["CDISCPILOT01", "QS", "01-701-1047", 4045, "DAITM05", "WASH AND DRY COMPLETELY SAFELY", "DAD", "HYGIENE", "Y", "", "1", 1, "", "", "", "", "", 6.0, "AMBUL ECG REMOVAL", 30, "TREATMENT", "2013-03-29", 46], ["CDISCPILOT01", "QS", "01-701-1047", 4085, "DAITM05", "WASH AND DRY COMPLETELY SAFELY", "DAD", "HYGIENE", "Y", "", "1", 1, "", "", "", "", "", 201.0, "RETRIEVAL", 168, "TREATMENT", "2013-07-28", 167], ["CDISCPILOT01", "QS", "01-701-1047", 4006, "DAITM06", "BRUSH HIS/HER TEETH", "DAD", "HYGIENE", "Y", "", "1", 1, "", "", "", "Y", "", 3.0, "BASELINE", 1, "TREATMENT", "2013-02-12", 1], ["CDISCPILOT01", "QS", "01-701-1047", 4046, "DAITM06", "BRUSH HIS/HER TEETH", "DAD", "HYGIENE", "Y", "", "1", 1, "", "", "", "", "", 6.0, "AMBUL ECG REMOVAL", 30, "TREATMENT", "2013-03-29", 46], ["CDISCPILOT01", "QS", "01-701-1047", 4086, "DAITM06", "BRUSH HIS/HER TEETH", "DAD", "HYGIENE", "Y", "", "1", 1, "", "", "", "", "", 201.0, "RETRIEVAL", 168, "TREATMENT", "2013-07-28", 167], ["CDISCPILOT01", "QS", "01-701-1047", 4007, "DAITM07", "CARE FOR HIS/HER HAIR", "DAD", "HYGIENE", "Y", "", "1", 1, "", "", "", "Y", "", 3.0, "BASELINE", 1, "TREATMENT", "2013-02-12", 1], ["CDISCPILOT01", "QS", "01-701-1047", 4047, "DAITM07", "CARE FOR HIS/HER HAIR", "DAD", "HYGIENE", "Y", "", "1", 1, "", "", "", "", "", 6.0, "AMBUL ECG REMOVAL", 30, "TREATMENT", "2013-03-29", 46], ["CDISCPILOT01", "QS", "01-701-1047", 4087, "DAITM07", "CARE FOR HIS/HER HAIR", "DAD", "HYGIENE", "Y", "", "1", 1, "", "", "", "", "", 201.0, "RETRIEVAL", 168, "TREATMENT", "2013-07-28", 167], ["CDISCPILOT01", "QS", "01-701-1047", 4008, "DAITM08", "UNDERTAKE TO DRESS HIMSELF/HERSELF", "DAD", "DRESSING", "Y", "", "1", 1, "", "", "", "Y", "", 3.0, "BASELINE", 1, "TREATMENT", "2013-02-12", 1], ["CDISCPILOT01", "QS", "01-701-1047", 4048, "DAITM08", "UNDERTAKE TO DRESS HIMSELF/HERSELF", "DAD", "DRESSING", "Y", "", "1", 1, "", "", "", "", "", 6.0, "AMBUL ECG REMOVAL", 30, "TREATMENT", "2013-03-29", 46], ["CDISCPILOT01", "QS", "01-701-1047", 4088, "DAITM08", "UNDERTAKE TO DRESS HIMSELF/HERSELF", "DAD", "DRESSING", "Y", "", "1", 1, "", "", "", "", "", 201.0, "RETRIEVAL", 168, "TREATMENT", "2013-07-28", 167], ["CDISCPILOT01", "QS", "01-701-1047", 4009, "DAITM09", "CHOOSE APPROPRIATE CLOTHING", "DAD", "DRESSING", "Y", "", "1", 1, "", "", "", "Y", "", 3.0, "BASELINE", 1, "TREATMENT", "2013-02-12", 1], ["CDISCPILOT01", "QS", "01-701-1047", 4049, "DAITM09", "CHOOSE APPROPRIATE CLOTHING", "DAD", "DRESSING", "Y", "", "1", 1, "", "", "", "", "", 6.0, "AMBUL ECG REMOVAL", 30, "TREATMENT", "2013-03-29", 46], ["CDISCPILOT01", "QS", "01-701-1047", 4089, "DAITM09", "CHOOSE APPROPRIATE CLOTHING", "DAD", "DRESSING", "Y", "", "1", 1, "", "", "", "", "", 201.0, "RETRIEVAL", 168, "TREATMENT", "2013-07-28", 167], ["CDISCPILOT01", "QS", "01-701-1047", 4010, "DAITM10", "DRESS HIMSELF/HERSELF", "DAD", "DRESSING", "Y", "", "1", 1, "", "", "", "Y", "", 3.0, "BASELINE", 1, "TREATMENT", "2013-02-12", 1], ["CDISCPILOT01", "QS", "01-701-1047", 4050, "DAITM10", "DRESS HIMSELF/HERSELF", "DAD", "DRESSING", "Y", "", "1", 1, "", "", "", "", "", 6.0, "AMBUL ECG REMOVAL", 30, "TREATMENT", "2013-03-29", 46], ["CDISCPILOT01", "QS", "01-701-1047", 4090, "DAITM10", "DRESS HIMSELF/HERSELF", "DAD", "DRESSING", "Y", "", "1", 1, "", "", "", "", "", 201.0, "RETRIEVAL", 168, "TREATMENT", "2013-07-28", 167], ["CDISCPILOT01", "QS", "01-701-1047", 4011, "DAITM11", "DRESS HIMSELF/HERSELF COMPLETELY", "DAD", "DRESSING", "Y", "", "1", 1, "", "", "", "Y", "", 3.0, "BASELINE", 1, "TREATMENT", "2013-02-12", 1], ["CDISCPILOT01", "QS", "01-701-1047", 4051, "DAITM11", "DRESS HIMSELF/HERSELF COMPLETELY", "DAD", "DRESSING", "Y", "", "1", 1, "", "", "", "", "", 6.0, "AMBUL ECG REMOVAL", 30, "TREATMENT", "2013-03-29", 46], ["CDISCPILOT01", "QS", "01-701-1047", 4091, "DAITM11", "DRESS HIMSELF/HERSELF COMPLETELY", "DAD", "DRESSING", "Y", "", "1", 1, "", "", "", "", "", 201.0, "RETRIEVAL", 168, "TREATMENT", "2013-07-28", 167], ["CDISCPILOT01", "QS", "01-701-1047", 4012, "DAITM12", "UNDRESS HIMSELF/HERSELF COMPLETELY", "DAD", "DRESSING", "Y", "", "1", 1, "", "", "", "Y", "", 3.0, "BASELINE", 1, "TREATMENT", "2013-02-12", 1], ["CDISCPILOT01", "QS", "01-701-1047", 4052, "DAITM12", "UNDRESS HIMSELF/HERSELF COMPLETELY", "DAD", "DRESSING", "Y", "", "1", 1, "", "", "", "", "", 6.0, "AMBUL ECG REMOVAL", 30, "TREATMENT", "2013-03-29", 46], ["CDISCPILOT01", "QS", "01-701-1047", 4092, "DAITM12", "UNDRESS HIMSELF/HERSELF COMPLETELY", "DAD", "DRESSING", "Y", "", "1", 1, "", "", "", "", "", 201.0, "RETRIEVAL", 168, "TREATMENT", "2013-07-28", 167], ["CDISCPILOT01", "QS", "01-701-1047", 4013, "DAITM13", "DECIDE TO USE THE TOILET AT APPROPRIATE", "DAD", "CONTINENCE", "Y", "", "1", 1, "", "", "", "Y", "", 3.0, "BASELINE", 1, "TREATMENT", "2013-02-12", 1], ["CDISCPILOT01", "QS", "01-701-1047", 4053, "DAITM13", "DECIDE TO USE THE TOILET AT APPROPRIATE", "DAD", "CONTINENCE", "Y", "", "1", 1, "", "", "", "", "", 6.0, "AMBUL ECG REMOVAL", 30, "TREATMENT", "2013-03-29", 46], ["CDISCPILOT01", "QS", "01-701-1047", 4093, "DAITM13", "DECIDE TO USE THE TOILET AT APPROPRIATE", "DAD", "CONTINENCE", "Y", "", "1", 1, "", "", "", "", "", 201.0, "RETRIEVAL", 168, "TREATMENT", "2013-07-28", 167], ["CDISCPILOT01", "QS", "01-701-1047", 4014, "DAITM14", "USE THE TOILET WITHOUT \"ACCIDENTS\"", "DAD", "CONTINENCE", "Y", "", "1", 1, "", "", "", "Y", "", 3.0, "BASELINE", 1, "TREATMENT", "2013-02-12", 1], ["CDISCPILOT01", "QS", "01-701-1047", 4054, "DAITM14", "USE THE TOILET WITHOUT \"ACCIDENTS\"", "DAD", "CONTINENCE", "Y", "", "1", 1, "", "", "", "", "", 6.0, "AMBUL ECG REMOVAL", 30, "TREATMENT", "2013-03-29", 46], ["CDISCPILOT01", "QS", "01-701-1047", 4094, "DAITM14", "USE THE TOILET WITHOUT \"ACCIDENTS\"", "DAD", "CONTINENCE", "Y", "", "1", 1, "", "", "", "", "", 201.0, "RETRIEVAL", 168, "TREATMENT", "2013-07-28", 167], ["CDISCPILOT01", "QS", "01-701-1047", 4015, "DAITM15", "DECIDE THAT HE/SHE NEEDS TO EAT", "DAD", "EATING", "Y", "", "1", 1, "", "", "", "Y", "", 3.0, "BASELINE", 1, "TREATMENT", "2013-02-12", 1], ["CDISCPILOT01", "QS", "01-701-1047", 4055, "DAITM15", "DECIDE THAT HE/SHE NEEDS TO EAT", "DAD", "EATING", "Y", "", "1", 1, "", "", "", "", "", 6.0, "AMBUL ECG REMOVAL", 30, "TREATMENT", "2013-03-29", 46], ["CDISCPILOT01", "QS", "01-701-1047", 4095, "DAITM15", "DECIDE THAT HE/SHE NEEDS TO EAT", "DAD", "EATING", "Y", "", "1", 1, "", "", "", "", "", 201.0, "RETRIEVAL", 168, "TREATMENT", "2013-07-28", 167], ["CDISCPILOT01", "QS", "01-701-1047", 4016, "DAITM16", "CHOOSE APPROPRIATE UTENSILS", "DAD", "EATING", "Y", "", "1", 1, "", "", "", "Y", "", 3.0, "BASELINE", 1, "TREATMENT", "2013-02-12", 1], ["CDISCPILOT01", "QS", "01-701-1047", 4056, "DAITM16", "CHOOSE APPROPRIATE UTENSILS", "DAD", "EATING", "Y", "", "1", 1, "", "", "", "", "", 6.0, "AMBUL ECG REMOVAL", 30, "TREATMENT", "2013-03-29", 46], ["CDISCPILOT01", "QS", "01-701-1047", 4096, "DAITM16", "CHOOSE APPROPRIATE UTENSILS", "DAD", "EATING", "Y", "", "1", 1, "", "", "", "", "", 201.0, "RETRIEVAL", 168, "TREATMENT", "2013-07-28", 167], ["CDISCPILOT01", "QS", "01-701-1047", 4017, "DAITM17", "EAT HIS/HER MEALS AT A NORMAL PACE", "DAD", "EATING", "Y", "", "1", 1, "", "", "", "Y", "", 3.0, "BASELINE", 1, "TREATMENT", "2013-02-12", 1], ["CDISCPILOT01", "QS", "01-701-1047", 4057, "DAITM17", "EAT HIS/HER MEALS AT A NORMAL PACE", "DAD", "EATING", "Y", "", "1", 1, "", "", "", "", "", 6.0, "AMBUL ECG REMOVAL", 30, "TREATMENT", "2013-03-29", 46], ["CDISCPILOT01", "QS", "01-701-1047", 4097, "DAITM17", "EAT HIS/HER MEALS AT A NORMAL PACE", "DAD", "EATING", "Y", "", "1", 1, "", "", "", "", "", 201.0, "RETRIEVAL", 168, "TREATMENT", "2013-07-28", 167], ["CDISCPILOT01", "QS", "01-701-1047", 4018, "DAITM18", "UNDERTAKE TO PREPARE A LIGHT MEAL", "DAD", "MEAL PREPARATION", "Y", "", "1", 1, "", "", "", "Y", "", 3.0, "BASELINE", 1, "TREATMENT", "2013-02-12", 1], ["CDISCPILOT01", "QS", "01-701-1047", 4058, "DAITM18", "UNDERTAKE TO PREPARE A LIGHT MEAL", "DAD", "MEAL PREPARATION", "Y", "", "1", 1, "", "", "", "", "", 6.0, "AMBUL ECG REMOVAL", 30, "TREATMENT", "2013-03-29", 46], ["CDISCPILOT01", "QS", "01-701-1047", 4098, "DAITM18", "UNDERTAKE TO PREPARE A LIGHT MEAL", "DAD", "MEAL PREPARATION", "Y", "", "1", 1, "", "", "", "", "", 201.0, "RETRIEVAL", 168, "TREATMENT", "2013-07-28", 167], ["CDISCPILOT01", "QS", "01-701-1047", 4019, "DAITM19", "ADEQUATELY PLAN A LIGHT MEAL OR SNACK", "DAD", "MEAL PREPARATION", "Y", "", "1", 1, "", "", "", "Y", "", 3.0, "BASELINE", 1, "TREATMENT", "2013-02-12", 1], ["CDISCPILOT01", "QS", "01-701-1047", 4059, "DAITM19", "ADEQUATELY PLAN A LIGHT MEAL OR SNACK", "DAD", "MEAL PREPARATION", "Y", "", "1", 1, "", "", "", "", "", 6.0, "AMBUL ECG REMOVAL", 30, "TREATMENT", "2013-03-29", 46], ["CDISCPILOT01", "QS", "01-701-1047", 4099, "DAITM19", "ADEQUATELY PLAN A LIGHT MEAL OR SNACK", "DAD", "MEAL PREPARATION", "Y", "", "1", 1, "", "", "", "", "", 201.0, "RETRIEVAL", 168, "TREATMENT", "2013-07-28", 167], ["CDISCPILOT01", "QS", "01-701-1047", 4020, "DAITM20", "PREPARE OR COOK A LIGHT MEAL OR A SNACK", "DAD", "MEAL PREPARATION", "Y", "", "1", 1, "", "", "", "Y", "", 3.0, "BASELINE", 1, "TREATMENT", "2013-02-12", 1], ["CDISCPILOT01", "QS", "01-701-1047", 4060, "DAITM20", "PREPARE OR COOK A LIGHT MEAL OR A SNACK", "DAD", "MEAL PREPARATION", "Y", "", "1", 1, "", "", "", "", "", 6.0, "AMBUL ECG REMOVAL", 30, "TREATMENT", "2013-03-29", 46], ["CDISCPILOT01", "QS", "01-701-1047", 4100, "DAITM20", "PREPARE OR COOK A LIGHT MEAL OR A SNACK", "DAD", "MEAL PREPARATION", "Y", "", "1", 1, "", "", "", "", "", 201.0, "RETRIEVAL", 168, "TREATMENT", "2013-07-28", 167], ["CDISCPILOT01", "QS", "01-701-1047", 4021, "DAITM21", "ATTEMPT TO TELEPHONE SOMEONE", "DAD", "TELEPHONING", "Y", "", "1", 1, "", "", "", "Y", "", 3.0, "BASELINE", 1, "TREATMENT", "2013-02-12", 1], ["CDISCPILOT01", "QS", "01-701-1047", 4061, "DAITM21", "ATTEMPT TO TELEPHONE SOMEONE", "DAD", "TELEPHONING", "Y", "", "1", 1, "", "", "", "", "", 6.0, "AMBUL ECG REMOVAL", 30, "TREATMENT", "2013-03-29", 46], ["CDISCPILOT01", "QS", "01-701-1047", 4101, "DAITM21", "ATTEMPT TO TELEPHONE SOMEONE", "DAD", "TELEPHONING", "Y", "", "1", 1, "", "", "", "", "", 201.0, "RETRIEVAL", 168, "TREATMENT", "2013-07-28", 167], ["CDISCPILOT01", "QS", "01-701-1047", 4022, "DAITM22", "FIND AND DIAL A TELEPHONE NUMBER CORRECT", "DAD", "TELEPHONING", "Y", "", "1", 1, "", "", "", "Y", "", 3.0, "BASELINE", 1, "TREATMENT", "2013-02-12", 1], ["CDISCPILOT01", "QS", "01-701-1047", 4062, "DAITM22", "FIND AND DIAL A TELEPHONE NUMBER CORRECT", "DAD", "TELEPHONING", "Y", "", "1", 1, "", "", "", "", "", 6.0, "AMBUL ECG REMOVAL", 30, "TREATMENT", "2013-03-29", 46], ["CDISCPILOT01", "QS", "01-701-1047", 4102, "DAITM22", "FIND AND DIAL A TELEPHONE NUMBER CORRECT", "DAD", "TELEPHONING", "Y", "", "1", 1, "", "", "", "", "", 201.0, "RETRIEVAL", 168, "TREATMENT", "2013-07-28", 167], ["CDISCPILOT01", "QS", "01-701-1047", 4023, "DAITM23", "CARRY OUT A TELEPHONE CONVERSATION", "DAD", "TELEPHONING", "Y", "", "1", 1, "", "", "", "Y", "", 3.0, "BASELINE", 1, "TREATMENT", "2013-02-12", 1], ["CDISCPILOT01", "QS", "01-701-1047", 4063, "DAITM23", "CARRY OUT A TELEPHONE CONVERSATION", "DAD", "TELEPHONING", "Y", "", "1", 1, "", "", "", "", "", 6.0, "AMBUL ECG REMOVAL", 30, "TREATMENT", "2013-03-29", 46], ["CDISCPILOT01", "QS", "01-701-1047", 4103, "DAITM23", "CARRY OUT A TELEPHONE CONVERSATION", "DAD", "TELEPHONING", "Y", "", "1", 1, "", "", "", "", "", 201.0, "RETRIEVAL", 168, "TREATMENT", "2013-07-28", 167], ["CDISCPILOT01", "QS", "01-701-1047", 4024, "DAITM24", "WRITE AND CONVEY A TELEPHONE MESSAGE", "DAD", "TELEPHONING", "Y", "", "1", 1, "", "", "", "Y", "", 3.0, "BASELINE", 1, "TREATMENT", "2013-02-12", 1], ["CDISCPILOT01", "QS", "01-701-1047", 4064, "DAITM24", "WRITE AND CONVEY A TELEPHONE MESSAGE", "DAD", "TELEPHONING", "Y", "", "1", 1, "", "", "", "", "", 6.0, "AMBUL ECG REMOVAL", 30, "TREATMENT", "2013-03-29", 46], ["CDISCPILOT01", "QS", "01-701-1047", 4104, "DAITM24", "WRITE AND CONVEY A TELEPHONE MESSAGE", "DAD", "TELEPHONING", "Y", "", "1", 1, "", "", "", "", "", 201.0, "RETRIEVAL", 168, "TREATMENT", "2013-07-28", 167], ["CDISCPILOT01", "QS", "01-701-1047", 4025, "DAITM25", "UNDERTAKE TO GO OUT", "DAD", "GOING ON AN OUTING", "Y", "", "1", 1, "", "", "", "Y", "", 3.0, "BASELINE", 1, "TREATMENT", "2013-02-12", 1], ["CDISCPILOT01", "QS", "01-701-1047", 4065, "DAITM25", "UNDERTAKE TO GO OUT", "DAD", "GOING ON AN OUTING", "Y", "", "1", 1, "", "", "", "", "", 6.0, "AMBUL ECG REMOVAL", 30, "TREATMENT", "2013-03-29", 46], ["CDISCPILOT01", "QS", "01-701-1047", 4105, "DAITM25", "UNDERTAKE TO GO OUT", "DAD", "GOING ON AN OUTING", "Y", "", "1", 1, "", "", "", "", "", 201.0, "RETRIEVAL", 168, "TREATMENT", "2013-07-28", 167], ["CDISCPILOT01", "QS", "01-701-1047", 4026, "DAITM26", "ADEQUATELY ORGANIZE AN OUTING", "DAD", "GOING ON AN OUTING", "Y", "", "1", 1, "", "", "", "Y", "", 3.0, "BASELINE", 1, "TREATMENT", "2013-02-12", 1], ["CDISCPILOT01", "QS", "01-701-1047", 4066, "DAITM26", "ADEQUATELY ORGANIZE AN OUTING", "DAD", "GOING ON AN OUTING", "Y", "", "1", 1, "", "", "", "", "", 6.0, "AMBUL ECG REMOVAL", 30, "TREATMENT", "2013-03-29", 46], ["CDISCPILOT01", "QS", "01-701-1047", 4106, "DAITM26", "ADEQUATELY ORGANIZE AN OUTING", "DAD", "GOING ON AN OUTING", "Y", "", "1", 1, "", "", "", "", "", 201.0, "RETRIEVAL", 168, "TREATMENT", "2013-07-28", 167], ["CDISCPILOT01", "QS", "01-701-1047", 4027, "DAITM27", "GO OUT AND REACH A FAMILIAR DESTINATION", "DAD", "GOING ON AN OUTING", "Y", "", "1", 1, "", "", "", "Y", "", 3.0, "BASELINE", 1, "TREATMENT", "2013-02-12", 1], ["CDISCPILOT01", "QS", "01-701-1047", 4067, "DAITM27", "GO OUT AND REACH A FAMILIAR DESTINATION", "DAD", "GOING ON AN OUTING", "Y", "", "1", 1, "", "", "", "", "", 6.0, "AMBUL ECG REMOVAL", 30, "TREATMENT", "2013-03-29", 46], ["CDISCPILOT01", "QS", "01-701-1047", 4107, "DAITM27", "GO OUT AND REACH A FAMILIAR DESTINATION", "DAD", "GOING ON AN OUTING", "Y", "", "1", 1, "", "", "", "", "", 201.0, "RETRIEVAL", 168, "TREATMENT", "2013-07-28", 167], ["CDISCPILOT01", "QS", "01-701-1047", 4028, "DAITM28", "SAFELY TAKE CAR, BUS, TAXI", "DAD", "GOING ON AN OUTING", "Y", "", "1", 1, "", "", "", "Y", "", 3.0, "BASELINE", 1, "TREATMENT", "2013-02-12", 1], ["CDISCPILOT01", "QS", "01-701-1047", 4068, "DAITM28", "SAFELY TAKE CAR, BUS, TAXI", "DAD", "GOING ON AN OUTING", "Y", "", "1", 1, "", "", "", "", "", 6.0, "AMBUL ECG REMOVAL", 30, "TREATMENT", "2013-03-29", 46], ["CDISCPILOT01", "QS", "01-701-1047", 4108, "DAITM28", "SAFELY TAKE CAR, BUS, TAXI", "DAD", "GOING ON AN OUTING", "Y", "", "1", 1, "", "", "", "", "", 201.0, "RETRIEVAL", 168, "TREATMENT", "2013-07-28", 167], ["CDISCPILOT01", "QS", "01-701-1047", 4029, "DAITM29", "RETURN FROM THE STORE", "DAD", "GOING ON AN OUTING", "Y", "", "1", 1, "", "", "", "Y", "", 3.0, "BASELINE", 1, "TREATMENT", "2013-02-12", 1], ["CDISCPILOT01", "QS", "01-701-1047", 4069, "DAITM29", "RETURN FROM THE STORE", "DAD", "GOING ON AN OUTING", "Y", "", "1", 1, "", "", "", "", "", 6.0, "AMBUL ECG REMOVAL", 30, "TREATMENT", "2013-03-29", 46], ["CDISCPILOT01", "QS", "01-701-1047", 4109, "DAITM29", "RETURN FROM THE STORE", "DAD", "GOING ON AN OUTING", "Y", "", "1", 1, "", "", "", "", "", 201.0, "RETRIEVAL", 168, "TREATMENT", "2013-07-28", 167], ["CDISCPILOT01", "QS", "01-701-1047", 4030, "DAITM30", "INTEREST IN HIS/HER PERSONAL AFFAIRS", "DAD", "FINANCE AND CORRESPONDE", "Y", "", "1", 1, "", "", "", "Y", "", 3.0, "BASELINE", 1, "TREATMENT", "2013-02-12", 1], ["CDISCPILOT01", "QS", "01-701-1047", 4070, "DAITM30", "INTEREST IN HIS/HER PERSONAL AFFAIRS", "DAD", "FINANCE AND CORRESPONDE", "Y", "", "1", 1, "", "", "", "", "", 6.0, "AMBUL ECG REMOVAL", 30, "TREATMENT", "2013-03-29", 46], ["CDISCPILOT01", "QS", "01-701-1047", 4110, "DAITM30", "INTEREST IN HIS/HER PERSONAL AFFAIRS", "DAD", "FINANCE AND CORRESPONDE", "Y", "", "1", 1, "", "", "", "", "", 201.0, "RETRIEVAL", 168, "TREATMENT", "2013-07-28", 167], ["CDISCPILOT01", "QS", "01-701-1047", 4031, "DAITM31", "PAY HIS/HER BILLS", "DAD", "FINANCE AND CORRESPONDE", "NA", "", "96", 96, "", "", "", "Y", "", 3.0, "BASELINE", 1, "TREATMENT", "2013-02-12", 1], ["CDISCPILOT01", "QS", "01-701-1047", 4071, "DAITM31", "PAY HIS/HER BILLS", "DAD", "FINANCE AND CORRESPONDE", "NA", "", "96", 96, "", "", "", "", "", 6.0, "AMBUL ECG REMOVAL", 30, "TREATMENT", "2013-03-29", 46], ["CDISCPILOT01", "QS", "01-701-1047", 4111, "DAITM31", "PAY HIS/HER BILLS", "DAD", "FINANCE AND CORRESPONDE", "NA", "", "96", 96, "", "", "", "", "", 201.0, "RETRIEVAL", 168, "TREATMENT", "2013-07-28", 167], ["CDISCPILOT01", "QS", "01-701-1047", 4032, "DAITM32", "ORGANIZE HIS/HER CORRESPONDENCE", "DAD", "FINANCE AND CORRESPONDE", "Y", "", "1", 1, "", "", "", "Y", "", 3.0, "BASELINE", 1, "TREATMENT", "2013-02-12", 1], ["CDISCPILOT01", "QS", "01-701-1047", 4072, "DAITM32", "ORGANIZE HIS/HER CORRESPONDENCE", "DAD", "FINANCE AND CORRESPONDE", "Y", "", "1", 1, "", "", "", "", "", 6.0, "AMBUL ECG REMOVAL", 30, "TREATMENT", "2013-03-29", 46], ["CDISCPILOT01", "QS", "01-701-1047", 4112, "DAITM32", "ORGANIZE HIS/HER CORRESPONDENCE", "DAD", "FINANCE AND CORRESPONDE", "Y", "", "1", 1, "", "", "", "", "", 201.0, "RETRIEVAL", 168, "TREATMENT", "2013-07-28", 167], ["CDISCPILOT01", "QS", "01-701-1047", 4033, "DAITM33", "HANDLE ADEQUATELY HIS/HER MONEY", "DAD", "FINANCE AND CORRESPONDE", "Y", "", "1", 1, "", "", "", "Y", "", 3.0, "BASELINE", 1, "TREATMENT", "2013-02-12", 1], ["CDISCPILOT01", "QS", "01-701-1047", 4073, "DAITM33", "HANDLE ADEQUATELY HIS/HER MONEY", "DAD", "FINANCE AND CORRESPONDE", "Y", "", "1", 1, "", "", "", "", "", 6.0, "AMBUL ECG REMOVAL", 30, "TREATMENT", "2013-03-29", 46], ["CDISCPILOT01", "QS", "01-701-1047", 4113, "DAITM33", "HANDLE ADEQUATELY HIS/HER MONEY", "DAD", "FINANCE AND CORRESPONDE", "Y", "", "1", 1, "", "", "", "", "", 201.0, "RETRIEVAL", 168, "TREATMENT", "2013-07-28", 167], ["CDISCPILOT01", "QS", "01-701-1047", 4034, "DAITM34", "DECIDE TO TAKE HIS/HER MEDICATIONS", "DAD", "MEDICATIONS", "Y", "", "1", 1, "", "", "", "Y", "", 3.0, "BASELINE", 1, "TREATMENT", "2013-02-12", 1], ["CDISCPILOT01", "QS", "01-701-1047", 4074, "DAITM34", "DECIDE TO TAKE HIS/HER MEDICATIONS", "DAD", "MEDICATIONS", "Y", "", "1", 1, "", "", "", "", "", 6.0, "AMBUL ECG REMOVAL", 30, "TREATMENT", "2013-03-29", 46], ["CDISCPILOT01", "QS", "01-701-1047", 4114, "DAITM34", "DECIDE TO TAKE HIS/HER MEDICATIONS", "DAD", "MEDICATIONS", "Y", "", "1", 1, "", "", "", "", "", 201.0, "RETRIEVAL", 168, "TREATMENT", "2013-07-28", 167], ["CDISCPILOT01", "QS", "01-701-1047", 4035, "DAITM35", "TAKE HIS/HER MEDICATIONS AS PRESCRIBED", "DAD", "MEDICATIONS", "Y", "", "1", 1, "", "", "", "Y", "", 3.0, "BASELINE", 1, "TREATMENT", "2013-02-12", 1], ["CDISCPILOT01", "QS", "01-701-1047", 4075, "DAITM35", "TAKE HIS/HER MEDICATIONS AS PRESCRIBED", "DAD", "MEDICATIONS", "Y", "", "1", 1, "", "", "", "", "", 6.0, "AMBUL ECG REMOVAL", 30, "TREATMENT", "2013-03-29", 46], ["CDISCPILOT01", "QS", "01-701-1047", 4115, "DAITM35", "TAKE HIS/HER MEDICATIONS AS PRESCRIBED", "DAD", "MEDICATIONS", "Y", "", "1", 1, "", "", "", "", "", 201.0, "RETRIEVAL", 168, "TREATMENT", "2013-07-28", 167], ["CDISCPILOT01", "QS", "01-701-1047", 4036, "DAITM36", "SHOW AN INTEREST IN LEISURE ACTIVITY", "DAD", "LEISURE AND HOUSEWORK", "Y", "", "1", 1, "", "", "", "Y", "", 3.0, "BASELINE", 1, "TREATMENT", "2013-02-12", 1], ["CDISCPILOT01", "QS", "01-701-1047", 4076, "DAITM36", "SHOW AN INTEREST IN LEISURE ACTIVITY", "DAD", "LEISURE AND HOUSEWORK", "Y", "", "1", 1, "", "", "", "", "", 6.0, "AMBUL ECG REMOVAL", 30, "TREATMENT", "2013-03-29", 46], ["CDISCPILOT01", "QS", "01-701-1047", 4116, "DAITM36", "SHOW AN INTEREST IN LEISURE ACTIVITY", "DAD", "LEISURE AND HOUSEWORK", "Y", "", "1", 1, "", "", "", "", "", 201.0, "RETRIEVAL", 168, "TREATMENT", "2013-07-28", 167], ["CDISCPILOT01", "QS", "01-701-1047", 4037, "DAITM37", "TAKE AN INTEREST IN HOUSEHOLD CHORES", "DAD", "LEISURE AND HOUSEWORK", "Y", "", "1", 1, "", "", "", "Y", "", 3.0, "BASELINE", 1, "TREATMENT", "2013-02-12", 1], ["CDISCPILOT01", "QS", "01-701-1047", 4077, "DAITM37", "TAKE AN INTEREST IN HOUSEHOLD CHORES", "DAD", "LEISURE AND HOUSEWORK", "Y", "", "1", 1, "", "", "", "", "", 6.0, "AMBUL ECG REMOVAL", 30, "TREATMENT", "2013-03-29", 46], ["CDISCPILOT01", "QS", "01-701-1047", 4117, "DAITM37", "TAKE AN INTEREST IN HOUSEHOLD CHORES", "DAD", "LEISURE AND HOUSEWORK", "Y", "", "1", 1, "", "", "", "", "", 201.0, "RETRIEVAL", 168, "TREATMENT", "2013-07-28", 167], ["CDISCPILOT01", "QS", "01-701-1047", 4038, "DAITM38", "PLAN AND ORGANIZE HOUSEHOLD CHORES", "DAD", "LEISURE AND HOUSEWORK", "Y", "", "1", 1, "", "", "", "Y", "", 3.0, "BASELINE", 1, "TREATMENT", "2013-02-12", 1], ["CDISCPILOT01", "QS", "01-701-1047", 4078, "DAITM38", "PLAN AND ORGANIZE HOUSEHOLD CHORES", "DAD", "LEISURE AND HOUSEWORK", "Y", "", "1", 1, "", "", "", "", "", 6.0, "AMBUL ECG REMOVAL", 30, "TREATMENT", "2013-03-29", 46], ["CDISCPILOT01", "QS", "01-701-1047", 4118, "DAITM38", "PLAN AND ORGANIZE HOUSEHOLD CHORES", "DAD", "LEISURE AND HOUSEWORK", "Y", "", "1", 1, "", "", "", "", "", 201.0, "RETRIEVAL", 168, "TREATMENT", "2013-07-28", 167], ["CDISCPILOT01", "QS", "01-701-1047", 4039, "DAITM39", "COMPLETE HOUSEHOLD CHORES", "DAD", "LEISURE AND HOUSEWORK", "Y", "", "1", 1, "", "", "", "Y", "", 3.0, "BASELINE", 1, "TREATMENT", "2013-02-12", 1], ["CDISCPILOT01", "QS", "01-701-1047", 4079, "DAITM39", "COMPLETE HOUSEHOLD CHORES", "DAD", "LEISURE AND HOUSEWORK", "Y", "", "1", 1, "", "", "", "", "", 6.0, "AMBUL ECG REMOVAL", 30, "TREATMENT", "2013-03-29", 46], ["CDISCPILOT01", "QS", "01-701-1047", 4119, "DAITM39", "COMPLETE HOUSEHOLD CHORES", "DAD", "LEISURE AND HOUSEWORK", "Y", "", "1", 1, "", "", "", "", "", 201.0, "RETRIEVAL", 168, "TREATMENT", "2013-07-28", 167], ["CDISCPILOT01", "QS", "01-701-1047", 4040, "DAITM40", "STAY SAFELY AT HOME BY HIMSELF/HERSELF", "DAD", "LEISURE AND HOUSEWORK", "Y", "", "1", 1, "", "", "", "Y", "", 3.0, "BASELINE", 1, "TREATMENT", "2013-02-12", 1], ["CDISCPILOT01", "QS", "01-701-1047", 4080, "DAITM40", "STAY SAFELY AT HOME BY HIMSELF/HERSELF", "DAD", "LEISURE AND HOUSEWORK", "Y", "", "1", 1, "", "", "", "", "", 6.0, "AMBUL ECG REMOVAL", 30, "TREATMENT", "2013-03-29", 46], ["CDISCPILOT01", "QS", "01-701-1047", 4120, "DAITM40", "STAY SAFELY AT HOME BY HIMSELF/HERSELF", "DAD", "LEISURE AND HOUSEWORK", "Y", "", "1", 1, "", "", "", "", "", 201.0, "RETRIEVAL", 168, "TREATMENT", "2013-07-28", 167], ["CDISCPILOT01", "QS", "01-701-1097", 4001, "DAITM01", "UNDERTAKE TO WASH HIMSELF/HERSELF", "DAD", "HYGIENE", "Y", "", "1", 1, "", "", "", "Y", "", 3.0, "BASELINE", 1, "TREATMENT", "2014-01-01", 1], ["CDISCPILOT01", "QS", "01-701-1097", 4041, "DAITM01", "UNDERTAKE TO WASH HIMSELF/HERSELF", "DAD", "HYGIENE", "Y", "", "1", 1, "", "", "", "", "", 8.0, "WEEK 8", 56, "TREATMENT", "2014-02-26", 57], ["CDISCPILOT01", "QS", "01-701-1097", 4081, "DAITM01", "UNDERTAKE TO WASH HIMSELF/HERSELF", "DAD", "HYGIENE", "N", "", "0", 0, "", "", "", "", "", 10.0, "WEEK 16", 112, "TREATMENT", "2014-04-23", 113], ["CDISCPILOT01", "QS", "01-701-1097", 4121, "DAITM01", "UNDERTAKE TO WASH HIMSELF/HERSELF", "DAD", "HYGIENE", "N", "", "0", 0, "", "", "", "", "", 12.0, "WEEK 24", 168, "TREATMENT", "2014-06-18", 169], ["CDISCPILOT01", "QS", "01-701-1097", 4002, "DAITM02", "UNDERTAKE TO BRUSH HIS/HER TEETH", "DAD", "HYGIENE", "N", "", "0", 0, "", "", "", "Y", "", 3.0, "BASELINE", 1, "TREATMENT", "2014-01-01", 1], ["CDISCPILOT01", "QS", "01-701-1097", 4042, "DAITM02", "UNDERTAKE TO BRUSH HIS/HER TEETH", "DAD", "HYGIENE", "Y", "", "1", 1, "", "", "", "", "", 8.0, "WEEK 8", 56, "TREATMENT", "2014-02-26", 57], ["CDISCPILOT01", "QS", "01-701-1097", 4082, "DAITM02", "UNDERTAKE TO BRUSH HIS/HER TEETH", "DAD", "HYGIENE", "N", "", "0", 0, "", "", "", "", "", 10.0, "WEEK 16", 112, "TREATMENT", "2014-04-23", 113], ["CDISCPILOT01", "QS", "01-701-1097", 4122, "DAITM02", "UNDERTAKE TO BRUSH HIS/HER TEETH", "DAD", "HYGIENE", "N", "", "0", 0, "", "", "", "", "", 12.0, "WEEK 24", 168, "TREATMENT", "2014-06-18", 169], ["CDISCPILOT01", "QS", "01-701-1097", 4003, "DAITM03", "DECIDE TO CARE FOR HIS/HER HAIR", "DAD", "HYGIENE", "N", "", "0", 0, "", "", "", "Y", "", 3.0, "BASELINE", 1, "TREATMENT", "2014-01-01", 1], ["CDISCPILOT01", "QS", "01-701-1097", 4043, "DAITM03", "DECIDE TO CARE FOR HIS/HER HAIR", "DAD", "HYGIENE", "Y", "", "1", 1, "", "", "", "", "", 8.0, "WEEK 8", 56, "TREATMENT", "2014-02-26", 57], ["CDISCPILOT01", "QS", "01-701-1097", 4083, "DAITM03", "DECIDE TO CARE FOR HIS/HER HAIR", "DAD", "HYGIENE", "N", "", "0", 0, "", "", "", "", "", 10.0, "WEEK 16", 112, "TREATMENT", "2014-04-23", 113], ["CDISCPILOT01", "QS", "01-701-1097", 4123, "DAITM03", "DECIDE TO CARE FOR HIS/HER HAIR", "DAD", "HYGIENE", "Y", "", "1", 1, "", "", "", "", "", 12.0, "WEEK 24", 168, "TREATMENT", "2014-06-18", 169], ["CDISCPILOT01", "QS", "01-701-1097", 4004, "DAITM04", "PREPARE FOR WASHING, TAKING A BATH", "DAD", "HYGIENE", "Y", "", "1", 1, "", "", "", "Y", "", 3.0, "BASELINE", 1, "TREATMENT", "2014-01-01", 1], ["CDISCPILOT01", "QS", "01-701-1097", 4044, "DAITM04", "PREPARE FOR WASHING, TAKING A BATH", "DAD", "HYGIENE", "Y", "", "1", 1, "", "", "", "", "", 8.0, "WEEK 8", 56, "TREATMENT", "2014-02-26", 57], ["CDISCPILOT01", "QS", "01-701-1097", 4084, "DAITM04", "PREPARE FOR WASHING, TAKING A BATH", "DAD", "HYGIENE", "Y", "", "1", 1, "", "", "", "", "", 10.0, "WEEK 16", 112, "TREATMENT", "2014-04-23", 113], ["CDISCPILOT01", "QS", "01-701-1097", 4124, "DAITM04", "PREPARE FOR WASHING, TAKING A BATH", "DAD", "HYGIENE", "Y", "", "1", 1, "", "", "", "", "", 12.0, "WEEK 24", 168, "TREATMENT", "2014-06-18", 169], ["CDISCPILOT01", "QS", "01-701-1097", 4005, "DAITM05", "WASH AND DRY COMPLETELY SAFELY", "DAD", "HYGIENE", "Y", "", "1", 1, "", "", "", "Y", "", 3.0, "BASELINE", 1, "TREATMENT", "2014-01-01", 1], ["CDISCPILOT01", "QS", "01-701-1097", 4045, "DAITM05", "WASH AND DRY COMPLETELY SAFELY", "DAD", "HYGIENE", "Y", "", "1", 1, "", "", "", "", "", 8.0, "WEEK 8", 56, "TREATMENT", "2014-02-26", 57], ["CDISCPILOT01", "QS", "01-701-1097", 4085, "DAITM05", "WASH AND DRY COMPLETELY SAFELY", "DAD", "HYGIENE", "Y", "", "1", 1, "", "", "", "", "", 10.0, "WEEK 16", 112, "TREATMENT", "2014-04-23", 113], ["CDISCPILOT01", "QS", "01-701-1097", 4125, "DAITM05", "WASH AND DRY COMPLETELY SAFELY", "DAD", "HYGIENE", "Y", "", "1", 1, "", "", "", "", "", 12.0, "WEEK 24", 168, "TREATMENT", "2014-06-18", 169], ["CDISCPILOT01", "QS", "01-701-1097", 4006, "DAITM06", "BRUSH HIS/HER TEETH", "DAD", "HYGIENE", "N", "", "0", 0, "", "", "", "Y", "", 3.0, "BASELINE", 1, "TREATMENT", "2014-01-01", 1], ["CDISCPILOT01", "QS", "01-701-1097", 4046, "DAITM06", "BRUSH HIS/HER TEETH", "DAD", "HYGIENE", "N", "", "0", 0, "", "", "", "", "", 8.0, "WEEK 8", 56, "TREATMENT", "2014-02-26", 57], ["CDISCPILOT01", "QS", "01-701-1097", 4086, "DAITM06", "BRUSH HIS/HER TEETH", "DAD", "HYGIENE", "Y", "", "1", 1, "", "", "", "", "", 10.0, "WEEK 16", 112, "TREATMENT", "2014-04-23", 113], ["CDISCPILOT01", "QS", "01-701-1097", 4126, "DAITM06", "BRUSH HIS/HER TEETH", "DAD", "HYGIENE", "Y", "", "1", 1, "", "", "", "", "", 12.0, "WEEK 24", 168, "TREATMENT", "2014-06-18", 169], ["CDISCPILOT01", "QS", "01-701-1097", 4007, "DAITM07", "CARE FOR HIS/HER HAIR", "DAD", "HYGIENE", "N", "", "0", 0, "", "", "", "Y", "", 3.0, "BASELINE", 1, "TREATMENT", "2014-01-01", 1], ["CDISCPILOT01", "QS", "01-701-1097", 4047, "DAITM07", "CARE FOR HIS/HER HAIR", "DAD", "HYGIENE", "Y", "", "1", 1, "", "", "", "", "", 8.0, "WEEK 8", 56, "TREATMENT", "2014-02-26", 57], ["CDISCPILOT01", "QS", "01-701-1097", 4087, "DAITM07", "CARE FOR HIS/HER HAIR", "DAD", "HYGIENE", "Y", "", "1", 1, "", "", "", "", "", 10.0, "WEEK 16", 112, "TREATMENT", "2014-04-23", 113], ["CDISCPILOT01", "QS", "01-701-1097", 4127, "DAITM07", "CARE FOR HIS/HER HAIR", "DAD", "HYGIENE", "Y", "", "1", 1, "", "", "", "", "", 12.0, "WEEK 24", 168, "TREATMENT", "2014-06-18", 169], ["CDISCPILOT01", "QS", "01-701-1097", 4008, "DAITM08", "UNDERTAKE TO DRESS HIMSELF/HERSELF", "DAD", "DRESSING", "Y", "", "1", 1, "", "", "", "Y", "", 3.0, "BASELINE", 1, "TREATMENT", "2014-01-01", 1], ["CDISCPILOT01", "QS", "01-701-1097", 4048, "DAITM08", "UNDERTAKE TO DRESS HIMSELF/HERSELF", "DAD", "DRESSING", "Y", "", "1", 1, "", "", "", "", "", 8.0, "WEEK 8", 56, "TREATMENT", "2014-02-26", 57], ["CDISCPILOT01", "QS", "01-701-1097", 4088, "DAITM08", "UNDERTAKE TO DRESS HIMSELF/HERSELF", "DAD", "DRESSING", "Y", "", "1", 1, "", "", "", "", "", 10.0, "WEEK 16", 112, "TREATMENT", "2014-04-23", 113], ["CDISCPILOT01", "QS", "01-701-1097", 4128, "DAITM08", "UNDERTAKE TO DRESS HIMSELF/HERSELF", "DAD", "DRESSING", "Y", "", "1", 1, "", "", "", "", "", 12.0, "WEEK 24", 168, "TREATMENT", "2014-06-18", 169], ["CDISCPILOT01", "QS", "01-701-1097", 4009, "DAITM09", "CHOOSE APPROPRIATE CLOTHING", "DAD", "DRESSING", "Y", "", "1", 1, "", "", "", "Y", "", 3.0, "BASELINE", 1, "TREATMENT", "2014-01-01", 1], ["CDISCPILOT01", "QS", "01-701-1097", 4049, "DAITM09", "CHOOSE APPROPRIATE CLOTHING", "DAD", "DRESSING", "Y", "", "1", 1, "", "", "", "", "", 8.0, "WEEK 8", 56, "TREATMENT", "2014-02-26", 57], ["CDISCPILOT01", "QS", "01-701-1097", 4089, "DAITM09", "CHOOSE APPROPRIATE CLOTHING", "DAD", "DRESSING", "N", "", "0", 0, "", "", "", "", "", 10.0, "WEEK 16", 112, "TREATMENT", "2014-04-23", 113], ["CDISCPILOT01", "QS", "01-701-1097", 4129, "DAITM09", "CHOOSE APPROPRIATE CLOTHING", "DAD", "DRESSING", "N", "", "0", 0, "", "", "", "", "", 12.0, "WEEK 24", 168, "TREATMENT", "2014-06-18", 169], ["CDISCPILOT01", "QS", "01-701-1097", 4010, "DAITM10", "DRESS HIMSELF/HERSELF", "DAD", "DRESSING", "Y", "", "1", 1, "", "", "", "Y", "", 3.0, "BASELINE", 1, "TREATMENT", "2014-01-01", 1], ["CDISCPILOT01", "QS", "01-701-1097", 4050, "DAITM10", "DRESS HIMSELF/HERSELF", "DAD", "DRESSING", "Y", "", "1", 1, "", "", "", "", "", 8.0, "WEEK 8", 56, "TREATMENT", "2014-02-26", 57], ["CDISCPILOT01", "QS", "01-701-1097", 4090, "DAITM10", "DRESS HIMSELF/HERSELF", "DAD", "DRESSING", "Y", "", "1", 1, "", "", "", "", "", 10.0, "WEEK 16", 112, "TREATMENT", "2014-04-23", 113], ["CDISCPILOT01", "QS", "01-701-1097", 4130, "DAITM10", "DRESS HIMSELF/HERSELF", "DAD", "DRESSING", "Y", "", "1", 1, "", "", "", "", "", 12.0, "WEEK 24", 168, "TREATMENT", "2014-06-18", 169], ["CDISCPILOT01", "QS", "01-701-1097", 4011, "DAITM11", "DRESS HIMSELF/HERSELF COMPLETELY", "DAD", "DRESSING", "Y", "", "1", 1, "", "", "", "Y", "", 3.0, "BASELINE", 1, "TREATMENT", "2014-01-01", 1], ["CDISCPILOT01", "QS", "01-701-1097", 4051, "DAITM11", "DRESS HIMSELF/HERSELF COMPLETELY", "DAD", "DRESSING", "Y", "", "1", 1, "", "", "", "", "", 8.0, "WEEK 8", 56, "TREATMENT", "2014-02-26", 57], ["CDISCPILOT01", "QS", "01-701-1097", 4091, "DAITM11", "DRESS HIMSELF/HERSELF COMPLETELY", "DAD", "DRESSING", "Y", "", "1", 1, "", "", "", "", "", 10.0, "WEEK 16", 112, "TREATMENT", "2014-04-23", 113], ["CDISCPILOT01", "QS", "01-701-1097", 4131, "DAITM11", "DRESS HIMSELF/HERSELF COMPLETELY", "DAD", "DRESSING", "Y", "", "1", 1, "", "", "", "", "", 12.0, "WEEK 24", 168, "TREATMENT", "2014-06-18", 169], ["CDISCPILOT01", "QS", "01-701-1097", 4012, "DAITM12", "UNDRESS HIMSELF/HERSELF COMPLETELY", "DAD", "DRESSING", "Y", "", "1", 1, "", "", "", "Y", "", 3.0, "BASELINE", 1, "TREATMENT", "2014-01-01", 1], ["CDISCPILOT01", "QS", "01-701-1097", 4052, "DAITM12", "UNDRESS HIMSELF/HERSELF COMPLETELY", "DAD", "DRESSING", "Y", "", "1", 1, "", "", "", "", "", 8.0, "WEEK 8", 56, "TREATMENT", "2014-02-26", 57], ["CDISCPILOT01", "QS", "01-701-1097", 4092, "DAITM12", "UNDRESS HIMSELF/HERSELF COMPLETELY", "DAD", "DRESSING", "Y", "", "1", 1, "", "", "", "", "", 10.0, "WEEK 16", 112, "TREATMENT", "2014-04-23", 113], ["CDISCPILOT01", "QS", "01-701-1097", 4132, "DAITM12", "UNDRESS HIMSELF/HERSELF COMPLETELY", "DAD", "DRESSING", "Y", "", "1", 1, "", "", "", "", "", 12.0, "WEEK 24", 168, "TREATMENT", "2014-06-18", 169], ["CDISCPILOT01", "QS", "01-701-1097", 4013, "DAITM13", "DECIDE TO USE THE TOILET AT APPROPRIATE", "DAD", "CONTINENCE", "Y", "", "1", 1, "", "", "", "Y", "", 3.0, "BASELINE", 1, "TREATMENT", "2014-01-01", 1], ["CDISCPILOT01", "QS", "01-701-1097", 4053, "DAITM13", "DECIDE TO USE THE TOILET AT APPROPRIATE", "DAD", "CONTINENCE", "Y", "", "1", 1, "", "", "", "", "", 8.0, "WEEK 8", 56, "TREATMENT", "2014-02-26", 57], ["CDISCPILOT01", "QS", "01-701-1097", 4093, "DAITM13", "DECIDE TO USE THE TOILET AT APPROPRIATE", "DAD", "CONTINENCE", "Y", "", "1", 1, "", "", "", "", "", 10.0, "WEEK 16", 112, "TREATMENT", "2014-04-23", 113], ["CDISCPILOT01", "QS", "01-701-1097", 4133, "DAITM13", "DECIDE TO USE THE TOILET AT APPROPRIATE", "DAD", "CONTINENCE", "Y", "", "1", 1, "", "", "", "", "", 12.0, "WEEK 24", 168, "TREATMENT", "2014-06-18", 169], ["CDISCPILOT01", "QS", "01-701-1097", 4014, "DAITM14", "USE THE TOILET WITHOUT \"ACCIDENTS\"", "DAD", "CONTINENCE", "Y", "", "1", 1, "", "", "", "Y", "", 3.0, "BASELINE", 1, "TREATMENT", "2014-01-01", 1], ["CDISCPILOT01", "QS", "01-701-1097", 4054, "DAITM14", "USE THE TOILET WITHOUT \"ACCIDENTS\"", "DAD", "CONTINENCE", "Y", "", "1", 1, "", "", "", "", "", 8.0, "WEEK 8", 56, "TREATMENT", "2014-02-26", 57], ["CDISCPILOT01", "QS", "01-701-1097", 4094, "DAITM14", "USE THE TOILET WITHOUT \"ACCIDENTS\"", "DAD", "CONTINENCE", "Y", "", "1", 1, "", "", "", "", "", 10.0, "WEEK 16", 112, "TREATMENT", "2014-04-23", 113], ["CDISCPILOT01", "QS", "01-701-1097", 4134, "DAITM14", "USE THE TOILET WITHOUT \"ACCIDENTS\"", "DAD", "CONTINENCE", "Y", "", "1", 1, "", "", "", "", "", 12.0, "WEEK 24", 168, "TREATMENT", "2014-06-18", 169], ["CDISCPILOT01", "QS", "01-701-1097", 4015, "DAITM15", "DECIDE THAT HE/SHE NEEDS TO EAT", "DAD", "EATING", "Y", "", "1", 1, "", "", "", "Y", "", 3.0, "BASELINE", 1, "TREATMENT", "2014-01-01", 1], ["CDISCPILOT01", "QS", "01-701-1097", 4055, "DAITM15", "DECIDE THAT HE/SHE NEEDS TO EAT", "DAD", "EATING", "Y", "", "1", 1, "", "", "", "", "", 8.0, "WEEK 8", 56, "TREATMENT", "2014-02-26", 57], ["CDISCPILOT01", "QS", "01-701-1097", 4095, "DAITM15", "DECIDE THAT HE/SHE NEEDS TO EAT", "DAD", "EATING", "Y", "", "1", 1, "", "", "", "", "", 10.0, "WEEK 16", 112, "TREATMENT", "2014-04-23", 113], ["CDISCPILOT01", "QS", "01-701-1097", 4135, "DAITM15", "DECIDE THAT HE/SHE NEEDS TO EAT", "DAD", "EATING", "Y", "", "1", 1, "", "", "", "", "", 12.0, "WEEK 24", 168, "TREATMENT", "2014-06-18", 169], ["CDISCPILOT01", "QS", "01-701-1097", 4016, "DAITM16", "CHOOSE APPROPRIATE UTENSILS", "DAD", "EATING", "Y", "", "1", 1, "", "", "", "Y", "", 3.0, "BASELINE", 1, "TREATMENT", "2014-01-01", 1], ["CDISCPILOT01", "QS", "01-701-1097", 4056, "DAITM16", "CHOOSE APPROPRIATE UTENSILS", "DAD", "EATING", "Y", "", "1", 1, "", "", "", "", "", 8.0, "WEEK 8", 56, "TREATMENT", "2014-02-26", 57], ["CDISCPILOT01", "QS", "01-701-1097", 4096, "DAITM16", "CHOOSE APPROPRIATE UTENSILS", "DAD", "EATING", "Y", "", "1", 1, "", "", "", "", "", 10.0, "WEEK 16", 112, "TREATMENT", "2014-04-23", 113], ["CDISCPILOT01", "QS", "01-701-1097", 4136, "DAITM16", "CHOOSE APPROPRIATE UTENSILS", "DAD", "EATING", "Y", "", "1", 1, "", "", "", "", "", 12.0, "WEEK 24", 168, "TREATMENT", "2014-06-18", 169], ["CDISCPILOT01", "QS", "01-701-1097", 4017, "DAITM17", "EAT HIS/HER MEALS AT A NORMAL PACE", "DAD", "EATING", "Y", "", "1", 1, "", "", "", "Y", "", 3.0, "BASELINE", 1, "TREATMENT", "2014-01-01", 1], ["CDISCPILOT01", "QS", "01-701-1097", 4057, "DAITM17", "EAT HIS/HER MEALS AT A NORMAL PACE", "DAD", "EATING", "Y", "", "1", 1, "", "", "", "", "", 8.0, "WEEK 8", 56, "TREATMENT", "2014-02-26", 57], ["CDISCPILOT01", "QS", "01-701-1097", 4097, "DAITM17", "EAT HIS/HER MEALS AT A NORMAL PACE", "DAD", "EATING", "Y", "", "1", 1, "", "", "", "", "", 10.0, "WEEK 16", 112, "TREATMENT", "2014-04-23", 113], ["CDISCPILOT01", "QS", "01-701-1097", 4137, "DAITM17", "EAT HIS/HER MEALS AT A NORMAL PACE", "DAD", "EATING", "Y", "", "1", 1, "", "", "", "", "", 12.0, "WEEK 24", 168, "TREATMENT", "2014-06-18", 169], ["CDISCPILOT01", "QS", "01-701-1097", 4018, "DAITM18", "UNDERTAKE TO PREPARE A LIGHT MEAL", "DAD", "MEAL PREPARATION", "Y", "", "1", 1, "", "", "", "Y", "", 3.0, "BASELINE", 1, "TREATMENT", "2014-01-01", 1], ["CDISCPILOT01", "QS", "01-701-1097", 4058, "DAITM18", "UNDERTAKE TO PREPARE A LIGHT MEAL", "DAD", "MEAL PREPARATION", "Y", "", "1", 1, "", "", "", "", "", 8.0, "WEEK 8", 56, "TREATMENT", "2014-02-26", 57], ["CDISCPILOT01", "QS", "01-701-1097", 4098, "DAITM18", "UNDERTAKE TO PREPARE A LIGHT MEAL", "DAD", "MEAL PREPARATION", "Y", "", "1", 1, "", "", "", "", "", 10.0, "WEEK 16", 112, "TREATMENT", "2014-04-23", 113], ["CDISCPILOT01", "QS", "01-701-1097", 4138, "DAITM18", "UNDERTAKE TO PREPARE A LIGHT MEAL", "DAD", "MEAL PREPARATION", "Y", "", "1", 1, "", "", "", "", "", 12.0, "WEEK 24", 168, "TREATMENT", "2014-06-18", 169], ["CDISCPILOT01", "QS", "01-701-1097", 4019, "DAITM19", "ADEQUATELY PLAN A LIGHT MEAL OR SNACK", "DAD", "MEAL PREPARATION", "N", "", "0", 0, "", "", "", "Y", "", 3.0, "BASELINE", 1, "TREATMENT", "2014-01-01", 1], ["CDISCPILOT01", "QS", "01-701-1097", 4059, "DAITM19", "ADEQUATELY PLAN A LIGHT MEAL OR SNACK", "DAD", "MEAL PREPARATION", "Y", "", "1", 1, "", "", "", "", "", 8.0, "WEEK 8", 56, "TREATMENT", "2014-02-26", 57], ["CDISCPILOT01", "QS", "01-701-1097", 4099, "DAITM19", "ADEQUATELY PLAN A LIGHT MEAL OR SNACK", "DAD", "MEAL PREPARATION", "Y", "", "1", 1, "", "", "", "", "", 10.0, "WEEK 16", 112, "TREATMENT", "2014-04-23", 113], ["CDISCPILOT01", "QS", "01-701-1097", 4139, "DAITM19", "ADEQUATELY PLAN A LIGHT MEAL OR SNACK", "DAD", "MEAL PREPARATION", "Y", "", "1", 1, "", "", "", "", "", 12.0, "WEEK 24", 168, "TREATMENT", "2014-06-18", 169], ["CDISCPILOT01", "QS", "01-701-1097", 4020, "DAITM20", "PREPARE OR COOK A LIGHT MEAL OR A SNACK", "DAD", "MEAL PREPARATION", "Y", "", "1", 1, "", "", "", "Y", "", 3.0, "BASELINE", 1, "TREATMENT", "2014-01-01", 1], ["CDISCPILOT01", "QS", "01-701-1097", 4060, "DAITM20", "PREPARE OR COOK A LIGHT MEAL OR A SNACK", "DAD", "MEAL PREPARATION", "Y", "", "1", 1, "", "", "", "", "", 8.0, "WEEK 8", 56, "TREATMENT", "2014-02-26", 57], ["CDISCPILOT01", "QS", "01-701-1097", 4100, "DAITM20", "PREPARE OR COOK A LIGHT MEAL OR A SNACK", "DAD", "MEAL PREPARATION", "Y", "", "1", 1, "", "", "", "", "", 10.0, "WEEK 16", 112, "TREATMENT", "2014-04-23", 113], ["CDISCPILOT01", "QS", "01-701-1097", 4140, "DAITM20", "PREPARE OR COOK A LIGHT MEAL OR A SNACK", "DAD", "MEAL PREPARATION", "N", "", "0", 0, "", "", "", "", "", 12.0, "WEEK 24", 168, "TREATMENT", "2014-06-18", 169], ["CDISCPILOT01", "QS", "01-701-1097", 4021, "DAITM21", "ATTEMPT TO TELEPHONE SOMEONE", "DAD", "TELEPHONING", "N", "", "0", 0, "", "", "", "Y", "", 3.0, "BASELINE", 1, "TREATMENT", "2014-01-01", 1], ["CDISCPILOT01", "QS", "01-701-1097", 4061, "DAITM21", "ATTEMPT TO TELEPHONE SOMEONE", "DAD", "TELEPHONING", "N", "", "0", 0, "", "", "", "", "", 8.0, "WEEK 8", 56, "TREATMENT", "2014-02-26", 57], ["CDISCPILOT01", "QS", "01-701-1097", 4101, "DAITM21", "ATTEMPT TO TELEPHONE SOMEONE", "DAD", "TELEPHONING", "N", "", "0", 0, "", "", "", "", "", 10.0, "WEEK 16", 112, "TREATMENT", "2014-04-23", 113], ["CDISCPILOT01", "QS", "01-701-1097", 4141, "DAITM21", "ATTEMPT TO TELEPHONE SOMEONE", "DAD", "TELEPHONING", "N", "", "0", 0, "", "", "", "", "", 12.0, "WEEK 24", 168, "TREATMENT", "2014-06-18", 169], ["CDISCPILOT01", "QS", "01-701-1097", 4022, "DAITM22", "FIND AND DIAL A TELEPHONE NUMBER CORRECT", "DAD", "TELEPHONING", "N", "", "0", 0, "", "", "", "Y", "", 3.0, "BASELINE", 1, "TREATMENT", "2014-01-01", 1], ["CDISCPILOT01", "QS", "01-701-1097", 4062, "DAITM22", "FIND AND DIAL A TELEPHONE NUMBER CORRECT", "DAD", "TELEPHONING", "N", "", "0", 0, "", "", "", "", "", 8.0, "WEEK 8", 56, "TREATMENT", "2014-02-26", 57], ["CDISCPILOT01", "QS", "01-701-1097", 4102, "DAITM22", "FIND AND DIAL A TELEPHONE NUMBER CORRECT", "DAD", "TELEPHONING", "N", "", "0", 0, "", "", "", "", "", 10.0, "WEEK 16", 112, "TREATMENT", "2014-04-23", 113], ["CDISCPILOT01", "QS", "01-701-1097", 4142, "DAITM22", "FIND AND DIAL A TELEPHONE NUMBER CORRECT", "DAD", "TELEPHONING", "N", "", "0", 0, "", "", "", "", "", 12.0, "WEEK 24", 168, "TREATMENT", "2014-06-18", 169], ["CDISCPILOT01", "QS", "01-701-1097", 4023, "DAITM23", "CARRY OUT A TELEPHONE CONVERSATION", "DAD", "TELEPHONING", "Y", "", "1", 1, "", "", "", "Y", "", 3.0, "BASELINE", 1, "TREATMENT", "2014-01-01", 1], ["CDISCPILOT01", "QS", "01-701-1097", 4063, "DAITM23", "CARRY OUT A TELEPHONE CONVERSATION", "DAD", "TELEPHONING", "Y", "", "1", 1, "", "", "", "", "", 8.0, "WEEK 8", 56, "TREATMENT", "2014-02-26", 57], ["CDISCPILOT01", "QS", "01-701-1097", 4103, "DAITM23", "CARRY OUT A TELEPHONE CONVERSATION", "DAD", "TELEPHONING", "N", "", "0", 0, "", "", "", "", "", 10.0, "WEEK 16", 112, "TREATMENT", "2014-04-23", 113], ["CDISCPILOT01", "QS", "01-701-1097", 4143, "DAITM23", "CARRY OUT A TELEPHONE CONVERSATION", "DAD", "TELEPHONING", "N", "", "0", 0, "", "", "", "", "", 12.0, "WEEK 24", 168, "TREATMENT", "2014-06-18", 169], ["CDISCPILOT01", "QS", "01-701-1097", 4024, "DAITM24", "WRITE AND CONVEY A TELEPHONE MESSAGE", "DAD", "TELEPHONING", "N", "", "0", 0, "", "", "", "Y", "", 3.0, "BASELINE", 1, "TREATMENT", "2014-01-01", 1], ["CDISCPILOT01", "QS", "01-701-1097", 4064, "DAITM24", "WRITE AND CONVEY A TELEPHONE MESSAGE", "DAD", "TELEPHONING", "N", "", "0", 0, "", "", "", "", "", 8.0, "WEEK 8", 56, "TREATMENT", "2014-02-26", 57], ["CDISCPILOT01", "QS", "01-701-1097", 4104, "DAITM24", "WRITE AND CONVEY A TELEPHONE MESSAGE", "DAD", "TELEPHONING", "N", "", "0", 0, "", "", "", "", "", 10.0, "WEEK 16", 112, "TREATMENT", "2014-04-23", 113], ["CDISCPILOT01", "QS", "01-701-1097", 4144, "DAITM24", "WRITE AND CONVEY A TELEPHONE MESSAGE", "DAD", "TELEPHONING", "N", "", "0", 0, "", "", "", "", "", 12.0, "WEEK 24", 168, "TREATMENT", "2014-06-18", 169], ["CDISCPILOT01", "QS", "01-701-1097", 4025, "DAITM25", "UNDERTAKE TO GO OUT", "DAD", "GOING ON AN OUTING", "N", "", "0", 0, "", "", "", "Y", "", 3.0, "BASELINE", 1, "TREATMENT", "2014-01-01", 1], ["CDISCPILOT01", "QS", "01-701-1097", 4065, "DAITM25", "UNDERTAKE TO GO OUT", "DAD", "GOING ON AN OUTING", "N", "", "0", 0, "", "", "", "", "", 8.0, "WEEK 8", 56, "TREATMENT", "2014-02-26", 57], ["CDISCPILOT01", "QS", "01-701-1097", 4105, "DAITM25", "UNDERTAKE TO GO OUT", "DAD", "GOING ON AN OUTING", "N", "", "0", 0, "", "", "", "", "", 10.0, "WEEK 16", 112, "TREATMENT", "2014-04-23", 113], ["CDISCPILOT01", "QS", "01-701-1097", 4145, "DAITM25", "UNDERTAKE TO GO OUT", "DAD", "GOING ON AN OUTING", "Y", "", "1", 1, "", "", "", "", "", 12.0, "WEEK 24", 168, "TREATMENT", "2014-06-18", 169], ["CDISCPILOT01", "QS", "01-701-1097", 4026, "DAITM26", "ADEQUATELY ORGANIZE AN OUTING", "DAD", "GOING ON AN OUTING", "N", "", "0", 0, "", "", "", "Y", "", 3.0, "BASELINE", 1, "TREATMENT", "2014-01-01", 1], ["CDISCPILOT01", "QS", "01-701-1097", 4066, "DAITM26", "ADEQUATELY ORGANIZE AN OUTING", "DAD", "GOING ON AN OUTING", "N", "", "0", 0, "", "", "", "", "", 8.0, "WEEK 8", 56, "TREATMENT", "2014-02-26", 57], ["CDISCPILOT01", "QS", "01-701-1097", 4106, "DAITM26", "ADEQUATELY ORGANIZE AN OUTING", "DAD", "GOING ON AN OUTING", "N", "", "0", 0, "", "", "", "", "", 10.0, "WEEK 16", 112, "TREATMENT", "2014-04-23", 113], ["CDISCPILOT01", "QS", "01-701-1097", 4146, "DAITM26", "ADEQUATELY ORGANIZE AN OUTING", "DAD", "GOING ON AN OUTING", "N", "", "0", 0, "", "", "", "", "", 12.0, "WEEK 24", 168, "TREATMENT", "2014-06-18", 169], ["CDISCPILOT01", "QS", "01-701-1097", 4027, "DAITM27", "GO OUT AND REACH A FAMILIAR DESTINATION", "DAD", "GOING ON AN OUTING", "Y", "", "1", 1, "", "", "", "Y", "", 3.0, "BASELINE", 1, "TREATMENT", "2014-01-01", 1], ["CDISCPILOT01", "QS", "01-701-1097", 4067, "DAITM27", "GO OUT AND REACH A FAMILIAR DESTINATION", "DAD", "GOING ON AN OUTING", "Y", "", "1", 1, "", "", "", "", "", 8.0, "WEEK 8", 56, "TREATMENT", "2014-02-26", 57], ["CDISCPILOT01", "QS", "01-701-1097", 4107, "DAITM27", "GO OUT AND REACH A FAMILIAR DESTINATION", "DAD", "GOING ON AN OUTING", "N", "", "0", 0, "", "", "", "", "", 10.0, "WEEK 16", 112, "TREATMENT", "2014-04-23", 113], ["CDISCPILOT01", "QS", "01-701-1097", 4147, "DAITM27", "GO OUT AND REACH A FAMILIAR DESTINATION", "DAD", "GOING ON AN OUTING", "NA", "", "96", 96, "", "", "", "", "", 12.0, "WEEK 24", 168, "TREATMENT", "2014-06-18", 169], ["CDISCPILOT01", "QS", "01-701-1097", 4028, "DAITM28", "SAFELY TAKE CAR, BUS, TAXI", "DAD", "GOING ON AN OUTING", "Y", "", "1", 1, "", "", "", "Y", "", 3.0, "BASELINE", 1, "TREATMENT", "2014-01-01", 1], ["CDISCPILOT01", "QS", "01-701-1097", 4068, "DAITM28", "SAFELY TAKE CAR, BUS, TAXI", "DAD", "GOING ON AN OUTING", "N", "", "0", 0, "", "", "", "", "", 8.0, "WEEK 8", 56, "TREATMENT", "2014-02-26", 57], ["CDISCPILOT01", "QS", "01-701-1097", 4108, "DAITM28", "SAFELY TAKE CAR, BUS, TAXI", "DAD", "GOING ON AN OUTING", "NA", "", "96", 96, "", "", "", "", "", 10.0, "WEEK 16", 112, "TREATMENT", "2014-04-23", 113], ["CDISCPILOT01", "QS", "01-701-1097", 4148, "DAITM28", "SAFELY TAKE CAR, BUS, TAXI", "DAD", "GOING ON AN OUTING", "NA", "", "96", 96, "", "", "", "", "", 12.0, "WEEK 24", 168, "TREATMENT", "2014-06-18", 169], ["CDISCPILOT01", "QS", "01-701-1097", 4029, "DAITM29", "RETURN FROM THE STORE", "DAD", "GOING ON AN OUTING", "N", "", "0", 0, "", "", "", "Y", "", 3.0, "BASELINE", 1, "TREATMENT", "2014-01-01", 1], ["CDISCPILOT01", "QS", "01-701-1097", 4069, "DAITM29", "RETURN FROM THE STORE", "DAD", "GOING ON AN OUTING", "Y", "", "1", 1, "", "", "", "", "", 8.0, "WEEK 8", 56, "TREATMENT", "2014-02-26", 57], ["CDISCPILOT01", "QS", "01-701-1097", 4109, "DAITM29", "RETURN FROM THE STORE", "DAD", "GOING ON AN OUTING", "NA", "", "96", 96, "", "", "", "", "", 10.0, "WEEK 16", 112, "TREATMENT", "2014-04-23", 113], ["CDISCPILOT01", "QS", "01-701-1097", 4149, "DAITM29", "RETURN FROM THE STORE", "DAD", "GOING ON AN OUTING", "NA", "", "96", 96, "", "", "", "", "", 12.0, "WEEK 24", 168, "TREATMENT", "2014-06-18", 169], ["CDISCPILOT01", "QS", "01-701-1097", 4030, "DAITM30", "INTEREST IN HIS/HER PERSONAL AFFAIRS", "DAD", "FINANCE AND CORRESPONDE", "Y", "", "1", 1, "", "", "", "Y", "", 3.0, "BASELINE", 1, "TREATMENT", "2014-01-01", 1], ["CDISCPILOT01", "QS", "01-701-1097", 4070, "DAITM30", "INTEREST IN HIS/HER PERSONAL AFFAIRS", "DAD", "FINANCE AND CORRESPONDE", "N", "", "0", 0, "", "", "", "", "", 8.0, "WEEK 8", 56, "TREATMENT", "2014-02-26", 57], ["CDISCPILOT01", "QS", "01-701-1097", 4110, "DAITM30", "INTEREST IN HIS/HER PERSONAL AFFAIRS", "DAD", "FINANCE AND CORRESPONDE", "Y", "", "1", 1, "", "", "", "", "", 10.0, "WEEK 16", 112, "TREATMENT", "2014-04-23", 113], ["CDISCPILOT01", "QS", "01-701-1097", 4150, "DAITM30", "INTEREST IN HIS/HER PERSONAL AFFAIRS", "DAD", "FINANCE AND CORRESPONDE", "Y", "", "1", 1, "", "", "", "", "", 12.0, "WEEK 24", 168, "TREATMENT", "