{"datasetJSONCreationDateTime": "2025-01-04T16:23:56", "datasetJSONVersion": "1.1.0", "fileOID": "UpdatedCDISCPILOT.CDISC SDTM.3.2.QSNI", "studyOID": "UpdatedCDISCPILOT.CDISC SDTM.3.2", "metaDataVersionOID": "MDV.UpdatedCDISCPILOT.CDISC SDTM.3.2", "itemGroupOID": "{QSNI", "records": 71200, "name": "QSNI", "label": "Questionnaires", "columns": [{"itemOID": "IT.QSNI.STUDYID", "name": "STUDYID", "label": "Study Identifier", "dataType": "string", "length": 12, "keySequence": 1}, {"itemOID": "IT.QSNI.DOMAIN", "name": "DOMAIN", "label": "Domain Abbreviation", "dataType": "string", "length": 2}, {"itemOID": "IT.QSNI.USUBJID", "name": "USUBJID", "label": "Unique Subject Identifier", "dataType": "string", "length": 11, "keySequence": 2}, {"itemOID": "IT.QSNI.QSSEQ", "name": "QSSEQ", "label": "Sequence Number", "dataType": "integer", "length": 8}, {"itemOID": "IT.QSNI.QSTESTCD", "name": "QSTESTCD", "label": "Question Short Name", "dataType": "string", "length": 8, "keySequence": 3}, {"itemOID": "IT.QSNI.QSTEST", "name": "QSTEST", "label": "Question Name", "dataType": "string", "length": 40}, {"itemOID": "IT.QSNI.QSCAT", "name": "QSCAT", "label": "Category of Question", "dataType": "string", "length": 70}, {"itemOID": "IT.QSNI.QSSCAT", "name": "QSSCAT", "label": "Subcategory for Question", "dataType": "string", "length": 26}, {"itemOID": "IT.QSNI.QSORRES", "name": "QSORRES", "label": "Finding in Original Units", "dataType": "string", "length": 20}, {"itemOID": "IT.QSNI.QSORRESU", "name": "QSORRESU", "label": "Original Units", "dataType": "string", "length": 7}, {"itemOID": "IT.QSNI.QSSTRESC", "name": "QSSTRESC", "label": "Character Result/Finding in Std Format", "dataType": "string", "length": 4}, {"itemOID": "IT.QSNI.QSSTRESN", "name": "QSSTRESN", "label": "Numeric Finding in Standard Units", "dataType": "integer", "length": 8}, {"itemOID": "IT.QSNI.QSSTRESU", "name": "QSSTRESU", "label": "Standard Units", "dataType": "string", "length": 7}, {"itemOID": "IT.QSNI.QSSTAT", "name": "QSSTAT", "label": "Completion Status", "dataType": "string", "length": 8}, {"itemOID": "IT.QSNI.QSREASND", "name": "QSREASND", "label": "Reason Not Performed", "dataType": "string", "length": 17}, {"itemOID": "IT.QSNI.QSBLFL", "name": "QSBLFL", "label": "Baseline Flag", "dataType": "string", "length": 1}, {"itemOID": "IT.QSNI.QSDRVFL", "name": "QSDRVFL", "label": "Derived Flag", "dataType": "string", "length": 1}, {"itemOID": "IT.QSNI.VISITNUM", "name": "VISITNUM", "label": "Visit Number", "dataType": "double", "length": 8, "keySequence": 4}, {"itemOID": "IT.QSNI.VISIT", "name": "VISIT", "label": "Visit Name", "dataType": "string", "length": 19}, {"itemOID": "IT.QSNI.VISITDY", "name": "VISITDY", "label": "Planned Study Day of Visit", "dataType": "integer", "length": 8}, {"itemOID": "IT.QSNI.EPOCH", "name": "EPOCH", "label": "Epoch", "dataType": "string", "length": 9}, {"itemOID": "IT.QSNI.QSDTC", "name": "QSDTC", "label": "Date/Time of Finding", "dataType": "string", "length": 10}, {"itemOID": "IT.QSNI.QSDY", "name": "QSDY", "label": "Study Day of Finding", "dataType": "integer", "length": 8}], "rows": [["CDISCPILOT01", "QS", "01-701-1015", 3001, "NPITM01", "DELUSIONS PRESENT", "NPI", "DELUSIONS", "ABSENT", "", "0", 0, "", "", "", "Y", "", 3.0, "BASELINE", 1, "TREATMENT", "2014-01-02", 1], ["CDISCPILOT01", "QS", "01-701-1015", 3002, "NPITM01S", "DELUSIONS Score", "NPI", "DELUSIONS", "0", "", "0", 0, "", "", "", "Y", "Y", 3.0, "BASELINE", 1, "TREATMENT", "2014-01-02", 1], ["CDISCPILOT01", "QS", "01-701-1015", 3026, "NPITM01", "DELUSIONS PRESENT", "NPI", "DELUSIONS", "ABSENT", "", "0", 0, "", "", "", "", "", 4.0, "WEEK 2", 14, "TREATMENT", "2014-01-16", 15], ["CDISCPILOT01", "QS", "01-701-1015", 3027, "NPITM01S", "DELUSIONS Score", "NPI", "DELUSIONS", "0", "", "0", 0, "", "", "", "", "Y", 4.0, "WEEK 2", 14, "TREATMENT", "2014-01-16", 15], ["CDISCPILOT01", "QS", "01-701-1015", 3051, "NPITM01", "DELUSIONS PRESENT", "NPI", "DELUSIONS", "ABSENT", "", "0", 0, "", "", "", "", "", 5.0, "WEEK 4", 28, "TREATMENT", "2014-01-30", 29], ["CDISCPILOT01", "QS", "01-701-1015", 3052, "NPITM01S", "DELUSIONS Score", "NPI", "DELUSIONS", "0", "", "0", 0, "", "", "", "", "Y", 5.0, "WEEK 4", 28, "TREATMENT", "2014-01-30", 29], ["CDISCPILOT01", "QS", "01-701-1015", 3076, "NPITM01", "DELUSIONS PRESENT", "NPI", "DELUSIONS", "ABSENT", "", "0", 0, "", "", "", "", "", 7.0, "WEEK 6", 42, "TREATMENT", "2014-02-12", 42], ["CDISCPILOT01", "QS", "01-701-1015", 3077, "NPITM01S", "DELUSIONS Score", "NPI", "DELUSIONS", "0", "", "0", 0, "", "", "", "", "Y", 7.0, "WEEK 6", 42, "TREATMENT", "2014-02-12", 42], ["CDISCPILOT01", "QS", "01-701-1015", 3101, "NPITM01", "DELUSIONS PRESENT", "NPI", "DELUSIONS", "ABSENT", "", "0", 0, "", "", "", "", "", 8.0, "WEEK 8", 56, "TREATMENT", "2014-03-05", 63], ["CDISCPILOT01", "QS", "01-701-1015", 3102, "NPITM01S", "DELUSIONS Score", "NPI", "DELUSIONS", "0", "", "0", 0, "", "", "", "", "Y", 8.0, "WEEK 8", 56, "TREATMENT", "2014-03-05", 63], ["CDISCPILOT01", "QS", "01-701-1015", 3126, "NPITM01", "DELUSIONS PRESENT", "NPI", "DELUSIONS", "ABSENT", "", "0", 0, "", "", "", "", "", 9.0, "WEEK 12", 84, "TREATMENT", "2014-03-26", 84], ["CDISCPILOT01", "QS", "01-701-1015", 3127, "NPITM01S", "DELUSIONS Score", "NPI", "DELUSIONS", "0", "", "0", 0, "", "", "", "", "Y", 9.0, "WEEK 12", 84, "TREATMENT", "2014-03-26", 84], ["CDISCPILOT01", "QS", "01-701-1015", 3151, "NPITM01", "DELUSIONS PRESENT", "NPI", "DELUSIONS", "ABSENT", "", "0", 0, "", "", "", "", "", 9.1, "WEEK 14 (T)", 98, "TREATMENT", "2014-04-09", 98], ["CDISCPILOT01", "QS", "01-701-1015", 3152, "NPITM01S", "DELUSIONS Score", "NPI", "DELUSIONS", "0", "", "0", 0, "", "", "", "", "Y", 9.1, "WEEK 14 (T)", 98, "TREATMENT", "2014-04-09", 98], ["CDISCPILOT01", "QS", "01-701-1015", 3176, "NPITM01", "DELUSIONS PRESENT", "NPI", "DELUSIONS", "ABSENT", "", "0", 0, "", "", "", "", "", 10.0, "WEEK 16", 112, "TREATMENT", "2014-05-07", 126], ["CDISCPILOT01", "QS", "01-701-1015", 3177, "NPITM01S", "DELUSIONS Score", "NPI", "DELUSIONS", "0", "", "0", 0, "", "", "", "", "Y", 10.0, "WEEK 16", 112, "TREATMENT", "2014-05-07", 126], ["CDISCPILOT01", "QS", "01-701-1015", 3201, "NPITM01", "DELUSIONS PRESENT", "NPI", "DELUSIONS", "ABSENT", "", "0", 0, "", "", "", "", "", 11.0, "WEEK 20", 140, "TREATMENT", "2014-05-21", 140], ["CDISCPILOT01", "QS", "01-701-1015", 3202, "NPITM01S", "DELUSIONS Score", "NPI", "DELUSIONS", "0", "", "0", 0, "", "", "", "", "Y", 11.0, "WEEK 20", 140, "TREATMENT", "2014-05-21", 140], ["CDISCPILOT01", "QS", "01-701-1015", 3226, "NPITM01", "DELUSIONS PRESENT", "NPI", "DELUSIONS", "ABSENT", "", "0", 0, "", "", "", "", "", 11.1, "WEEK 22 (T)", 154, "TREATMENT", "2014-06-04", 154], ["CDISCPILOT01", "QS", "01-701-1015", 3227, "NPITM01S", "DELUSIONS Score", "NPI", "DELUSIONS", "0", "", "0", 0, "", "", "", "", "Y", 11.1, "WEEK 22 (T)", 154, "TREATMENT", "2014-06-04", 154], ["CDISCPILOT01", "QS", "01-701-1015", 3251, "NPITM01", "DELUSIONS PRESENT", "NPI", "DELUSIONS", "ABSENT", "", "0", 0, "", "", "", "", "", 12.0, "WEEK 24", 168, "TREATMENT", "2014-06-18", 168], ["CDISCPILOT01", "QS", "01-701-1015", 3252, "NPITM01S", "DELUSIONS Score", "NPI", "DELUSIONS", "0", "", "0", 0, "", "", "", "", "Y", 12.0, "WEEK 24", 168, "TREATMENT", "2014-06-18", 168], ["CDISCPILOT01", "QS", "01-701-1015", 3276, "NPITM01", "DELUSIONS PRESENT", "NPI", "DELUSIONS", "ABSENT", "", "0", 0, "", "", "", "", "", 13.0, "WEEK 26", 182, "TREATMENT", "2014-07-02", 182], ["CDISCPILOT01", "QS", "01-701-1015", 3277, "NPITM01S", "DELUSIONS Score", "NPI", "DELUSIONS", "0", "", "0", 0, "", "", "", "", "Y", 13.0, "WEEK 26", 182, "TREATMENT", "2014-07-02", 182], ["CDISCPILOT01", "QS", "01-701-1015", 3003, "NPITM02", "HALLUCINATIONS PRESENT", "NPI", "HALLUCINATIONS", "ABSENT", "", "0", 0, "", "", "", "Y", "", 3.0, "BASELINE", 1, "TREATMENT", "2014-01-02", 1], ["CDISCPILOT01", "QS", "01-701-1015", 3004, "NPITM02S", "HALLUCINATIONS Score", "NPI", "HALLUCINATIONS", "0", "", "0", 0, "", "", "", "Y", "Y", 3.0, "BASELINE", 1, "TREATMENT", "2014-01-02", 1], ["CDISCPILOT01", "QS", "01-701-1015", 3028, "NPITM02", "HALLUCINATIONS PRESENT", "NPI", "HALLUCINATIONS", "ABSENT", "", "0", 0, "", "", "", "", "", 4.0, "WEEK 2", 14, "TREATMENT", "2014-01-16", 15], ["CDISCPILOT01", "QS", "01-701-1015", 3029, "NPITM02S", "HALLUCINATIONS Score", "NPI", "HALLUCINATIONS", "0", "", "0", 0, "", "", "", "", "Y", 4.0, "WEEK 2", 14, "TREATMENT", "2014-01-16", 15], ["CDISCPILOT01", "QS", "01-701-1015", 3053, "NPITM02", "HALLUCINATIONS PRESENT", "NPI", "HALLUCINATIONS", "ABSENT", "", "0", 0, "", "", "", "", "", 5.0, "WEEK 4", 28, "TREATMENT", "2014-01-30", 29], ["CDISCPILOT01", "QS", "01-701-1015", 3054, "NPITM02S", "HALLUCINATIONS Score", "NPI", "HALLUCINATIONS", "0", "", "0", 0, "", "", "", "", "Y", 5.0, "WEEK 4", 28, "TREATMENT", "2014-01-30", 29], ["CDISCPILOT01", "QS", "01-701-1015", 3078, "NPITM02", "HALLUCINATIONS PRESENT", "NPI", "HALLUCINATIONS", "ABSENT", "", "0", 0, "", "", "", "", "", 7.0, "WEEK 6", 42, "TREATMENT", "2014-02-12", 42], ["CDISCPILOT01", "QS", "01-701-1015", 3079, "NPITM02S", "HALLUCINATIONS Score", "NPI", "HALLUCINATIONS", "0", "", "0", 0, "", "", "", "", "Y", 7.0, "WEEK 6", 42, "TREATMENT", "2014-02-12", 42], ["CDISCPILOT01", "QS", "01-701-1015", 3103, "NPITM02", "HALLUCINATIONS PRESENT", "NPI", "HALLUCINATIONS", "ABSENT", "", "0", 0, "", "", "", "", "", 8.0, "WEEK 8", 56, "TREATMENT", "2014-03-05", 63], ["CDISCPILOT01", "QS", "01-701-1015", 3104, "NPITM02S", "HALLUCINATIONS Score", "NPI", "HALLUCINATIONS", "0", "", "0", 0, "", "", "", "", "Y", 8.0, "WEEK 8", 56, "TREATMENT", "2014-03-05", 63], ["CDISCPILOT01", "QS", "01-701-1015", 3128, "NPITM02", "HALLUCINATIONS PRESENT", "NPI", "HALLUCINATIONS", "ABSENT", "", "0", 0, "", "", "", "", "", 9.0, "WEEK 12", 84, "TREATMENT", "2014-03-26", 84], ["CDISCPILOT01", "QS", "01-701-1015", 3129, "NPITM02S", "HALLUCINATIONS Score", "NPI", "HALLUCINATIONS", "0", "", "0", 0, "", "", "", "", "Y", 9.0, "WEEK 12", 84, "TREATMENT", "2014-03-26", 84], ["CDISCPILOT01", "QS", "01-701-1015", 3153, "NPITM02", "HALLUCINATIONS PRESENT", "NPI", "HALLUCINATIONS", "ABSENT", "", "0", 0, "", "", "", "", "", 9.1, "WEEK 14 (T)", 98, "TREATMENT", "2014-04-09", 98], ["CDISCPILOT01", "QS", "01-701-1015", 3154, "NPITM02S", "HALLUCINATIONS Score", "NPI", "HALLUCINATIONS", "0", "", "0", 0, "", "", "", "", "Y", 9.1, "WEEK 14 (T)", 98, "TREATMENT", "2014-04-09", 98], ["CDISCPILOT01", "QS", "01-701-1015", 3178, "NPITM02", "HALLUCINATIONS PRESENT", "NPI", "HALLUCINATIONS", "ABSENT", "", "0", 0, "", "", "", "", "", 10.0, "WEEK 16", 112, "TREATMENT", "2014-05-07", 126], ["CDISCPILOT01", "QS", "01-701-1015", 3179, "NPITM02S", "HALLUCINATIONS Score", "NPI", "HALLUCINATIONS", "0", "", "0", 0, "", "", "", "", "Y", 10.0, "WEEK 16", 112, "TREATMENT", "2014-05-07", 126], ["CDISCPILOT01", "QS", "01-701-1015", 3203, "NPITM02", "HALLUCINATIONS PRESENT", "NPI", "HALLUCINATIONS", "ABSENT", "", "0", 0, "", "", "", "", "", 11.0, "WEEK 20", 140, "TREATMENT", "2014-05-21", 140], ["CDISCPILOT01", "QS", "01-701-1015", 3204, "NPITM02S", "HALLUCINATIONS Score", "NPI", "HALLUCINATIONS", "0", "", "0", 0, "", "", "", "", "Y", 11.0, "WEEK 20", 140, "TREATMENT", "2014-05-21", 140], ["CDISCPILOT01", "QS", "01-701-1015", 3228, "NPITM02", "HALLUCINATIONS PRESENT", "NPI", "HALLUCINATIONS", "ABSENT", "", "0", 0, "", "", "", "", "", 11.1, "WEEK 22 (T)", 154, "TREATMENT", "2014-06-04", 154], ["CDISCPILOT01", "QS", "01-701-1015", 3229, "NPITM02S", "HALLUCINATIONS Score", "NPI", "HALLUCINATIONS", "0", "", "0", 0, "", "", "", "", "Y", 11.1, "WEEK 22 (T)", 154, "TREATMENT", "2014-06-04", 154], ["CDISCPILOT01", "QS", "01-701-1015", 3253, "NPITM02", "HALLUCINATIONS PRESENT", "NPI", "HALLUCINATIONS", "ABSENT", "", "0", 0, "", "", "", "", "", 12.0, "WEEK 24", 168, "TREATMENT", "2014-06-18", 168], ["CDISCPILOT01", "QS", "01-701-1015", 3254, "NPITM02S", "HALLUCINATIONS Score", "NPI", "HALLUCINATIONS", "0", "", "0", 0, "", "", "", "", "Y", 12.0, "WEEK 24", 168, "TREATMENT", "2014-06-18", 168], ["CDISCPILOT01", "QS", "01-701-1015", 3278, "NPITM02", "HALLUCINATIONS PRESENT", "NPI", "HALLUCINATIONS", "ABSENT", "", "0", 0, "", "", "", "", "", 13.0, "WEEK 26", 182, "TREATMENT", "2014-07-02", 182], ["CDISCPILOT01", "QS", "01-701-1015", 3279, "NPITM02S", "HALLUCINATIONS Score", "NPI", "HALLUCINATIONS", "0", "", "0", 0, "", "", "", "", "Y", 13.0, "WEEK 26", 182, "TREATMENT", "2014-07-02", 182], ["CDISCPILOT01", "QS", "01-701-1015", 3005, "NPITM03", "AGITATION/AGRESSION PRESENT", "NPI", "AGITATION/AGRESSION", "ABSENT", "", "0", 0, "", "", "", "Y", "", 3.0, "BASELINE", 1, "TREATMENT", "2014-01-02", 1], ["CDISCPILOT01", "QS", "01-701-1015", 3006, "NPITM03S", "AGITATION/AGRESSION Score", "NPI", "AGITATION/AGRESSION", "0", "", "0", 0, "", "", "", "Y", "Y", 3.0, "BASELINE", 1, "TREATMENT", "2014-01-02", 1], ["CDISCPILOT01", "QS", "01-701-1015", 3030, "NPITM03", "AGITATION/AGRESSION PRESENT", "NPI", "AGITATION/AGRESSION", "ABSENT", "", "0", 0, "", "", "", "", "", 4.0, "WEEK 2", 14, "TREATMENT", "2014-01-16", 15], ["CDISCPILOT01", "QS", "01-701-1015", 3031, "NPITM03S", "AGITATION/AGRESSION Score", "NPI", "AGITATION/AGRESSION", "0", "", "0", 0, "", "", "", "", "Y", 4.0, "WEEK 2", 14, "TREATMENT", "2014-01-16", 15], ["CDISCPILOT01", "QS", "01-701-1015", 3055, "NPITM03", "AGITATION/AGRESSION PRESENT", "NPI", "AGITATION/AGRESSION", "ABSENT", "", "0", 0, "", "", "", "", "", 5.0, "WEEK 4", 28, "TREATMENT", "2014-01-30", 29], ["CDISCPILOT01", "QS", "01-701-1015", 3056, "NPITM03S", "AGITATION/AGRESSION Score", "NPI", "AGITATION/AGRESSION", "0", "", "0", 0, "", "", "", "", "Y", 5.0, "WEEK 4", 28, "TREATMENT", "2014-01-30", 29], ["CDISCPILOT01", "QS", "01-701-1015", 3080, "NPITM03", "AGITATION/AGRESSION PRESENT", "NPI", "AGITATION/AGRESSION", "ABSENT", "", "0", 0, "", "", "", "", "", 7.0, "WEEK 6", 42, "TREATMENT", "2014-02-12", 42], ["CDISCPILOT01", "QS", "01-701-1015", 3081, "NPITM03S", "AGITATION/AGRESSION Score", "NPI", "AGITATION/AGRESSION", "0", "", "0", 0, "", "", "", "", "Y", 7.0, "WEEK 6", 42, "TREATMENT", "2014-02-12", 42], ["CDISCPILOT01", "QS", "01-701-1015", 3105, "NPITM03", "AGITATION/AGRESSION PRESENT", "NPI", "AGITATION/AGRESSION", "ABSENT", "", "0", 0, "", "", "", "", "", 8.0, "WEEK 8", 56, "TREATMENT", "2014-03-05", 63], ["CDISCPILOT01", "QS", "01-701-1015", 3106, "NPITM03S", "AGITATION/AGRESSION Score", "NPI", "AGITATION/AGRESSION", "0", "", "0", 0, "", "", "", "", "Y", 8.0, "WEEK 8", 56, "TREATMENT", "2014-03-05", 63], ["CDISCPILOT01", "QS", "01-701-1015", 3130, "NPITM03", "AGITATION/AGRESSION PRESENT", "NPI", "AGITATION/AGRESSION", "ABSENT", "", "0", 0, "", "", "", "", "", 9.0, "WEEK 12", 84, "TREATMENT", "2014-03-26", 84], ["CDISCPILOT01", "QS", "01-701-1015", 3131, "NPITM03S", "AGITATION/AGRESSION Score", "NPI", "AGITATION/AGRESSION", "0", "", "0", 0, "", "", "", "", "Y", 9.0, "WEEK 12", 84, "TREATMENT", "2014-03-26", 84], ["CDISCPILOT01", "QS", "01-701-1015", 3155, "NPITM03", "AGITATION/AGRESSION PRESENT", "NPI", "AGITATION/AGRESSION", "ABSENT", "", "0", 0, "", "", "", "", "", 9.1, "WEEK 14 (T)", 98, "TREATMENT", "2014-04-09", 98], ["CDISCPILOT01", "QS", "01-701-1015", 3156, "NPITM03S", "AGITATION/AGRESSION Score", "NPI", "AGITATION/AGRESSION", "0", "", "0", 0, "", "", "", "", "Y", 9.1, "WEEK 14 (T)", 98, "TREATMENT", "2014-04-09", 98], ["CDISCPILOT01", "QS", "01-701-1015", 3180, "NPITM03", "AGITATION/AGRESSION PRESENT", "NPI", "AGITATION/AGRESSION", "ABSENT", "", "0", 0, "", "", "", "", "", 10.0, "WEEK 16", 112, "TREATMENT", "2014-05-07", 126], ["CDISCPILOT01", "QS", "01-701-1015", 3181, "NPITM03S", "AGITATION/AGRESSION Score", "NPI", "AGITATION/AGRESSION", "0", "", "0", 0, "", "", "", "", "Y", 10.0, "WEEK 16", 112, "TREATMENT", "2014-05-07", 126], ["CDISCPILOT01", "QS", "01-701-1015", 3205, "NPITM03", "AGITATION/AGRESSION PRESENT", "NPI", "AGITATION/AGRESSION", "ABSENT", "", "0", 0, "", "", "", "", "", 11.0, "WEEK 20", 140, "TREATMENT", "2014-05-21", 140], ["CDISCPILOT01", "QS", "01-701-1015", 3206, "NPITM03S", "AGITATION/AGRESSION Score", "NPI", "AGITATION/AGRESSION", "0", "", "0", 0, "", "", "", "", "Y", 11.0, "WEEK 20", 140, "TREATMENT", "2014-05-21", 140], ["CDISCPILOT01", "QS", "01-701-1015", 3230, "NPITM03", "AGITATION/AGRESSION PRESENT", "NPI", "AGITATION/AGRESSION", "ABSENT", "", "0", 0, "", "", "", "", "", 11.1, "WEEK 22 (T)", 154, "TREATMENT", "2014-06-04", 154], ["CDISCPILOT01", "QS", "01-701-1015", 3231, "NPITM03S", "AGITATION/AGRESSION Score", "NPI", "AGITATION/AGRESSION", "0", "", "0", 0, "", "", "", "", "Y", 11.1, "WEEK 22 (T)", 154, "TREATMENT", "2014-06-04", 154], ["CDISCPILOT01", "QS", "01-701-1015", 3255, "NPITM03", "AGITATION/AGRESSION PRESENT", "NPI", "AGITATION/AGRESSION", "ABSENT", "", "0", 0, "", "", "", "", "", 12.0, "WEEK 24", 168, "TREATMENT", "2014-06-18", 168], ["CDISCPILOT01", "QS", "01-701-1015", 3256, "NPITM03S", "AGITATION/AGRESSION Score", "NPI", "AGITATION/AGRESSION", "0", "", "0", 0, "", "", "", "", "Y", 12.0, "WEEK 24", 168, "TREATMENT", "2014-06-18", 168], ["CDISCPILOT01", "QS", "01-701-1015", 3280, "NPITM03", "AGITATION/AGRESSION PRESENT", "NPI", "AGITATION/AGRESSION", "ABSENT", "", "0", 0, "", "", "", "", "", 13.0, "WEEK 26", 182, "TREATMENT", "2014-07-02", 182], ["CDISCPILOT01", "QS", "01-701-1015", 3281, "NPITM03S", "AGITATION/AGRESSION Score", "NPI", "AGITATION/AGRESSION", "0", "", "0", 0, "", "", "", "", "Y", 13.0, "WEEK 26", 182, "TREATMENT", "2014-07-02", 182], ["CDISCPILOT01", "QS", "01-701-1015", 3007, "NPITM04", "DEPRESSION/DYSPHORIA PRESENT", "NPI", "DEPRESSION/DYSPHORIA", "ABSENT", "", "0", 0, "", "", "", "Y", "", 3.0, "BASELINE", 1, "TREATMENT", "2014-01-02", 1], ["CDISCPILOT01", "QS", "01-701-1015", 3008, "NPITM04S", "DEPRESSION/DYSPHORIA Score", "NPI", "DEPRESSION/DYSPHORIA", "0", "", "0", 0, "", "", "", "Y", "Y", 3.0, "BASELINE", 1, "TREATMENT", "2014-01-02", 1], ["CDISCPILOT01", "QS", "01-701-1015", 3032, "NPITM04", "DEPRESSION/DYSPHORIA PRESENT", "NPI", "DEPRESSION/DYSPHORIA", "ABSENT", "", "0", 0, "", "", "", "", "", 4.0, "WEEK 2", 14, "TREATMENT", "2014-01-16", 15], ["CDISCPILOT01", "QS", "01-701-1015", 3033, "NPITM04S", "DEPRESSION/DYSPHORIA Score", "NPI", "DEPRESSION/DYSPHORIA", "0", "", "0", 0, "", "", "", "", "Y", 4.0, "WEEK 2", 14, "TREATMENT", "2014-01-16", 15], ["CDISCPILOT01", "QS", "01-701-1015", 3057, "NPITM04", "DEPRESSION/DYSPHORIA PRESENT", "NPI", "DEPRESSION/DYSPHORIA", "ABSENT", "", "0", 0, "", "", "", "", "", 5.0, "WEEK 4", 28, "TREATMENT", "2014-01-30", 29], ["CDISCPILOT01", "QS", "01-701-1015", 3058, "NPITM04S", "DEPRESSION/DYSPHORIA Score", "NPI", "DEPRESSION/DYSPHORIA", "0", "", "0", 0, "", "", "", "", "Y", 5.0, "WEEK 4", 28, "TREATMENT", "2014-01-30", 29], ["CDISCPILOT01", "QS", "01-701-1015", 3082, "NPITM04", "DEPRESSION/DYSPHORIA PRESENT", "NPI", "DEPRESSION/DYSPHORIA", "ABSENT", "", "0", 0, "", "", "", "", "", 7.0, "WEEK 6", 42, "TREATMENT", "2014-02-12", 42], ["CDISCPILOT01", "QS", "01-701-1015", 3083, "NPITM04S", "DEPRESSION/DYSPHORIA Score", "NPI", "DEPRESSION/DYSPHORIA", "0", "", "0", 0, "", "", "", "", "Y", 7.0, "WEEK 6", 42, "TREATMENT", "2014-02-12", 42], ["CDISCPILOT01", "QS", "01-701-1015", 3107, "NPITM04", "DEPRESSION/DYSPHORIA PRESENT", "NPI", "DEPRESSION/DYSPHORIA", "ABSENT", "", "0", 0, "", "", "", "", "", 8.0, "WEEK 8", 56, "TREATMENT", "2014-03-05", 63], ["CDISCPILOT01", "QS", "01-701-1015", 3108, "NPITM04S", "DEPRESSION/DYSPHORIA Score", "NPI", "DEPRESSION/DYSPHORIA", "0", "", "0", 0, "", "", "", "", "Y", 8.0, "WEEK 8", 56, "TREATMENT", "2014-03-05", 63], ["CDISCPILOT01", "QS", "01-701-1015", 3132, "NPITM04", "DEPRESSION/DYSPHORIA PRESENT", "NPI", "DEPRESSION/DYSPHORIA", "ABSENT", "", "0", 0, "", "", "", "", "", 9.0, "WEEK 12", 84, "TREATMENT", "2014-03-26", 84], ["CDISCPILOT01", "QS", "01-701-1015", 3133, "NPITM04S", "DEPRESSION/DYSPHORIA Score", "NPI", "DEPRESSION/DYSPHORIA", "0", "", "0", 0, "", "", "", "", "Y", 9.0, "WEEK 12", 84, "TREATMENT", "2014-03-26", 84], ["CDISCPILOT01", "QS", "01-701-1015", 3157, "NPITM04", "DEPRESSION/DYSPHORIA PRESENT", "NPI", "DEPRESSION/DYSPHORIA", "ABSENT", "", "0", 0, "", "", "", "", "", 9.1, "WEEK 14 (T)", 98, "TREATMENT", "2014-04-09", 98], ["CDISCPILOT01", "QS", "01-701-1015", 3158, "NPITM04S", "DEPRESSION/DYSPHORIA Score", "NPI", "DEPRESSION/DYSPHORIA", "0", "", "0", 0, "", "", "", "", "Y", 9.1, "WEEK 14 (T)", 98, "TREATMENT", "2014-04-09", 98], ["CDISCPILOT01", "QS", "01-701-1015", 3182, "NPITM04", "DEPRESSION/DYSPHORIA PRESENT", "NPI", "DEPRESSION/DYSPHORIA", "ABSENT", "", "0", 0, "", "", "", "", "", 10.0, "WEEK 16", 112, "TREATMENT", "2014-05-07", 126], ["CDISCPILOT01", "QS", "01-701-1015", 3183, "NPITM04S", "DEPRESSION/DYSPHORIA Score", "NPI", "DEPRESSION/DYSPHORIA", "0", "", "0", 0, "", "", "", "", "Y", 10.0, "WEEK 16", 112, "TREATMENT", "2014-05-07", 126], ["CDISCPILOT01", "QS", "01-701-1015", 3207, "NPITM04", "DEPRESSION/DYSPHORIA PRESENT", "NPI", "DEPRESSION/DYSPHORIA", "ABSENT", "", "0", 0, "", "", "", "", "", 11.0, "WEEK 20", 140, "TREATMENT", "2014-05-21", 140], ["CDISCPILOT01", "QS", "01-701-1015", 3208, "NPITM04S", "DEPRESSION/DYSPHORIA Score", "NPI", "DEPRESSION/DYSPHORIA", "0", "", "0", 0, "", "", "", "", "Y", 11.0, "WEEK 20", 140, "TREATMENT", "2014-05-21", 140], ["CDISCPILOT01", "QS", "01-701-1015", 3232, "NPITM04", "DEPRESSION/DYSPHORIA PRESENT", "NPI", "DEPRESSION/DYSPHORIA", "ABSENT", "", "0", 0, "", "", "", "", "", 11.1, "WEEK 22 (T)", 154, "TREATMENT", "2014-06-04", 154], ["CDISCPILOT01", "QS", "01-701-1015", 3233, "NPITM04S", "DEPRESSION/DYSPHORIA Score", "NPI", "DEPRESSION/DYSPHORIA", "0", "", "0", 0, "", "", "", "", "Y", 11.1, "WEEK 22 (T)", 154, "TREATMENT", "2014-06-04", 154], ["CDISCPILOT01", "QS", "01-701-1015", 3257, "NPITM04", "DEPRESSION/DYSPHORIA PRESENT", "NPI", "DEPRESSION/DYSPHORIA", "ABSENT", "", "0", 0, "", "", "", "", "", 12.0, "WEEK 24", 168, "TREATMENT", "2014-06-18", 168], ["CDISCPILOT01", "QS", "01-701-1015", 3258, "NPITM04S", "DEPRESSION/DYSPHORIA Score", "NPI", "DEPRESSION/DYSPHORIA", "0", "", "0", 0, "", "", "", "", "Y", 12.0, "WEEK 24", 168, "TREATMENT", "2014-06-18", 168], ["CDISCPILOT01", "QS", "01-701-1015", 3282, "NPITM04", "DEPRESSION/DYSPHORIA PRESENT", "NPI", "DEPRESSION/DYSPHORIA", "ABSENT", "", "0", 0, "", "", "", "", "", 13.0, "WEEK 26", 182, "TREATMENT", "2014-07-02", 182], ["CDISCPILOT01", "QS", "01-701-1015", 3283, "NPITM04S", "DEPRESSION/DYSPHORIA Score", "NPI", "DEPRESSION/DYSPHORIA", "0", "", "0", 0, "", "", "", "", "Y", 13.0, "WEEK 26", 182, "TREATMENT", "2014-07-02", 182], ["CDISCPILOT01", "QS", "01-701-1015", 3009, "NPITM05", "ANXIETY PRESENT", "NPI", "ANXIETY", "ABSENT", "", "0", 0, "", "", "", "Y", "", 3.0, "BASELINE", 1, "TREATMENT", "2014-01-02", 1], ["CDISCPILOT01", "QS", "01-701-1015", 3010, "NPITM05S", "ANXIETY Score", "NPI", "ANXIETY", "0", "", "0", 0, "", "", "", "Y", "Y", 3.0, "BASELINE", 1, "TREATMENT", "2014-01-02", 1], ["CDISCPILOT01", "QS", "01-701-1015", 3034, "NPITM05", "ANXIETY PRESENT", "NPI", "ANXIETY", "ABSENT", "", "0", 0, "", "", "", "", "", 4.0, "WEEK 2", 14, "TREATMENT", "2014-01-16", 15], ["CDISCPILOT01", "QS", "01-701-1015", 3035, "NPITM05S", "ANXIETY Score", "NPI", "ANXIETY", "0", "", "0", 0, "", "", "", "", "Y", 4.0, "WEEK 2", 14, "TREATMENT", "2014-01-16", 15], ["CDISCPILOT01", "QS", "01-701-1015", 3059, "NPITM05", "ANXIETY PRESENT", "NPI", "ANXIETY", "ABSENT", "", "0", 0, "", "", "", "", "", 5.0, "WEEK 4", 28, "TREATMENT", "2014-01-30", 29], ["CDISCPILOT01", "QS", "01-701-1015", 3060, "NPITM05S", "ANXIETY Score", "NPI", "ANXIETY", "0", "", "0", 0, "", "", "", "", "Y", 5.0, "WEEK 4", 28, "TREATMENT", "2014-01-30", 29], ["CDISCPILOT01", "QS", "01-701-1015", 3084, "NPITM05", "ANXIETY PRESENT", "NPI", "ANXIETY", "ABSENT", "", "0", 0, "", "", "", "", "", 7.0, "WEEK 6", 42, "TREATMENT", "2014-02-12", 42], ["CDISCPILOT01", "QS", "01-701-1015", 3085, "NPITM05S", "ANXIETY Score", "NPI", "ANXIETY", "0", "", "0", 0, "", "", "", "", "Y", 7.0, "WEEK 6", 42, "TREATMENT", "2014-02-12", 42], ["CDISCPILOT01", "QS", "01-701-1015", 3109, "NPITM05", "ANXIETY PRESENT", "NPI", "ANXIETY", "ABSENT", "", "0", 0, "", "", "", "", "", 8.0, "WEEK 8", 56, "TREATMENT", "2014-03-05", 63], ["CDISCPILOT01", "QS", "01-701-1015", 3110, "NPITM05S", "ANXIETY Score", "NPI", "ANXIETY", "0", "", "0", 0, "", "", "", "", "Y", 8.0, "WEEK 8", 56, "TREATMENT", "2014-03-05", 63], ["CDISCPILOT01", "QS", "01-701-1015", 3134, "NPITM05", "ANXIETY PRESENT", "NPI", "ANXIETY", "ABSENT", "", "0", 0, "", "", "", "", "", 9.0, "WEEK 12", 84, "TREATMENT", "2014-03-26", 84], ["CDISCPILOT01", "QS", "01-701-1015", 3135, "NPITM05S", "ANXIETY Score", "NPI", "ANXIETY", "0", "", "0", 0, "", "", "", "", "Y", 9.0, "WEEK 12", 84, "TREATMENT", "2014-03-26", 84], ["CDISCPILOT01", "QS", "01-701-1015", 3159, "NPITM05", "ANXIETY PRESENT", "NPI", "ANXIETY", "ABSENT", "", "0", 0, "", "", "", "", "", 9.1, "WEEK 14 (T)", 98, "TREATMENT", "2014-04-09", 98], ["CDISCPILOT01", "QS", "01-701-1015", 3160, "NPITM05S", "ANXIETY Score", "NPI", "ANXIETY", "0", "", "0", 0, "", "", "", "", "Y", 9.1, "WEEK 14 (T)", 98, "TREATMENT", "2014-04-09", 98], ["CDISCPILOT01", "QS", "01-701-1015", 3184, "NPITM05", "ANXIETY PRESENT", "NPI", "ANXIETY", "ABSENT", "", "0", 0, "", "", "", "", "", 10.0, "WEEK 16", 112, "TREATMENT", "2014-05-07", 126], ["CDISCPILOT01", "QS", "01-701-1015", 3185, "NPITM05S", "ANXIETY Score", "NPI", "ANXIETY", "0", "", "0", 0, "", "", "", "", "Y", 10.0, "WEEK 16", 112, "TREATMENT", "2014-05-07", 126], ["CDISCPILOT01", "QS", "01-701-1015", 3209, "NPITM05", "ANXIETY PRESENT", "NPI", "ANXIETY", "ABSENT", "", "0", 0, "", "", "", "", "", 11.0, "WEEK 20", 140, "TREATMENT", "2014-05-21", 140], ["CDISCPILOT01", "QS", "01-701-1015", 3210, "NPITM05S", "ANXIETY Score", "NPI", "ANXIETY", "0", "", "0", 0, "", "", "", "", "Y", 11.0, "WEEK 20", 140, "TREATMENT", "2014-05-21", 140], ["CDISCPILOT01", "QS", "01-701-1015", 3234, "NPITM05", "ANXIETY PRESENT", "NPI", "ANXIETY", "ABSENT", "", "0", 0, "", "", "", "", "", 11.1, "WEEK 22 (T)", 154, "TREATMENT", "2014-06-04", 154], ["CDISCPILOT01", "QS", "01-701-1015", 3235, "NPITM05S", "ANXIETY Score", "NPI", "ANXIETY", "0", "", "0", 0, "", "", "", "", "Y", 11.1, "WEEK 22 (T)", 154, "TREATMENT", "2014-06-04", 154], ["CDISCPILOT01", "QS", "01-701-1015", 3259, "NPITM05", "ANXIETY PRESENT", "NPI", "ANXIETY", "ABSENT", "", "0", 0, "", "", "", "", "", 12.0, "WEEK 24", 168, "TREATMENT", "2014-06-18", 168], ["CDISCPILOT01", "QS", "01-701-1015", 3260, "NPITM05S", "ANXIETY Score", "NPI", "ANXIETY", "0", "", "0", 0, "", "", "", "", "Y", 12.0, "WEEK 24", 168, "TREATMENT", "2014-06-18", 168], ["CDISCPILOT01", "QS", "01-701-1015", 3284, "NPITM05", "ANXIETY PRESENT", "NPI", "ANXIETY", "ABSENT", "", "0", 0, "", "", "", "", "", 13.0, "WEEK 26", 182, "TREATMENT", "2014-07-02", 182], ["CDISCPILOT01", "QS", "01-701-1015", 3285, "NPITM05S", "ANXIETY Score", "NPI", "ANXIETY", "0", "", "0", 0, "", "", "", "", "Y", 13.0, "WEEK 26", 182, "TREATMENT", "2014-07-02", 182], ["CDISCPILOT01", "QS", "01-701-1015", 3011, "NPITM06", "EUPHORIA/ELATION PRESENT", "NPI", "EUPHORIA/ELATION", "ABSENT", "", "0", 0, "", "", "", "Y", "", 3.0, "BASELINE", 1, "TREATMENT", "2014-01-02", 1], ["CDISCPILOT01", "QS", "01-701-1015", 3012, "NPITM06S", "EUPHORIA/ELATION Score", "NPI", "EUPHORIA/ELATION", "0", "", "0", 0, "", "", "", "Y", "Y", 3.0, "BASELINE", 1, "TREATMENT", "2014-01-02", 1], ["CDISCPILOT01", "QS", "01-701-1015", 3036, "NPITM06", "EUPHORIA/ELATION PRESENT", "NPI", "EUPHORIA/ELATION", "ABSENT", "", "0", 0, "", "", "", "", "", 4.0, "WEEK 2", 14, "TREATMENT", "2014-01-16", 15], ["CDISCPILOT01", "QS", "01-701-1015", 3037, "NPITM06S", "EUPHORIA/ELATION Score", "NPI", "EUPHORIA/ELATION", "0", "", "0", 0, "", "", "", "", "Y", 4.0, "WEEK 2", 14, "TREATMENT", "2014-01-16", 15], ["CDISCPILOT01", "QS", "01-701-1015", 3061, "NPITM06", "EUPHORIA/ELATION PRESENT", "NPI", "EUPHORIA/ELATION", "ABSENT", "", "0", 0, "", "", "", "", "", 5.0, "WEEK 4", 28, "TREATMENT", "2014-01-30", 29], ["CDISCPILOT01", "QS", "01-701-1015", 3062, "NPITM06S", "EUPHORIA/ELATION Score", "NPI", "EUPHORIA/ELATION", "0", "", "0", 0, "", "", "", "", "Y", 5.0, "WEEK 4", 28, "TREATMENT", "2014-01-30", 29], ["CDISCPILOT01", "QS", "01-701-1015", 3086, "NPITM06", "EUPHORIA/ELATION PRESENT", "NPI", "EUPHORIA/ELATION", "ABSENT", "", "0", 0, "", "", "", "", "", 7.0, "WEEK 6", 42, "TREATMENT", "2014-02-12", 42], ["CDISCPILOT01", "QS", "01-701-1015", 3087, "NPITM06S", "EUPHORIA/ELATION Score", "NPI", "EUPHORIA/ELATION", "0", "", "0", 0, "", "", "", "", "Y", 7.0, "WEEK 6", 42, "TREATMENT", "2014-02-12", 42], ["CDISCPILOT01", "QS", "01-701-1015", 3111, "NPITM06", "EUPHORIA/ELATION PRESENT", "NPI", "EUPHORIA/ELATION", "ABSENT", "", "0", 0, "", "", "", "", "", 8.0, "WEEK 8", 56, "TREATMENT", "2014-03-05", 63], ["CDISCPILOT01", "QS", "01-701-1015", 3112, "NPITM06S", "EUPHORIA/ELATION Score", "NPI", "EUPHORIA/ELATION", "0", "", "0", 0, "", "", "", "", "Y", 8.0, "WEEK 8", 56, "TREATMENT", "2014-03-05", 63], ["CDISCPILOT01", "QS", "01-701-1015", 3136, "NPITM06", "EUPHORIA/ELATION PRESENT", "NPI", "EUPHORIA/ELATION", "ABSENT", "", "0", 0, "", "", "", "", "", 9.0, "WEEK 12", 84, "TREATMENT", "2014-03-26", 84], ["CDISCPILOT01", "QS", "01-701-1015", 3137, "NPITM06S", "EUPHORIA/ELATION Score", "NPI", "EUPHORIA/ELATION", "0", "", "0", 0, "", "", "", "", "Y", 9.0, "WEEK 12", 84, "TREATMENT", "2014-03-26", 84], ["CDISCPILOT01", "QS", "01-701-1015", 3161, "NPITM06", "EUPHORIA/ELATION PRESENT", "NPI", "EUPHORIA/ELATION", "ABSENT", "", "0", 0, "", "", "", "", "", 9.1, "WEEK 14 (T)", 98, "TREATMENT", "2014-04-09", 98], ["CDISCPILOT01", "QS", "01-701-1015", 3162, "NPITM06S", "EUPHORIA/ELATION Score", "NPI", "EUPHORIA/ELATION", "0", "", "0", 0, "", "", "", "", "Y", 9.1, "WEEK 14 (T)", 98, "TREATMENT", "2014-04-09", 98], ["CDISCPILOT01", "QS", "01-701-1015", 3186, "NPITM06", "EUPHORIA/ELATION PRESENT", "NPI", "EUPHORIA/ELATION", "ABSENT", "", "0", 0, "", "", "", "", "", 10.0, "WEEK 16", 112, "TREATMENT", "2014-05-07", 126], ["CDISCPILOT01", "QS", "01-701-1015", 3187, "NPITM06S", "EUPHORIA/ELATION Score", "NPI", "EUPHORIA/ELATION", "0", "", "0", 0, "", "", "", "", "Y", 10.0, "WEEK 16", 112, "TREATMENT", "2014-05-07", 126], ["CDISCPILOT01", "QS", "01-701-1015", 3211, "NPITM06", "EUPHORIA/ELATION PRESENT", "NPI", "EUPHORIA/ELATION", "ABSENT", "", "0", 0, "", "", "", "", "", 11.0, "WEEK 20", 140, "TREATMENT", "2014-05-21", 140], ["CDISCPILOT01", "QS", "01-701-1015", 3212, "NPITM06S", "EUPHORIA/ELATION Score", "NPI", "EUPHORIA/ELATION", "0", "", "0", 0, "", "", "", "", "Y", 11.0, "WEEK 20", 140, "TREATMENT", "2014-05-21", 140], ["CDISCPILOT01", "QS", "01-701-1015", 3236, "NPITM06", "EUPHORIA/ELATION PRESENT", "NPI", "EUPHORIA/ELATION", "ABSENT", "", "0", 0, "", "", "", "", "", 11.1, "WEEK 22 (T)", 154, "TREATMENT", "2014-06-04", 154], ["CDISCPILOT01", "QS", "01-701-1015", 3237, "NPITM06S", "EUPHORIA/ELATION Score", "NPI", "EUPHORIA/ELATION", "0", "", "0", 0, "", "", "", "", "Y", 11.1, "WEEK 22 (T)", 154, "TREATMENT", "2014-06-04", 154], ["CDISCPILOT01", "QS", "01-701-1015", 3261, "NPITM06", "EUPHORIA/ELATION PRESENT", "NPI", "EUPHORIA/ELATION", "ABSENT", "", "0", 0, "", "", "", "", "", 12.0, "WEEK 24", 168, "TREATMENT", "2014-06-18", 168], ["CDISCPILOT01", "QS", "01-701-1015", 3262, "NPITM06S", "EUPHORIA/ELATION Score", "NPI", "EUPHORIA/ELATION", "0", "", "0", 0, "", "", "", "", "Y", 12.0, "WEEK 24", 168, "TREATMENT", "2014-06-18", 168], ["CDISCPILOT01", "QS", "01-701-1015", 3286, "NPITM06", "EUPHORIA/ELATION PRESENT", "NPI", "EUPHORIA/ELATION", "ABSENT", "", "0", 0, "", "", "", "", "", 13.0, "WEEK 26", 182, "TREATMENT", "2014-07-02", 182], ["CDISCPILOT01", "QS", "01-701-1015", 3287, "NPITM06S", "EUPHORIA/ELATION Score", "NPI", "EUPHORIA/ELATION", "0", "", "0", 0, "", "", "", "", "Y", 13.0, "WEEK 26", 182, "TREATMENT", "2014-07-02", 182], ["CDISCPILOT01", "QS", "01-701-1015", 3013, "NPITM07", "APATHY/INDIFFERENCE PRESENT", "NPI", "APATHY/INDIFFERENCE", "ABSENT", "", "0", 0, "", "", "", "Y", "", 3.0, "BASELINE", 1, "TREATMENT", "2014-01-02", 1], ["CDISCPILOT01", "QS", "01-701-1015", 3014, "NPITM07S", "APATHY/INDIFFERENCE Score", "NPI", "APATHY/INDIFFERENCE", "0", "", "0", 0, "", "", "", "Y", "Y", 3.0, "BASELINE", 1, "TREATMENT", "2014-01-02", 1], ["CDISCPILOT01", "QS", "01-701-1015", 3038, "NPITM07", "APATHY/INDIFFERENCE PRESENT", "NPI", "APATHY/INDIFFERENCE", "ABSENT", "", "0", 0, "", "", "", "", "", 4.0, "WEEK 2", 14, "TREATMENT", "2014-01-16", 15], ["CDISCPILOT01", "QS", "01-701-1015", 3039, "NPITM07S", "APATHY/INDIFFERENCE Score", "NPI", "APATHY/INDIFFERENCE", "0", "", "0", 0, "", "", "", "", "Y", 4.0, "WEEK 2", 14, "TREATMENT", "2014-01-16", 15], ["CDISCPILOT01", "QS", "01-701-1015", 3063, "NPITM07", "APATHY/INDIFFERENCE PRESENT", "NPI", "APATHY/INDIFFERENCE", "ABSENT", "", "0", 0, "", "", "", "", "", 5.0, "WEEK 4", 28, "TREATMENT", "2014-01-30", 29], ["CDISCPILOT01", "QS", "01-701-1015", 3064, "NPITM07S", "APATHY/INDIFFERENCE Score", "NPI", "APATHY/INDIFFERENCE", "0", "", "0", 0, "", "", "", "", "Y", 5.0, "WEEK 4", 28, "TREATMENT", "2014-01-30", 29], ["CDISCPILOT01", "QS", "01-701-1015", 3088, "NPITM07", "APATHY/INDIFFERENCE PRESENT", "NPI", "APATHY/INDIFFERENCE", "ABSENT", "", "0", 0, "", "", "", "", "", 7.0, "WEEK 6", 42, "TREATMENT", "2014-02-12", 42], ["CDISCPILOT01", "QS", "01-701-1015", 3089, "NPITM07S", "APATHY/INDIFFERENCE Score", "NPI", "APATHY/INDIFFERENCE", "0", "", "0", 0, "", "", "", "", "Y", 7.0, "WEEK 6", 42, "TREATMENT", "2014-02-12", 42], ["CDISCPILOT01", "QS", "01-701-1015", 3113, "NPITM07", "APATHY/INDIFFERENCE PRESENT", "NPI", "APATHY/INDIFFERENCE", "ABSENT", "", "0", 0, "", "", "", "", "", 8.0, "WEEK 8", 56, "TREATMENT", "2014-03-05", 63], ["CDISCPILOT01", "QS", "01-701-1015", 3114, "NPITM07S", "APATHY/INDIFFERENCE Score", "NPI", "APATHY/INDIFFERENCE", "0", "", "0", 0, "", "", "", "", "Y", 8.0, "WEEK 8", 56, "TREATMENT", "2014-03-05", 63], ["CDISCPILOT01", "QS", "01-701-1015", 3138, "NPITM07", "APATHY/INDIFFERENCE PRESENT", "NPI", "APATHY/INDIFFERENCE", "ABSENT", "", "0", 0, "", "", "", "", "", 9.0, "WEEK 12", 84, "TREATMENT", "2014-03-26", 84], ["CDISCPILOT01", "QS", "01-701-1015", 3139, "NPITM07S", "APATHY/INDIFFERENCE Score", "NPI", "APATHY/INDIFFERENCE", "0", "", "0", 0, "", "", "", "", "Y", 9.0, "WEEK 12", 84, "TREATMENT", "2014-03-26", 84], ["CDISCPILOT01", "QS", "01-701-1015", 3163, "NPITM07", "APATHY/INDIFFERENCE PRESENT", "NPI", "APATHY/INDIFFERENCE", "ABSENT", "", "0", 0, "", "", "", "", "", 9.1, "WEEK 14 (T)", 98, "TREATMENT", "2014-04-09", 98], ["CDISCPILOT01", "QS", "01-701-1015", 3164, "NPITM07S", "APATHY/INDIFFERENCE Score", "NPI", "APATHY/INDIFFERENCE", "0", "", "0", 0, "", "", "", "", "Y", 9.1, "WEEK 14 (T)", 98, "TREATMENT", "2014-04-09", 98], ["CDISCPILOT01", "QS", "01-701-1015", 3188, "NPITM07", "APATHY/INDIFFERENCE PRESENT", "NPI", "APATHY/INDIFFERENCE", "ABSENT", "", "0", 0, "", "", "", "", "", 10.0, "WEEK 16", 112, "TREATMENT", "2014-05-07", 126], ["CDISCPILOT01", "QS", "01-701-1015", 3189, "NPITM07S", "APATHY/INDIFFERENCE Score", "NPI", "APATHY/INDIFFERENCE", "0", "", "0", 0, "", "", "", "", "Y", 10.0, "WEEK 16", 112, "TREATMENT", "2014-05-07", 126], ["CDISCPILOT01", "QS", "01-701-1015", 3213, "NPITM07", "APATHY/INDIFFERENCE PRESENT", "NPI", "APATHY/INDIFFERENCE", "ABSENT", "", "0", 0, "", "", "", "", "", 11.0, "WEEK 20", 140, "TREATMENT", "2014-05-21", 140], ["CDISCPILOT01", "QS", "01-701-1015", 3214, "NPITM07S", "APATHY/INDIFFERENCE Score", "NPI", "APATHY/INDIFFERENCE", "0", "", "0", 0, "", "", "", "", "Y", 11.0, "WEEK 20", 140, "TREATMENT", "2014-05-21", 140], ["CDISCPILOT01", "QS", "01-701-1015", 3238, "NPITM07", "APATHY/INDIFFERENCE PRESENT", "NPI", "APATHY/INDIFFERENCE", "ABSENT", "", "0", 0, "", "", "", "", "", 11.1, "WEEK 22 (T)", 154, "TREATMENT", "2014-06-04", 154], ["CDISCPILOT01", "QS", "01-701-1015", 3239, "NPITM07S", "APATHY/INDIFFERENCE Score", "NPI", "APATHY/INDIFFERENCE", "0", "", "0", 0, "", "", "", "", "Y", 11.1, "WEEK 22 (T)", 154, "TREATMENT", "2014-06-04", 154], ["CDISCPILOT01", "QS", "01-701-1015", 3263, "NPITM07", "APATHY/INDIFFERENCE PRESENT", "NPI", "APATHY/INDIFFERENCE", "ABSENT", "", "0", 0, "", "", "", "", "", 12.0, "WEEK 24", 168, "TREATMENT", "2014-06-18", 168], ["CDISCPILOT01", "QS", "01-701-1015", 3264, "NPITM07S", "APATHY/INDIFFERENCE Score", "NPI", "APATHY/INDIFFERENCE", "0", "", "0", 0, "", "", "", "", "Y", 12.0, "WEEK 24", 168, "TREATMENT", "2014-06-18", 168], ["CDISCPILOT01", "QS", "01-701-1015", 3288, "NPITM07", "APATHY/INDIFFERENCE PRESENT", "NPI", "APATHY/INDIFFERENCE", "ABSENT", "", "0", 0, "", "", "", "", "", 13.0, "WEEK 26", 182, "TREATMENT", "2014-07-02", 182], ["CDISCPILOT01", "QS", "01-701-1015", 3289, "NPITM07S", "APATHY/INDIFFERENCE Score", "NPI", "APATHY/INDIFFERENCE", "0", "", "0", 0, "", "", "", "", "Y", 13.0, "WEEK 26", 182, "TREATMENT", "2014-07-02", 182], ["CDISCPILOT01", "QS", "01-701-1015", 3015, "NPITM08", "DISINHIBITION PRESENT", "NPI", "DISINHIBITION", "ABSENT", "", "0", 0, "", "", "", "Y", "", 3.0, "BASELINE", 1, "TREATMENT", "2014-01-02", 1], ["CDISCPILOT01", "QS", "01-701-1015", 3016, "NPITM08S", "DISINHIBITION Score", "NPI", "DISINHIBITION", "0", "", "0", 0, "", "", "", "Y", "Y", 3.0, "BASELINE", 1, "TREATMENT", "2014-01-02", 1], ["CDISCPILOT01", "QS", "01-701-1015", 3040, "NPITM08", "DISINHIBITION PRESENT", "NPI", "DISINHIBITION", "ABSENT", "", "0", 0, "", "", "", "", "", 4.0, "WEEK 2", 14, "TREATMENT", "2014-01-16", 15], ["CDISCPILOT01", "QS", "01-701-1015", 3041, "NPITM08S", "DISINHIBITION Score", "NPI", "DISINHIBITION", "0", "", "0", 0, "", "", "", "", "Y", 4.0, "WEEK 2", 14, "TREATMENT", "2014-01-16", 15], ["CDISCPILOT01", "QS", "01-701-1015", 3065, "NPITM08", "DISINHIBITION PRESENT", "NPI", "DISINHIBITION", "ABSENT", "", "0", 0, "", "", "", "", "", 5.0, "WEEK 4", 28, "TREATMENT", "2014-01-30", 29], ["CDISCPILOT01", "QS", "01-701-1015", 3066, "NPITM08S", "DISINHIBITION Score", "NPI", "DISINHIBITION", "0", "", "0", 0, "", "", "", "", "Y", 5.0, "WEEK 4", 28, "TREATMENT", "2014-01-30", 29], ["CDISCPILOT01", "QS", "01-701-1015", 3090, "NPITM08", "DISINHIBITION PRESENT", "NPI", "DISINHIBITION", "ABSENT", "", "0", 0, "", "", "", "", "", 7.0, "WEEK 6", 42, "TREATMENT", "2014-02-12", 42], ["CDISCPILOT01", "QS", "01-701-1015", 3091, "NPITM08S", "DISINHIBITION Score", "NPI", "DISINHIBITION", "0", "", "0", 0, "", "", "", "", "Y", 7.0, "WEEK 6", 42, "TREATMENT", "2014-02-12", 42], ["CDISCPILOT01", "QS", "01-701-1015", 3115, "NPITM08", "DISINHIBITION PRESENT", "NPI", "DISINHIBITION", "ABSENT", "", "0", 0, "", "", "", "", "", 8.0, "WEEK 8", 56, "TREATMENT", "2014-03-05", 63], ["CDISCPILOT01", "QS", "01-701-1015", 3116, "NPITM08S", "DISINHIBITION Score", "NPI", "DISINHIBITION", "0", "", "0", 0, "", "", "", "", "Y", 8.0, "WEEK 8", 56, "TREATMENT", "2014-03-05", 63], ["CDISCPILOT01", "QS", "01-701-1015", 3140, "NPITM08", "DISINHIBITION PRESENT", "NPI", "DISINHIBITION", "ABSENT", "", "0", 0, "", "", "", "", "", 9.0, "WEEK 12", 84, "TREATMENT", "2014-03-26", 84], ["CDISCPILOT01", "QS", "01-701-1015", 3141, "NPITM08S", "DISINHIBITION Score", "NPI", "DISINHIBITION", "0", "", "0", 0, "", "", "", "", "Y", 9.0, "WEEK 12", 84, "TREATMENT", "2014-03-26", 84], ["CDISCPILOT01", "QS", "01-701-1015", 3165, "NPITM08", "DISINHIBITION PRESENT", "NPI", "DISINHIBITION", "ABSENT", "", "0", 0, "", "", "", "", "", 9.1, "WEEK 14 (T)", 98, "TREATMENT", "2014-04-09", 98], ["CDISCPILOT01", "QS", "01-701-1015", 3166, "NPITM08S", "DISINHIBITION Score", "NPI", "DISINHIBITION", "0", "", "0", 0, "", "", "", "", "Y", 9.1, "WEEK 14 (T)", 98, "TREATMENT", "2014-04-09", 98], ["CDISCPILOT01", "QS", "01-701-1015", 3190, "NPITM08", "DISINHIBITION PRESENT", "NPI", "DISINHIBITION", "ABSENT", "", "0", 0, "", "", "", "", "", 10.0, "WEEK 16", 112, "TREATMENT", "2014-05-07", 126], ["CDISCPILOT01", "QS", "01-701-1015", 3191, "NPITM08S", "DISINHIBITION Score", "NPI", "DISINHIBITION", "0", "", "0", 0, "", "", "", "", "Y", 10.0, "WEEK 16", 112, "TREATMENT", "2014-05-07", 126], ["CDISCPILOT01", "QS", "01-701-1015", 3215, "NPITM08", "DISINHIBITION PRESENT", "NPI", "DISINHIBITION", "ABSENT", "", "0", 0, "", "", "", "", "", 11.0, "WEEK 20", 140, "TREATMENT", "2014-05-21", 140], ["CDISCPILOT01", "QS", "01-701-1015", 3216, "NPITM08S", "DISINHIBITION Score", "NPI", "DISINHIBITION", "0", "", "0", 0, "", "", "", "", "Y", 11.0, "WEEK 20", 140, "TREATMENT", "2014-05-21", 140], ["CDISCPILOT01", "QS", "01-701-1015", 3240, "NPITM08", "DISINHIBITION PRESENT", "NPI", "DISINHIBITION", "ABSENT", "", "0", 0, "", "", "", "", "", 11.1, "WEEK 22 (T)", 154, "TREATMENT", "2014-06-04", 154], ["CDISCPILOT01", "QS", "01-701-1015", 3241, "NPITM08S", "DISINHIBITION Score", "NPI", "DISINHIBITION", "0", "", "0", 0, "", "", "", "", "Y", 11.1, "WEEK 22 (T)", 154, "TREATMENT", "2014-06-04", 154], ["CDISCPILOT01", "QS", "01-701-1015", 3265, "NPITM08", "DISINHIBITION PRESENT", "NPI", "DISINHIBITION", "ABSENT", "", "0", 0, "", "", "", "", "", 12.0, "WEEK 24", 168, "TREATMENT", "2014-06-18", 168], ["CDISCPILOT01", "QS", "01-701-1015", 3266, "NPITM08S", "DISINHIBITION Score", "NPI", "DISINHIBITION", "0", "", "0", 0, "", "", "", "", "Y", 12.0, "WEEK 24", 168, "TREATMENT", "2014-06-18", 168], ["CDISCPILOT01", "QS", "01-701-1015", 3290, "NPITM08", "DISINHIBITION PRESENT", "NPI", "DISINHIBITION", "ABSENT", "", "0", 0, "", "", "", "", "", 13.0, "WEEK 26", 182, "TREATMENT", "2014-07-02", 182], ["CDISCPILOT01", "QS", "01-701-1015", 3291, "NPITM08S", "DISINHIBITION Score", "NPI", "DISINHIBITION", "0", "", "0", 0, "", "", "", "", "Y", 13.0, "WEEK 26", 182, "TREATMENT", "2014-07-02", 182], ["CDISCPILOT01", "QS", "01-701-1015", 3017, "NPITM09", "IRRITABILITY/LABILITY PRESENT", "NPI", "IRRITABILITY/LABILITY", "ABSENT", "", "0", 0, "", "", "", "Y", "", 3.0, "BASELINE", 1, "TREATMENT", "2014-01-02", 1], ["CDISCPILOT01", "QS", "01-701-1015", 3018, "NPITM09S", "IRRITABILITY/LABILITY Score", "NPI", "IRRITABILITY/LABILITY", "0", "", "0", 0, "", "", "", "Y", "Y", 3.0, "BASELINE", 1, "TREATMENT", "2014-01-02", 1], ["CDISCPILOT01", "QS", "01-701-1015", 3042, "NPITM09", "IRRITABILITY/LABILITY PRESENT", "NPI", "IRRITABILITY/LABILITY", "ABSENT", "", "0", 0, "", "", "", "", "", 4.0, "WEEK 2", 14, "TREATMENT", "2014-01-16", 15], ["CDISCPILOT01", "QS", "01-701-1015", 3043, "NPITM09S", "IRRITABILITY/LABILITY Score", "NPI", "IRRITABILITY/LABILITY", "0", "", "0", 0, "", "", "", "", "Y", 4.0, "WEEK 2", 14, "TREATMENT", "2014-01-16", 15], ["CDISCPILOT01", "QS", "01-701-1015", 3067, "NPITM09", "IRRITABILITY/LABILITY PRESENT", "NPI", "IRRITABILITY/LABILITY", "ABSENT", "", "0", 0, "", "", "", "", "", 5.0, "WEEK 4", 28, "TREATMENT", "2014-01-30", 29], ["CDISCPILOT01", "QS", "01-701-1015", 3068, "NPITM09S", "IRRITABILITY/LABILITY Score", "NPI", "IRRITABILITY/LABILITY", "0", "", "0", 0, "", "", "", "", "Y", 5.0, "WEEK 4", 28, "TREATMENT", "2014-01-30", 29], ["CDISCPILOT01", "QS", "01-701-1015", 3092, "NPITM09", "IRRITABILITY/LABILITY PRESENT", "NPI", "IRRITABILITY/LABILITY", "ABSENT", "", "0", 0, "", "", "", "", "", 7.0, "WEEK 6", 42, "TREATMENT", "2014-02-12", 42], ["CDISCPILOT01", "QS", "01-701-1015", 3093, "NPITM09S", "IRRITABILITY/LABILITY Score", "NPI", "IRRITABILITY/LABILITY", "0", "", "0", 0, "", "", "", "", "Y", 7.0, "WEEK 6", 42, "TREATMENT", "2014-02-12", 42], ["CDISCPILOT01", "QS", "01-701-1015", 3117, "NPITM09", "IRRITABILITY/LABILITY PRESENT", "NPI", "IRRITABILITY/LABILITY", "ABSENT", "", "0", 0, "", "", "", "", "", 8.0, "WEEK 8", 56, "TREATMENT", "2014-03-05", 63], ["CDISCPILOT01", "QS", "01-701-1015", 3118, "NPITM09S", "IRRITABILITY/LABILITY Score", "NPI", "IRRITABILITY/LABILITY", "0", "", "0", 0, "", "", "", "", "Y", 8.0, "WEEK 8", 56, "TREATMENT", "2014-03-05", 63], ["CDISCPILOT01", "QS", "01-701-1015", 3142, "NPITM09", "IRRITABILITY/LABILITY PRESENT", "NPI", "IRRITABILITY/LABILITY", "ABSENT", "", "0", 0, "", "", "", "", "", 9.0, "WEEK 12", 84, "TREATMENT", "2014-03-26", 84], ["CDISCPILOT01", "QS", "01-701-1015", 3143, "NPITM09S", "IRRITABILITY/LABILITY Score", "NPI", "IRRITABILITY/LABILITY", "0", "", "0", 0, "", "", "", "", "Y", 9.0, "WEEK 12", 84, "TREATMENT", "2014-03-26", 84], ["CDISCPILOT01", "QS", "01-701-1015", 3167, "NPITM09", "IRRITABILITY/LABILITY PRESENT", "NPI", "IRRITABILITY/LABILITY", "ABSENT", "", "0", 0, "", "", "", "", "", 9.1, "WEEK 14 (T)", 98, "TREATMENT", "2014-04-09", 98], ["CDISCPILOT01", "QS", "01-701-1015", 3168, "NPITM09S", "IRRITABILITY/LABILITY Score", "NPI", "IRRITABILITY/LABILITY", "0", "", "0", 0, "", "", "", "", "Y", 9.1, "WEEK 14 (T)", 98, "TREATMENT", "2014-04-09", 98], ["CDISCPILOT01", "QS", "01-701-1015", 3192, "NPITM09", "IRRITABILITY/LABILITY PRESENT", "NPI", "IRRITABILITY/LABILITY", "ABSENT", "", "0", 0, "", "", "", "", "", 10.0, "WEEK 16", 112, "TREATMENT", "2014-05-07", 126], ["CDISCPILOT01", "QS", "01-701-1015", 3193, "NPITM09S", "IRRITABILITY/LABILITY Score", "NPI", "IRRITABILITY/LABILITY", "0", "", "0", 0, "", "", "", "", "Y", 10.0, "WEEK 16", 112, "TREATMENT", "2014-05-07", 126], ["CDISCPILOT01", "QS", "01-701-1015", 3217, "NPITM09", "IRRITABILITY/LABILITY PRESENT", "NPI", "IRRITABILITY/LABILITY", "ABSENT", "", "0", 0, "", "", "", "", "", 11.0, "WEEK 20", 140, "TREATMENT", "2014-05-21", 140], ["CDISCPILOT01", "QS", "01-701-1015", 3218, "NPITM09S", "IRRITABILITY/LABILITY Score", "NPI", "IRRITABILITY/LABILITY", "0", "", "0", 0, "", "", "", "", "Y", 11.0, "WEEK 20", 140, "TREATMENT", "2014-05-21", 140], ["CDISCPILOT01", "QS", "01-701-1015", 3242, "NPITM09", "IRRITABILITY/LABILITY PRESENT", "NPI", "IRRITABILITY/LABILITY", "ABSENT", "", "0", 0, "", "", "", "", "", 11.1, "WEEK 22 (T)", 154, "TREATMENT", "2014-06-04", 154], ["CDISCPILOT01", "QS", "01-701-1015", 3243, "NPITM09S", "IRRITABILITY/LABILITY Score", "NPI", "IRRITABILITY/LABILITY", "0", "", "0", 0, "", "", "", "", "Y", 11.1, "WEEK 22 (T)", 154, "TREATMENT", "2014-06-04", 154], ["CDISCPILOT01", "QS", "01-701-1015", 3267, "NPITM09", "IRRITABILITY/LABILITY PRESENT", "NPI", "IRRITABILITY/LABILITY", "ABSENT", "", "0", 0, "", "", "", "", "", 12.0, "WEEK 24", 168, "TREATMENT", "2014-06-18", 168], ["CDISCPILOT01", "QS", "01-701-1015", 3268, "NPITM09S", "IRRITABILITY/LABILITY Score", "NPI", "IRRITABILITY/LABILITY", "0", "", "0", 0, "", "", "", "", "Y", 12.0, "WEEK 24", 168, "TREATMENT", "2014-06-18", 168], ["CDISCPILOT01", "QS", "01-701-1015", 3292, "NPITM09", "IRRITABILITY/LABILITY PRESENT", "NPI", "IRRITABILITY/LABILITY", "ABSENT", "", "0", 0, "", "", "", "", "", 13.0, "WEEK 26", 182, "TREATMENT", "2014-07-02", 182], ["CDISCPILOT01", "QS", "01-701-1015", 3293, "NPITM09S", "IRRITABILITY/LABILITY Score", "NPI", "IRRITABILITY/LABILITY", "0", "", "0", 0, "", "", "", "", "Y", 13.0, "WEEK 26", 182, "TREATMENT", "2014-07-02", 182], ["CDISCPILOT01", "QS", "01-701-1015", 3019, "NPITM10", "ABERRANT MOTOR BEHAVIOR PRESENT", "NPI", "ABERRANT MOTOR BEHAVIOR", "ABSENT", "", "0", 0, "", "", "", "Y", "", 3.0, "BASELINE", 1, "TREATMENT", "2014-01-02", 1], ["CDISCPILOT01", "QS", "01-701-1015", 3020, "NPITM10S", "ABERRANT MOTOR BEHAVIOR Score", "NPI", "ABERRANT MOTOR BEHAVIOR", "0", "", "0", 0, "", "", "", "Y", "Y", 3.0, "BASELINE", 1, "TREATMENT", "2014-01-02", 1], ["CDISCPILOT01", "QS", "01-701-1015", 3044, "NPITM10", "ABERRANT MOTOR BEHAVIOR PRESENT", "NPI", "ABERRANT MOTOR BEHAVIOR", "ABSENT", "", "0", 0, "", "", "", "", "", 4.0, "WEEK 2", 14, "TREATMENT", "2014-01-16", 15], ["CDISCPILOT01", "QS", "01-701-1015", 3045, "NPITM10S", "ABERRANT MOTOR BEHAVIOR Score", "NPI", "ABERRANT MOTOR BEHAVIOR", "0", "", "0", 0, "", "", "", "", "Y", 4.0, "WEEK 2", 14, "TREATMENT", "2014-01-16", 15], ["CDISCPILOT01", "QS", "01-701-1015", 3069, "NPITM10", "ABERRANT MOTOR BEHAVIOR PRESENT", "NPI", "ABERRANT MOTOR BEHAVIOR", "ABSENT", "", "0", 0, "", "", "", "", "", 5.0, "WEEK 4", 28, "TREATMENT", "2014-01-30", 29], ["CDISCPILOT01", "QS", "01-701-1015", 3070, "NPITM10S", "ABERRANT MOTOR BEHAVIOR Score", "NPI", "ABERRANT MOTOR BEHAVIOR", "0", "", "0", 0, "", "", "", "", "Y", 5.0, "WEEK 4", 28, "TREATMENT", "2014-01-30", 29], ["CDISCPILOT01", "QS", "01-701-1015", 3094, "NPITM10", "ABERRANT MOTOR BEHAVIOR PRESENT", "NPI", "ABERRANT MOTOR BEHAVIOR", "ABSENT", "", "0", 0, "", "", "", "", "", 7.0, "WEEK 6", 42, "TREATMENT", "2014-02-12", 42], ["CDISCPILOT01", "QS", "01-701-1015", 3095, "NPITM10S", "ABERRANT MOTOR BEHAVIOR Score", "NPI", "ABERRANT MOTOR BEHAVIOR", "0", "", "0", 0, "", "", "", "", "Y", 7.0, "WEEK 6", 42, "TREATMENT", "2014-02-12", 42], ["CDISCPILOT01", "QS", "01-701-1015", 3119, "NPITM10", "ABERRANT MOTOR BEHAVIOR PRESENT", "NPI", "ABERRANT MOTOR BEHAVIOR", "ABSENT", "", "0", 0, "", "", "", "", "", 8.0, "WEEK 8", 56, "TREATMENT", "2014-03-05", 63], ["CDISCPILOT01", "QS", "01-701-1015", 3120, "NPITM10S", "ABERRANT MOTOR BEHAVIOR Score", "NPI", "ABERRANT MOTOR BEHAVIOR", "0", "", "0", 0, "", "", "", "", "Y", 8.0, "WEEK 8", 56, "TREATMENT", "2014-03-05", 63], ["CDISCPILOT01", "QS", "01-701-1015", 3144, "NPITM10", "ABERRANT MOTOR BEHAVIOR PRESENT", "NPI", "ABERRANT MOTOR BEHAVIOR", "ABSENT", "", "0", 0, "", "", "", "", "", 9.0, "WEEK 12", 84, "TREATMENT", "2014-03-26", 84], ["CDISCPILOT01", "QS", "01-701-1015", 3145, "NPITM10S", "ABERRANT MOTOR BEHAVIOR Score", "NPI", "ABERRANT MOTOR BEHAVIOR", "0", "", "0", 0, "", "", "", "", "Y", 9.0, "WEEK 12", 84, "TREATMENT", "2014-03-26", 84], ["CDISCPILOT01", "QS", "01-701-1015", 3169, "NPITM10", "ABERRANT MOTOR BEHAVIOR PRESENT", "NPI", "ABERRANT MOTOR BEHAVIOR", "ABSENT", "", "0", 0, "", "", "", "", "", 9.1, "WEEK 14 (T)", 98, "TREATMENT", "2014-04-09", 98], ["CDISCPILOT01", "QS", "01-701-1015", 3170, "NPITM10S", "ABERRANT MOTOR BEHAVIOR Score", "NPI", "ABERRANT MOTOR BEHAVIOR", "0", "", "0", 0, "", "", "", "", "Y", 9.1, "WEEK 14 (T)", 98, "TREATMENT", "2014-04-09", 98], ["CDISCPILOT01", "QS", "01-701-1015", 3194, "NPITM10", "ABERRANT MOTOR BEHAVIOR PRESENT", "NPI", "ABERRANT MOTOR BEHAVIOR", "ABSENT", "", "0", 0, "", "", "", "", "", 10.0, "WEEK 16", 112, "TREATMENT", "2014-05-07", 126], ["CDISCPILOT01", "QS", "01-701-1015", 3195, "NPITM10S", "ABERRANT MOTOR BEHAVIOR Score", "NPI", "ABERRANT MOTOR BEHAVIOR", "0", "", "0", 0, "", "", "", "", "Y", 10.0, "WEEK 16", 112, "TREATMENT", "2014-05-07", 126], ["CDISCPILOT01", "QS", "01-701-1015", 3219, "NPITM10", "ABERRANT MOTOR BEHAVIOR PRESENT", "NPI", "ABERRANT MOTOR BEHAVIOR", "ABSENT", "", "0", 0, "", "", "", "", "", 11.0, "WEEK 20", 140, "TREATMENT", "2014-05-21", 140], ["CDISCPILOT01", "QS", "01-701-1015", 3220, "NPITM10S", "ABERRANT MOTOR BEHAVIOR Score", "NPI", "ABERRANT MOTOR BEHAVIOR", "0", "", "0", 0, "", "", "", "", "Y", 11.0, "WEEK 20", 140, "TREATMENT", "2014-05-21", 140], ["CDISCPILOT01", "QS", "01-701-1015", 3244, "NPITM10", "ABERRANT MOTOR BEHAVIOR PRESENT", "NPI", "ABERRANT MOTOR BEHAVIOR", "ABSENT", "", "0", 0, "", "", "", "", "", 11.1, "WEEK 22 (T)", 154, "TREATMENT", "2014-06-04", 154], ["CDISCPILOT01", "QS", "01-701-1015", 3245, "NPITM10S", "ABERRANT MOTOR BEHAVIOR Score", "NPI", "ABERRANT MOTOR BEHAVIOR", "0", "", "0", 0, "", "", "", "", "Y", 11.1, "WEEK 22 (T)", 154, "TREATMENT", "2014-06-04", 154], ["CDISCPILOT01", "QS", "01-701-1015", 3269, "NPITM10", "ABERRANT MOTOR BEHAVIOR PRESENT", "NPI", "ABERRANT MOTOR BEHAVIOR", "ABSENT", "", "0", 0, "", "", "", "", "", 12.0, "WEEK 24", 168, "TREATMENT", "2014-06-18", 168], ["CDISCPILOT01", "QS", "01-701-1015", 3270, "NPITM10S", "ABERRANT MOTOR BEHAVIOR Score", "NPI", "ABERRANT MOTOR BEHAVIOR", "0", "", "0", 0, "", "", "", "", "Y", 12.0, "WEEK 24", 168, "TREATMENT", "2014-06-18", 168], ["CDISCPILOT01", "QS", "01-701-1015", 3294, "NPITM10", "ABERRANT MOTOR BEHAVIOR PRESENT", "NPI", "ABERRANT MOTOR BEHAVIOR", "ABSENT", "", "0", 0, "", "", "", "", "", 13.0, "WEEK 26", 182, "TREATMENT", "2014-07-02", 182], ["CDISCPILOT01", "QS", "01-701-1015", 3295, "NPITM10S", "ABERRANT MOTOR BEHAVIOR Score", "NPI", "ABERRANT MOTOR BEHAVIOR", "0", "", "0", 0, "", "", "", "", "Y", 13.0, "WEEK 26", 182, "TREATMENT", "2014-07-02", 182], ["CDISCPILOT01", "QS", "01-701-1015", 3021, "NPITM11", "NIGHT-TIME BEHAVIOR PRESENT", "NPI", "NIGHT-TIME BEHAVIOR", "ABSENT", "", "0", 0, "", "", "", "Y", "", 3.0, "BASELINE", 1, "TREATMENT", "2014-01-02", 1], ["CDISCPILOT01", "QS", "01-701-1015", 3022, "NPITM11S", "NIGHT-TIME BEHAVIOR Score", "NPI", "NIGHT-TIME BEHAVIOR", "0", "", "0", 0, "", "", "", "Y", "Y", 3.0, "BASELINE", 1, "TREATMENT", "2014-01-02", 1], ["CDISCPILOT01", "QS", "01-701-1015", 3046, "NPITM11", "NIGHT-TIME BEHAVIOR PRESENT", "NPI", "NIGHT-TIME BEHAVIOR", "ABSENT", "", "0", 0, "", "", "", "", "", 4.0, "WEEK 2", 14, "TREATMENT", "2014-01-16", 15], ["CDISCPILOT01", "QS", "01-701-1015", 3047, "NPITM11S", "NIGHT-TIME BEHAVIOR Score", "NPI", "NIGHT-TIME BEHAVIOR", "0", "", "0", 0, "", "", "", "", "Y", 4.0, "WEEK 2", 14, "TREATMENT", "2014-01-16", 15], ["CDISCPILOT01", "QS", "01-701-1015", 3071, "NPITM11", "NIGHT-TIME BEHAVIOR PRESENT", "NPI", "NIGHT-TIME BEHAVIOR", "ABSENT", "", "0", 0, "", "", "", "", "", 5.0, "WEEK 4", 28, "TREATMENT", "2014-01-30", 29], ["CDISCPILOT01", "QS", "01-701-1015", 3072, "NPITM11S", "NIGHT-TIME BEHAVIOR Score", "NPI", "NIGHT-TIME BEHAVIOR", "0", "", "0", 0, "", "", "", "", "Y", 5.0, "WEEK 4", 28, "TREATMENT", "2014-01-30", 29], ["CDISCPILOT01", "QS", "01-701-1015", 3096, "NPITM11", "NIGHT-TIME BEHAVIOR PRESENT", "NPI", "NIGHT-TIME BEHAVIOR", "ABSENT", "", "0", 0, "", "", "", "", "", 7.0, "WEEK 6", 42, "TREATMENT", "2014-02-12", 42], ["CDISCPILOT01", "QS", "01-701-1015", 3097, "NPITM11S", "NIGHT-TIME BEHAVIOR Score", "NPI", "NIGHT-TIME BEHAVIOR", "0", "", "0", 0, "", "", "", "", "Y", 7.0, "WEEK 6", 42, "TREATMENT", "2014-02-12", 42], ["CDISCPILOT01", "QS", "01-701-1015", 3121, "NPITM11", "NIGHT-TIME BEHAVIOR PRESENT", "NPI", "NIGHT-TIME BEHAVIOR", "ABSENT", "", "0", 0, "", "", "", "", "", 8.0, "WEEK 8", 56, "TREATMENT", "2014-03-05", 63], ["CDISCPILOT01", "QS", "01-701-1015", 3122, "NPITM11S", "NIGHT-TIME BEHAVIOR Score", "NPI", "NIGHT-TIME BEHAVIOR", "0", "", "0", 0, "", "", "", "", "Y", 8.0, "WEEK 8", 56, "TREATMENT", "2014-03-05", 63], ["CDISCPILOT01", "QS", "01-701-1015", 3146, "NPITM11", "NIGHT-TIME BEHAVIOR PRESENT", "NPI", "NIGHT-TIME BEHAVIOR", "ABSENT", "", "0", 0, "", "", "", "", "", 9.0, "WEEK 12", 84, "TREATMENT", "2014-03-26", 84], ["CDISCPILOT01", "QS", "01-701-1015", 3147, "NPITM11S", "NIGHT-TIME BEHAVIOR Score", "NPI", "NIGHT-TIME BEHAVIOR", "0", "", "0", 0, "", "", "", "", "Y", 9.0, "WEEK 12", 84, "TREATMENT", "2014-03-26", 84], ["CDISCPILOT01", "QS", "01-701-1015", 3171, "NPITM11", "NIGHT-TIME BEHAVIOR PRESENT", "NPI", "NIGHT-TIME BEHAVIOR", "ABSENT", "", "0", 0, "", "", "", "", "", 9.1, "WEEK 14 (T)", 98, "TREATMENT", "2014-04-09", 98], ["CDISCPILOT01", "QS", "01-701-1015", 3172, "NPITM11S", "NIGHT-TIME BEHAVIOR Score", "NPI", "NIGHT-TIME BEHAVIOR", "0", "", "0", 0, "", "", "", "", "Y", 9.1, "WEEK 14 (T)", 98, "TREATMENT", "2014-04-09", 98], ["CDISCPILOT01", "QS", "01-701-1015", 3196, "NPITM11", "NIGHT-TIME BEHAVIOR PRESENT", "NPI", "NIGHT-TIME BEHAVIOR", "ABSENT", "", "0", 0, "", "", "", "", "", 10.0, "WEEK 16", 112, "TREATMENT", "2014-05-07", 126], ["CDISCPILOT01", "QS", "01-701-1015", 3197, "NPITM11S", "NIGHT-TIME BEHAVIOR Score", "NPI", "NIGHT-TIME BEHAVIOR", "0", "", "0", 0, "", "", "", "", "Y", 10.0, "WEEK 16", 112, "TREATMENT", "2014-05-07", 126], ["CDISCPILOT01", "QS", "01-701-1015", 3221, "NPITM11", "NIGHT-TIME BEHAVIOR PRESENT", "NPI", "NIGHT-TIME BEHAVIOR", "ABSENT", "", "0", 0, "", "", "", "", "", 11.0, "WEEK 20", 140, "TREATMENT", "2014-05-21", 140], ["CDISCPILOT01", "QS", "01-701-1015", 3222, "NPITM11S", "NIGHT-TIME BEHAVIOR Score", "NPI", "NIGHT-TIME BEHAVIOR", "0", "", "0", 0, "", "", "", "", "Y", 11.0, "WEEK 20", 140, "TREATMENT", "2014-05-21", 140], ["CDISCPILOT01", "QS", "01-701-1015", 3246, "NPITM11", "NIGHT-TIME BEHAVIOR PRESENT", "NPI", "NIGHT-TIME BEHAVIOR", "ABSENT", "", "0", 0, "", "", "", "", "", 11.1, "WEEK 22 (T)", 154, "TREATMENT", "2014-06-04", 154], ["CDISCPILOT01", "QS", "01-701-1015", 3247, "NPITM11S", "NIGHT-TIME BEHAVIOR Score", "NPI", "NIGHT-TIME BEHAVIOR", "0", "", "0", 0, "", "", "", "", "Y", 11.1, "WEEK 22 (T)", 154, "TREATMENT", "2014-06-04", 154], ["CDISCPILOT01", "QS", "01-701-1015", 3271, "NPITM11", "NIGHT-TIME BEHAVIOR PRESENT", "NPI", "NIGHT-TIME BEHAVIOR", "ABSENT", "", "0", 0, "", "", "", "", "", 12.0, "WEEK 24", 168, "TREATMENT", "2014-06-18", 168], ["CDISCPILOT01", "QS", "01-701-1015", 3272, "NPITM11S", "NIGHT-TIME BEHAVIOR Score", "NPI", "NIGHT-TIME BEHAVIOR", "0", "", "0", 0, "", "", "", "", "Y", 12.0, "WEEK 24", 168, "TREATMENT", "2014-06-18", 168], ["CDISCPILOT01", "QS", "01-701-1015", 3296, "NPITM11", "NIGHT-TIME BEHAVIOR PRESENT", "NPI", "NIGHT-TIME BEHAVIOR", "ABSENT", "", "0", 0, "", "", "", "", "", 13.0, "WEEK 26", 182, "TREATMENT", "2014-07-02", 182], ["CDISCPILOT01", "QS", "01-701-1015", 3297, "NPITM11S", "NIGHT-TIME BEHAVIOR Score", "NPI", "NIGHT-TIME BEHAVIOR", "0", "", "0", 0, "", "", "", "", "Y", 13.0, "WEEK 26", 182, "TREATMENT", "2014-07-02", 182], ["CDISCPILOT01", "QS", "01-701-1015", 3023, "NPITM12", "APPETITE/EATING CHANGE PRESENT", "NPI", "APPETITE/EATING CHANGE", "ABSENT", "", "0", 0, "", "", "", "Y", "", 3.0, "BASELINE", 1, "TREATMENT", "2014-01-02", 1], ["CDISCPILOT01", "QS", "01-701-1015", 3024, "NPITM12S", "APPETITE/EATING CHANGE Score", "NPI", "APPETITE/EATING CHANGE", "0", "", "0", 0, "", "", "", "Y", "Y", 3.0, "BASELINE", 1, "TREATMENT", "2014-01-02", 1], ["CDISCPILOT01", "QS", "01-701-1015", 3048, "NPITM12", "APPETITE/EATING CHANGE PRESENT", "NPI", "APPETITE/EATING CHANGE", "ABSENT", "", "0", 0, "", "", "", "", "", 4.0, "WEEK 2", 14, "TREATMENT", "2014-01-16", 15], ["CDISCPILOT01", "QS", "01-701-1015", 3049, "NPITM12S", "APPETITE/EATING CHANGE Score", "NPI", "APPETITE/EATING CHANGE", "0", "", "0", 0, "", "", "", "", "Y", 4.0, "WEEK 2", 14, "TREATMENT", "2014-01-16", 15], ["CDISCPILOT01", "QS", "01-701-1015", 3073, "NPITM12", "APPETITE/EATING CHANGE PRESENT", "NPI", "APPETITE/EATING CHANGE", "ABSENT", "", "0", 0, "", "", "", "", "", 5.0, "WEEK 4", 28, "TREATMENT", "2014-01-30", 29], ["CDISCPILOT01", "QS", "01-701-1015", 3074, "NPITM12S", "APPETITE/EATING CHANGE Score", "NPI", "APPETITE/EATING CHANGE", "0", "", "0", 0, "", "", "", "", "Y", 5.0, "WEEK 4", 28, "TREATMENT", "2014-01-30", 29], ["CDISCPILOT01", "QS", "01-701-1015", 3098, "NPITM12", "APPETITE/EATING CHANGE PRESENT", "NPI", "APPETITE/EATING CHANGE", "ABSENT", "", "0", 0, "", "", "", "", "", 7.0, "WEEK 6", 42, "TREATMENT", "2014-02-12", 42], ["CDISCPILOT01", "QS", "01-701-1015", 3099, "NPITM12S", "APPETITE/EATING CHANGE Score", "NPI", "APPETITE/EATING CHANGE", "0", "", "0", 0, "", "", "", "", "Y", 7.0, "WEEK 6", 42, "TREATMENT", "2014-02-12", 42], ["CDISCPILOT01", "QS", "01-701-1015", 3123, "NPITM12", "APPETITE/EATING CHANGE PRESENT", "NPI", "APPETITE/EATING CHANGE", "ABSENT", "", "0", 0, "", "", "", "", "", 8.0, "WEEK 8", 56, "TREATMENT", "2014-03-05", 63], ["CDISCPILOT01", "QS", "01-701-1015", 3124, "NPITM12S", "APPETITE/EATING CHANGE Score", "NPI", "APPETITE/EATING CHANGE", "0", "", "0", 0, "", "", "", "", "Y", 8.0, "WEEK 8", 56, "TREATMENT", "2014-03-05", 63], ["CDISCPILOT01", "QS", "01-701-1015", 3148, "NPITM12", "APPETITE/EATING CHANGE PRESENT", "NPI", "APPETITE/EATING CHANGE", "ABSENT", "", "0", 0, "", "", "", "", "", 9.0, "WEEK 12", 84, "TREATMENT", "2014-03-26", 84], ["CDISCPILOT01", "QS", "01-701-1015", 3149, "NPITM12S", "APPETITE/EATING CHANGE Score", "NPI", "APPETITE/EATING CHANGE", "0", "", "0", 0, "", "", "", "", "Y", 9.0, "WEEK 12", 84, "TREATMENT", "2014-03-26", 84], ["CDISCPILOT01", "QS", "01-701-1015", 3173, "NPITM12", "APPETITE/EATING CHANGE PRESENT", "NPI", "APPETITE/EATING CHANGE", "ABSENT", "", "0", 0, "", "", "", "", "", 9.1, "WEEK 14 (T)", 98, "TREATMENT", "2014-04-09", 98], ["CDISCPILOT01", "QS", "01-701-1015", 3174, "NPITM12S", "APPETITE/EATING CHANGE Score", "NPI", "APPETITE/EATING CHANGE", "0", "", "0", 0, "", "", "", "", "Y", 9.1, "WEEK 14 (T)", 98, "TREATMENT", "2014-04-09", 98], ["CDISCPILOT01", "QS", "01-701-1015", 3198, "NPITM12", "APPETITE/EATING CHANGE PRESENT", "NPI", "APPETITE/EATING CHANGE", "ABSENT", "", "0", 0, "", "", "", "", "", 10.0, "WEEK 16", 112, "TREATMENT", "2014-05-07", 126], ["CDISCPILOT01", "QS", "01-701-1015", 3199, "NPITM12S", "APPETITE/EATING CHANGE Score", "NPI", "APPETITE/EATING CHANGE", "0", "", "0", 0, "", "", "", "", "Y", 10.0, "WEEK 16", 112, "TREATMENT", "2014-05-07", 126], ["CDISCPILOT01", "QS", "01-701-1015", 3223, "NPITM12", "APPETITE/EATING CHANGE PRESENT", "NPI", "APPETITE/EATING CHANGE", "ABSENT", "", "0", 0, "", "", "", "", "", 11.0, "WEEK 20", 140, "TREATMENT", "2014-05-21", 140], ["CDISCPILOT01", "QS", "01-701-1015", 3224, "NPITM12S", "APPETITE/EATING CHANGE Score", "NPI", "APPETITE/EATING CHANGE", "0", "", "0", 0, "", "", "", "", "Y", 11.0, "WEEK 20", 140, "TREATMENT", "2014-05-21", 140], ["CDISCPILOT01", "QS", "01-701-1015", 3248, "NPITM12", "APPETITE/EATING CHANGE PRESENT", "NPI", "APPETITE/EATING CHANGE", "ABSENT", "", "0", 0, "", "", "", "", "", 11.1, "WEEK 22 (T)", 154, "TREATMENT", "2014-06-04", 154], ["CDISCPILOT01", "QS", "01-701-1015", 3249, "NPITM12S", "APPETITE/EATING CHANGE Score", "NPI", "APPETITE/EATING CHANGE", "0", "", "0", 0, "", "", "", "", "Y", 11.1, "WEEK 22 (T)", 154, "TREATMENT", "2014-06-04", 154], ["CDISCPILOT01", "QS", "01-701-1015", 3273, "NPITM12", "APPETITE/EATING CHANGE PRESENT", "NPI", "APPETITE/EATING CHANGE", "ABSENT", "", "0", 0, "", "", "", "", "", 12.0, "WEEK 24", 168, "TREATMENT", "2014-06-18", 168], ["CDISCPILOT01", "QS", "01-701-1015", 3274, "NPITM12S", "APPETITE/EATING CHANGE Score", "NPI", "APPETITE/EATING CHANGE", "0", "", "0", 0, "", "", "", "", "Y", 12.0, "WEEK 24", 168, "TREATMENT", "2014-06-18", 168], ["CDISCPILOT01", "QS", "01-701-1015", 3298, "NPITM12", "APPETITE/EATING CHANGE PRESENT", "NPI", "APPETITE/EATING CHANGE", "ABSENT", "", "0", 0, "", "", "", "", "", 13.0, "WEEK 26", 182, "TREATMENT", "2014-07-02", 182], ["CDISCPILOT01", "QS", "01-701-1015", 3299, "NPITM12S", "APPETITE/EATING CHANGE Score", "NPI", "APPETITE/EATING CHANGE", "0", "", "0", 0, "", "", "", "", "Y", 13.0, "WEEK 26", 182, "TREATMENT", "2014-07-02", 182], ["CDISCPILOT01", "QS", "01-701-1015", 3025, "NPTOT", "NPI-X (9) Total Score", "NPI", "APPETITE/EATING CHANGE", "", "", "0", 0, "", "", "", "Y", "Y", 3.0, "BASELINE", 1, "TREATMENT", "2014-01-02", 1], ["CDISCPILOT01", "QS", "01-701-1015", 3050, "NPTOT", "NPI-X (9) Total Score", "NPI", "APPETITE/EATING CHANGE", "", "", "0", 0, "", "", "", "", "Y", 4.0, "WEEK 2", 14, "TREATMENT", "2014-01-16", 15], ["CDISCPILOT01", "QS", "01-701-1015", 3075, "NPTOT", "NPI-X (9) Total Score", "NPI", "APPETITE/EATING CHANGE", "", "", "0", 0, "", "", "", "", "Y", 5.0, "WEEK 4", 28, "TREATMENT", "2014-01-30", 29], ["CDISCPILOT01", "QS", "01-701-1015", 3100, "NPTOT", "NPI-X (9) Total Score", "NPI", "APPETITE/EATING CHANGE", "", "", "0", 0, "", "", "", "", "Y", 7.0, "WEEK 6", 42, "TREATMENT", "2014-02-12", 42], ["CDISCPILOT01", "QS", "01-701-1015", 3125, "NPTOT", "NPI-X (9) Total Score", "NPI", "APPETITE/EATING CHANGE", "", "", "0", 0, "", "", "", "", "Y", 8.0, "WEEK 8", 56, "TREATMENT", "2014-03-05", 63], ["CDISCPILOT01", "QS", "01-701-1015", 3150, "NPTOT", "NPI-X (9) Total Score", "NPI", "APPETITE/EATING CHANGE", "", "", "0", 0, "", "", "", "", "Y", 9.0, "WEEK 12", 84, "TREATMENT", "2014-03-26", 84], ["CDISCPILOT01", "QS", "01-701-1015", 3175, "NPTOT", "NPI-X (9) Total Score", "NPI", "APPETITE/EATING CHANGE", "", "", "0", 0, "", "", "", "", "Y", 9.1, "WEEK 14 (T)", 98, "TREATMENT", "2014-04-09", 98], ["CDISCPILOT01", "QS", "01-701-1015", 3200, "NPTOT", "NPI-X (9) Total Score", "NPI", "APPETITE/EATING CHANGE", "", "", "0", 0, "", "", "", "", "Y", 10.0, "WEEK 16", 112, "TREATMENT", "2014-05-07", 126], ["CDISCPILOT01", "QS", "01-701-1015", 3225, "NPTOT", "NPI-X (9) Total Score", "NPI", "APPETITE/EATING CHANGE", "", "", "0", 0, "", "", "", "", "Y", 11.0, "WEEK 20", 140, "TREATMENT", "2014-05-21", 140], ["CDISCPILOT01", "QS", "01-701-1015", 3250, "NPTOT", "NPI-X (9) Total Score", "NPI", "APPETITE/EATING CHANGE", "", "", "0", 0, "", "", "", "", "Y", 11.1, "WEEK 22 (T)", 154, "TREATMENT", "2014-06-04", 154], ["CDISCPILOT01", "QS", "01-701-1015", 3275, "NPTOT", "NPI-X (9) Total Score", "NPI", "APPETITE/EATING CHANGE", "", "", "0", 0, "", "", "", "", "Y", 12.0, "WEEK 24", 168, "TREATMENT", "2014-06-18", 168], ["CDISCPILOT01", "QS", "01-701-1015", 3300, "NPTOT", "NPI-X (9) Total Score", "NPI", "APPETITE/EATING CHANGE", "", "", "0", 0, "", "", "", "", "Y", 13.0, "WEEK 26", 182, "TREATMENT", "2014-07-02", 182], ["CDISCPILOT01", "QS", "01-701-1023", 3001, "NPITM01", "DELUSIONS PRESENT", "NPI", "DELUSIONS", "ABSENT", "", "0", 0, "", "", "", "Y", "", 3.0, "BASELINE", 1, "TREATMENT", "2012-08-05", 1], ["CDISCPILOT01", "QS", "01-701-1023", 3002, "NPITM01S", "DELUSIONS Score", "NPI", "DELUSIONS", "0", "", "0", 0, "", "", "", "Y", "Y", 3.0, "BASELINE", 1, "TREATMENT", "2012-08-05", 1], ["CDISCPILOT01", "QS", "01-701-1023", 3034, "NPITM01F", "DELUSIONS FREQUENCY", "NPI", "DELUSIONS", "3", "", "3", 3, "", "", "", "", "", 4.0, "WEEK 2", 14, "TREATMENT", "2012-08-27", 23], ["CDISCPILOT01", "QS", "01-701-1023", 3035, "NPITM01V", "DELUSIONS SEVERITY", "NPI", "DELUSIONS", "1", "", "1", 1, "", "", "", "", "", 4.0, "WEEK 2", 14, "TREATMENT", "2012-08-27", 23], ["CDISCPILOT01", "QS", "01-701-1023", 3036, "NPITM01D", "DELUSIONS DISTRESS", "NPI", "DELUSIONS", "0", "", "0", 0, "", "", "", "", "", 4.0, "WEEK 2", 14, "TREATMENT", "2012-08-27", 23], ["CDISCPILOT01", "QS", "01-701-1023", 3037, "NPITM01S", "DELUSIONS Score", "NPI", "DELUSIONS", "3", "", "3", 3, "", "", "", "", "Y", 4.0, "WEEK 2", 14, "TREATMENT", "2012-08-27", 23], ["CDISCPILOT01", "QS", "01-701-1023", 3067, "NPITM01", "DELUSIONS PRESENT", "NPI", "DELUSIONS", "ABSENT", "", "0", 0, "", "", "", "", "", 5.0, "WEEK 4", 28, "TREATMENT", "2012-09-02", 29], ["CDISCPILOT01", "QS", "01-701-1023", 3068, "NPITM01S", "DELUSIONS Score", "NPI", "DELUSIONS", "0", "", "0", 0, "", "", "", "", "Y", 5.0, "WEEK 4", 28, "TREATMENT", "2012-09-02", 29], ["CDISCPILOT01", "QS", "01-701-1023", 3100, "NPITM01", "DELUSIONS PRESENT", "NPI", "DELUSIONS", "ABSENT", "", "0", 0, "", "", "", "", "", 201.0, "RETRIEVAL", 168, "TREATMENT", "2013-02-18", 198], ["CDISCPILOT01", "QS", "01-701-1023", 3101, "NPITM01S", "DELUSIONS Score", "NPI", "DELUSIONS", "0", "", "0", 0, "", "", "", "", "Y", 201.0, "RETRIEVAL", 168, "TREATMENT", "2013-02-18", 198], ["CDISCPILOT01", "QS", "01-701-1023", 3003, "NPITM02", "HALLUCINATIONS PRESENT", "NPI", "HALLUCINATIONS", "ABSENT", "", "0", 0, "", "", "", "Y", "", 3.0, "BASELINE", 1, "TREATMENT", "2012-08-05", 1], ["CDISCPILOT01", "QS", "01-701-1023", 3004, "NPITM02S", "HALLUCINATIONS Score", "NPI", "HALLUCINATIONS", "0", "", "0", 0, "", "", "", "Y", "Y", 3.0, "BASELINE", 1, "TREATMENT", "2012-08-05", 1], ["CDISCPILOT01", "QS", "01-701-1023", 3038, "NPITM02", "HALLUCINATIONS PRESENT", "NPI", "HALLUCINATIONS", "ABSENT", "", "0", 0, "", "", "", "", "", 4.0, "WEEK 2", 14, "TREATMENT", "2012-08-27", 23], ["CDISCPILOT01", "QS", "01-701-1023", 3039, "NPITM02S", "HALLUCINATIONS Score", "NPI", "HALLUCINATIONS", "0", "", "0", 0, "", "", "", "", "Y", 4.0, "WEEK 2", 14, "TREATMENT", "2012-08-27", 23], ["CDISCPILOT01", "QS", "01-701-1023", 3069, "NPITM02", "HALLUCINATIONS PRESENT", "NPI", "HALLUCINATIONS", "ABSENT", "", "0", 0, "", "", "", "", "", 5.0, "WEEK 4", 28, "TREATMENT", "2012-09-02", 29], ["CDISCPILOT01", "QS", "01-701-1023", 3070, "NPITM02S", "HALLUCINATIONS Score", "NPI", "HALLUCINATIONS", "0", "", "0", 0, "", "", "", "", "Y", 5.0, "WEEK 4", 28, "TREATMENT", "2012-09-02", 29], ["CDISCPILOT01", "QS", "01-701-1023", 3102, "NPITM02", "HALLUCINATIONS PRESENT", "NPI", "HALLUCINATIONS", "ABSENT", "", "0", 0, "", "", "", "", "", 201.0, "RETRIEVAL", 168, "TREATMENT", "2013-02-18", 198], ["CDISCPILOT01", "QS", "01-701-1023", 3103, "NPITM02S", "HALLUCINATIONS Score", "NPI", "HALLUCINATIONS", "0", "", "0", 0, "", "", "", "", "Y", 201.0, "RETRIEVAL", 168, "TREATMENT", "2013-02-18", 198], ["CDISCPILOT01", "QS", "01-701-1023", 3005, "NPITM03F", "AGITATION/AGRESSION FREQUENCY", "NPI", "AGITATION/AGRESSION", "1", "", "1", 1, "", "", "", "Y", "", 3.0, "BASELINE", 1, "TREATMENT", "2012-08-05", 1], ["CDISCPILOT01", "QS", "01-701-1023", 3006, "NPITM03V", "AGITATION/AGRESSION SEVERITY", "NPI", "AGITATION/AGRESSION", "1", "", "1", 1, "", "", "", "Y", "", 3.0, "BASELINE", 1, "TREATMENT", "2012-08-05", 1], ["CDISCPILOT01", "QS", "01-701-1023", 3007, "NPITM03D", "AGITATION/AGRESSION DISTRESS", "NPI", "AGITATION/AGRESSION", "2", "", "2", 2, "", "", "", "Y", "", 3.0, "BASELINE", 1, "TREATMENT", "2012-08-05", 1], ["CDISCPILOT01", "QS", "01-701-1023", 3008, "NPITM03S", "AGITATION/AGRESSION Score", "NPI", "AGITATION/AGRESSION", "1", "", "1", 1, "", "", "", "Y", "Y", 3.0, "BASELINE", 1, "TREATMENT", "2012-08-05", 1], ["CDISCPILOT01", "QS", "01-701-1023", 3040, "NPITM03", "AGITATION/AGRESSION PRESENT", "NPI", "AGITATION/AGRESSION", "ABSENT", "", "0", 0, "", "", "", "", "", 4.0, "WEEK 2", 14, "TREATMENT", "2012-08-27", 23], ["CDISCPILOT01", "QS", "01-701-1023", 3041, "NPITM03S", "AGITATION/AGRESSION Score", "NPI", "AGITATION/AGRESSION", "0", "", "0", 0, "", "", "", "", "Y", 4.0, "WEEK 2", 14, "TREATMENT", "2012-08-27", 23], ["CDISCPILOT01", "QS", "01-701-1023", 3071, "NPITM03F", "AGITATION/AGRESSION FREQUENCY", "NPI", "AGITATION/AGRESSION", "1", "", "1", 1, "", "", "", "", "", 5.0, "WEEK 4", 28, "TREATMENT", "2012-09-02", 29], ["CDISCPILOT01", "QS", "01-701-1023", 3072, "NPITM03V", "AGITATION/AGRESSION SEVERITY", "NPI", "AGITATION/AGRESSION", "1", "", "1", 1, "", "", "", "", "", 5.0, "WEEK 4", 28, "TREATMENT", "2012-09-02", 29], ["CDISCPILOT01", "QS", "01-701-1023", 3073, "NPITM03D", "AGITATION/AGRESSION DISTRESS", "NPI", "AGITATION/AGRESSION", "2", "", "2", 2, "", "", "", "", "", 5.0, "WEEK 4", 28, "TREATMENT", "2012-09-02", 29], ["CDISCPILOT01", "QS", "01-701-1023", 3074, "NPITM03S", "AGITATION/AGRESSION Score", "NPI", "AGITATION/AGRESSION", "1", "", "1", 1, "", "", "", "", "Y", 5.0, "WEEK 4", 28, "TREATMENT", "2012-09-02", 29], ["CDISCPILOT01", "QS", "01-701-1023", 3104, "NPITM03", "AGITATION/AGRESSION PRESENT", "NPI", "AGITATION/AGRESSION", "ABSENT", "", "0", 0, "", "", "", "", "", 201.0, "RETRIEVAL", 168, "TREATMENT", "2013-02-18", 198], ["CDISCPILOT01", "QS", "01-701-1023", 3105, "NPITM03S", "AGITATION/AGRESSION Score", "NPI", "AGITATION/AGRESSION", "0", "", "0", 0, "", "", "", "", "Y", 201.0, "RETRIEVAL", 168, "TREATMENT", "2013-02-18", 198], ["CDISCPILOT01", "QS", "01-701-1023", 3009, "NPITM04F", "DEPRESSION/DYSPHORIA FREQUENCY", "NPI", "DEPRESSION/DYSPHORIA", "2", "", "2", 2, "", "", "", "Y", "", 3.0, "BASELINE", 1, "TREATMENT", "2012-08-05", 1], ["CDISCPILOT01", "QS", "01-701-1023", 3010, "NPITM04V", "DEPRESSION/DYSPHORIA SEVERITY", "NPI", "DEPRESSION/DYSPHORIA", "2", "", "2", 2, "", "", "", "Y", "", 3.0, "BASELINE", 1, "TREATMENT", "2012-08-05", 1], ["CDISCPILOT01", "QS", "01-701-1023", 3011, "NPITM04D", "DEPRESSION/DYSPHORIA DISTRESS", "NPI", "DEPRESSION/DYSPHORIA", "3", "", "3", 3, "", "", "", "Y", "", 3.0, "BASELINE", 1, "TREATMENT", "2012-08-05", 1], ["CDISCPILOT01", "QS", "01-701-1023", 3012, "NPITM04S", "DEPRESSION/DYSPHORIA Score", "NPI", "DEPRESSION/DYSPHORIA", "4", "", "4", 4, "", "", "", "Y", "Y", 3.0, "BASELINE", 1, "TREATMENT", "2012-08-05", 1], ["CDISCPILOT01", "QS", "01-701-1023", 3042, "NPITM04F", "DEPRESSION/DYSPHORIA FREQUENCY", "NPI", "DEPRESSION/DYSPHORIA", "2", "", "2", 2, "", "", "", "", "", 4.0, "WEEK 2", 14, "TREATMENT", "2012-08-27", 23], ["CDISCPILOT01", "QS", "01-701-1023", 3043, "NPITM04V", "DEPRESSION/DYSPHORIA SEVERITY", "NPI", "DEPRESSION/DYSPHORIA", "2", "", "2", 2, "", "", "", "", "", 4.0, "WEEK 2", 14, "TREATMENT", "2012-08-27", 23], ["CDISCPILOT01", "QS", "01-701-1023", 3044, "NPITM04D", "DEPRESSION/DYSPHORIA DISTRESS", "NPI", "DEPRESSION/DYSPHORIA", "0", "", "0", 0, "", "", "", "", "", 4.0, "WEEK 2", 14, "TREATMENT", "2012-08-27", 23], ["CDISCPILOT01", "QS", "01-701-1023", 3045, "NPITM04S", "DEPRESSION/DYSPHORIA Score", "NPI", "DEPRESSION/DYSPHORIA", "4", "", "4", 4, "", "", "", "", "Y", 4.0, "WEEK 2", 14, "TREATMENT", "2012-08-27", 23], ["CDISCPILOT01", "QS", "01-701-1023", 3075, "NPITM04F", "DEPRESSION/DYSPHORIA FREQUENCY", "NPI", "DEPRESSION/DYSPHORIA", "2", "", "2", 2, "", "", "", "", "", 5.0, "WEEK 4", 28, "TREATMENT", "2012-09-02", 29], ["CDISCPILOT01", "QS", "01-701-1023", 3076, "NPITM04V", "DEPRESSION/DYSPHORIA SEVERITY", "NPI", "DEPRESSION/DYSPHORIA", "2", "", "2", 2, "", "", "", "", "", 5.0, "WEEK 4", 28, "TREATMENT", "2012-09-02", 29], ["CDISCPILOT01", "QS", "01-701-1023", 3077, "NPITM04D", "DEPRESSION/DYSPHORIA DISTRESS", "NPI", "DEPRESSION/DYSPHORIA", "3", "", "3", 3, "", "", "", "", "", 5.0, "WEEK 4", 28, "TREATMENT", "2012-09-02", 29], ["CDISCPILOT01", "QS", "01-701-1023", 3078, "NPITM04S", "DEPRESSION/DYSPHORIA Score", "NPI", "DEPRESSION/DYSPHORIA", "4", "", "4", 4, "", "", "", "", "Y", 5.0, "WEEK 4", 28, "TREATMENT", "2012-09-02", 29], ["CDISCPILOT01", "QS", "01-701-1023", 3106, "NPITM04F", "DEPRESSION/DYSPHORIA FREQUENCY", "NPI", "DEPRESSION/DYSPHORIA", "1", "", "1", 1, "", "", "", "", "", 201.0, "RETRIEVAL", 168, "TREATMENT", "2013-02-18", 198], ["CDISCPILOT01", "QS", "01-701-1023", 3107, "NPITM04V", "DEPRESSION/DYSPHORIA SEVERITY", "NPI", "DEPRESSION/DYSPHORIA", "1", "", "1", 1, "", "", "", "", "", 201.0, "RETRIEVAL", 168, "TREATMENT", "2013-02-18", 198], ["CDISCPILOT01", "QS", "01-701-1023", 3108, "NPITM04D", "DEPRESSION/DYSPHORIA DISTRESS", "NPI", "DEPRESSION/DYSPHORIA", "2", "", "2", 2, "", "", "", "", "", 201.0, "RETRIEVAL", 168, "TREATMENT", "2013-02-18", 198], ["CDISCPILOT01", "QS", "01-701-1023", 3109, "NPITM04S", "DEPRESSION/DYSPHORIA Score", "NPI", "DEPRESSION/DYSPHORIA", "1", "", "1", 1, "", "", "", "", "Y", 201.0, "RETRIEVAL", 168, "TREATMENT", "2013-02-18", 198], ["CDISCPILOT01", "QS", "01-701-1023", 3013, "NPITM05F", "ANXIETY FREQUENCY", "NPI", "ANXIETY", "2", "", "2", 2, "", "", "", "Y", "", 3.0, "BASELINE", 1, "TREATMENT", "2012-08-05", 1], ["CDISCPILOT01", "QS", "01-701-1023", 3014, "NPITM05V", "ANXIETY SEVERITY", "NPI", "ANXIETY", "2", "", "2", 2, "", "", "", "Y", "", 3.0, "BASELINE", 1, "TREATMENT", "2012-08-05", 1], ["CDISCPILOT01", "QS", "01-701-1023", 3015, "NPITM05D", "ANXIETY DISTRESS", "NPI", "ANXIETY", "3", "", "3", 3, "", "", "", "Y", "", 3.0, "BASELINE", 1, "TREATMENT", "2012-08-05", 1], ["CDISCPILOT01", "QS", "01-701-1023", 3016, "NPITM05S", "ANXIETY Score", "NPI", "ANXIETY", "4", "", "4", 4, "", "", "", "Y", "Y", 3.0, "BASELINE", 1, "TREATMENT", "2012-08-05", 1], ["CDISCPILOT01", "QS", "01-701-1023", 3046, "NPITM05F", "ANXIETY FREQUENCY", "NPI", "ANXIETY", "1", "", "1", 1, "", "", "", "", "", 4.0, "WEEK 2", 14, "TREATMENT", "2012-08-27", 23], ["CDISCPILOT01", "QS", "01-701-1023", 3047, "NPITM05V", "ANXIETY SEVERITY", "NPI", "ANXIETY", "2", "", "2", 2, "", "", "", "", "", 4.0, "WEEK 2", 14, "TREATMENT", "2012-08-27", 23], ["CDISCPILOT01", "QS", "01-701-1023", 3048, "NPITM05D", "ANXIETY DISTRESS", "NPI", "ANXIETY", "0", "", "0", 0, "", "", "", "", "", 4.0, "WEEK 2", 14, "TREATMENT", "2012-08-27", 23], ["CDISCPILOT01", "QS", "01-701-1023", 3049, "NPITM05S", "ANXIETY Score", "NPI", "ANXIETY", "2", "", "2", 2, "", "", "", "", "Y", 4.0, "WEEK 2", 14, "TREATMENT", "2012-08-27", 23], ["CDISCPILOT01", "QS", "01-701-1023", 3079, "NPITM05F", "ANXIETY FREQUENCY", "NPI", "ANXIETY", "2", "", "2", 2, "", "", "", "", "", 5.0, "WEEK 4", 28, "TREATMENT", "2012-09-02", 29], ["CDISCPILOT01", "QS", "01-701-1023", 3080, "NPITM05V", "ANXIETY SEVERITY", "NPI", "ANXIETY", "2", "", "2", 2, "", "", "", "", "", 5.0, "WEEK 4", 28, "TREATMENT", "2012-09-02", 29], ["CDISCPILOT01", "QS", "01-701-1023", 3081, "NPITM05D", "ANXIETY DISTRESS", "NPI", "ANXIETY", "3", "", "3", 3, "", "", "", "", "", 5.0, "WEEK 4", 28, "TREATMENT", "2012-09-02", 29], ["CDISCPILOT01", "QS", "01-701-1023", 3082, "NPITM05S", "ANXIETY Score", "NPI", "ANXIETY", "4", "", "4", 4, "", "", "", "", "Y", 5.0, "WEEK 4", 28, "TREATMENT", "2012-09-02", 29], ["CDISCPILOT01", "QS", "01-701-1023", 3110, "NPITM05F", "ANXIETY FREQUENCY", "NPI", "ANXIETY", "2", "", "2", 2, "", "", "", "", "", 201.0, "RETRIEVAL", 168, "TREATMENT", "2013-02-18", 198], ["CDISCPILOT01", "QS", "01-701-1023", 3111, "NPITM05V", "ANXIETY SEVERITY", "NPI", "ANXIETY", "2", "", "2", 2, "", "", "", "", "", 201.0, "RETRIEVAL", 168, "TREATMENT", "2013-02-18", 198], ["CDISCPILOT01", "QS", "01-701-1023", 3112, "NPITM05D", "ANXIETY DISTRESS", "NPI", "ANXIETY", "3", "", "3", 3, "", "", "", "", "", 201.0, "RETRIEVAL", 168, "TREATMENT", "2013-02-18", 198], ["CDISCPILOT01", "QS", "01-701-1023", 3113, "NPITM05S", "ANXIETY Score", "NPI", "ANXIETY", "4", "", "4", 4, "", "", "", "", "Y", 201.0, "RETRIEVAL", 168, "TREATMENT", "2013-02-18", 198], ["CDISCPILOT01", "QS", "01-701-1023", 3017, "NPITM06", "EUPHORIA/ELATION PRESENT", "NPI", "EUPHORIA/ELATION", "ABSENT", "", "0", 0, "", "", "", "Y", "", 3.0, "BASELINE", 1, "TREATMENT", "2012-08-05", 1], ["CDISCPILOT01", "QS", "01-701-1023", 3018, "NPITM06S", "EUPHORIA/ELATION Score", "NPI", "EUPHORIA/ELATION", "0", "", "0", 0, "", "", "", "Y", "Y", 3.0, "BASELINE", 1, "TREATMENT", "2012-08-05", 1], ["CDISCPILOT01", "QS", "01-701-1023", 3050, "NPITM06", "EUPHORIA/ELATION PRESENT", "NPI", "EUPHORIA/ELATION", "ABSENT", "", "0", 0, "", "", "", "", "", 4.0, "WEEK 2", 14, "TREATMENT", "2012-08-27", 23], ["CDISCPILOT01", "QS", "01-701-1023", 3051, "NPITM06S", "EUPHORIA/ELATION Score", "NPI", "EUPHORIA/ELATION", "0", "", "0", 0, "", "", "", "", "Y", 4.0, "WEEK 2", 14, "TREATMENT", "2012-08-27", 23], ["CDISCPILOT01", "QS", "01-701-1023", 3083, "NPITM06", "EUPHORIA/ELATION PRESENT", "NPI", "EUPHORIA/ELATION", "ABSENT", "", "0", 0, "", "", "", "", "", 5.0, "WEEK 4", 28, "TREATMENT", "2012-09-02", 29], ["CDISCPILOT01", "QS", "01-701-1023", 3084, "NPITM06S", "EUPHORIA/ELATION Score", "NPI", "EUPHORIA/ELATION", "0", "", "0", 0, "", "", "", "", "Y", 5.0, "WEEK 4", 28, "TREATMENT", "2012-09-02", 29], ["CDISCPILOT01", "QS", "01-701-1023", 3114, "NPITM06", "EUPHORIA/ELATION PRESENT", "NPI", "EUPHORIA/ELATION", "ABSENT", "", "0", 0, "", "", "", "", "", 201.0, "RETRIEVAL", 168, "TREATMENT", "2013-02-18", 198], ["CDISCPILOT01", "QS", "01-701-1023", 3115, "NPITM06S", "EUPHORIA/ELATION Score", "NPI", "EUPHORIA/ELATION", "0", "", "0", 0, "", "", "", "", "Y", 201.0, "RETRIEVAL", 168, "TREATMENT", "2013-02-18", 198], ["CDISCPILOT01", "QS", "01-701-1023", 3019, "NPITM07", "APATHY/INDIFFERENCE PRESENT", "NPI", "APATHY/INDIFFERENCE", "ABSENT", "", "0", 0, "", "", "", "Y", "", 3.0, "BASELINE", 1, "TREATMENT", "2012-08-05", 1], ["CDISCPILOT01", "QS", "01-701-1023", 3020, "NPITM07S", "APATHY/INDIFFERENCE Score", "NPI", "APATHY/INDIFFERENCE", "0", "", "0", 0, "", "", "", "Y", "Y", 3.0, "BASELINE", 1, "TREATMENT", "2012-08-05", 1], ["CDISCPILOT01", "QS", "01-701-1023", 3052, "NPITM07", "APATHY/INDIFFERENCE PRESENT", "NPI", "APATHY/INDIFFERENCE", "ABSENT", "", "0", 0, "", "", "", "", "", 4.0, "WEEK 2", 14, "TREATMENT", "2012-08-27", 23], ["CDISCPILOT01", "QS", "01-701-1023", 3053, "NPITM07S", "APATHY/INDIFFERENCE Score", "NPI", "APATHY/INDIFFERENCE", "0", "", "0", 0, "", "", "", "", "Y", 4.0, "WEEK 2", 14, "TREATMENT", "2012-08-27", 23], ["CDISCPILOT01", "QS", "01-701-1023", 3085, "NPITM07", "APATHY/INDIFFERENCE PRESENT", "NPI", "APATHY/INDIFFERENCE", "ABSENT", "", "0", 0, "", "", "", "", "", 5.0, "WEEK 4", 28, "TREATMENT", "2012-09-02", 29], ["CDISCPILOT01", "QS", "01-701-1023", 3086, "NPITM07S", "APATHY/INDIFFERENCE Score", "NPI", "APATHY/INDIFFERENCE", "0", "", "0", 0, "", "", "", "", "Y", 5.0, "WEEK 4", 28, "TREATMENT", "2012-09-02", 29], ["CDISCPILOT01", "QS", "01-701-1023", 3116, "NPITM07", "APATHY/INDIFFERENCE PRESENT", "NPI", "APATHY/INDIFFERENCE", "ABSENT", "", "0", 0, "", "", "", "", "", 201.0, "RETRIEVAL", 168, "TREATMENT", "2013-02-18", 198], ["CDISCPILOT01", "QS", "01-701-1023", 3117, "NPITM07S", "APATHY/INDIFFERENCE Score", "NPI", "APATHY/INDIFFERENCE", "0", "", "0", 0, "", "", "", "", "Y", 201.0, "RETRIEVAL", 168, "TREATMENT", "2013-02-18", 198], ["CDISCPILOT01", "QS", "01-701-1023", 3021, "NPITM08", "DISINHIBITION PRESENT", "NPI", "DISINHIBITION", "ABSENT", "", "0", 0, "", "", "", "Y", "", 3.0, "BASELINE", 1, "TREATMENT", "2012-08-05", 1], ["CDISCPILOT01", "QS", "01-701-1023", 3022, "NPITM08S", "DISINHIBITION Score", "NPI", "DISINHIBITION", "0", "", "0", 0, "", "", "", "Y", "Y", 3.0, "BASELINE", 1, "TREATMENT", "2012-08-05", 1], ["CDISCPILOT01", "QS", "01-701-1023", 3054, "NPITM08", "DISINHIBITION PRESENT", "NPI", "DISINHIBITION", "ABSENT", "", "0", 0, "", "", "", "", "", 4.0, "WEEK 2", 14, "TREATMENT", "2012-08-27", 23], ["CDISCPILOT01", "QS", "01-701-1023", 3055, "NPITM08S", "DISINHIBITION Score", "NPI", "DISINHIBITION", "0", "", "0", 0, "", "", "", "", "Y", 4.0, "WEEK 2", 14, "TREATMENT", "2012-08-27", 23], ["CDISCPILOT01", "QS", "01-701-1023", 3087, "NPITM08", "DISINHIBITION PRESENT", "NPI", "DISINHIBITION", "ABSENT", "", "0", 0, "", "", "", "", "", 5.0, "WEEK 4", 28, "TREATMENT", "2012-09-02", 29], ["CDISCPILOT01", "QS", "01-701-1023", 3088, "NPITM08S", "DISINHIBITION Score", "NPI", "DISINHIBITION", "0", "", "0", 0, "", "", "", "", "Y", 5.0, "WEEK 4", 28, "TREATMENT", "2012-09-02", 29], ["CDISCPILOT01", "QS", "01-701-1023", 3118, "NPITM08", "DISINHIBITION PRESENT", "NPI", "DISINHIBITION", "ABSENT", "", "0", 0, "", "", "", "", "", 201.0, "RETRIEVAL", 168, "TREATMENT", "2013-02-18", 198], ["CDISCPILOT01", "QS", "01-701-1023", 3119, "NPITM08S", "DISINHIBITION Score", "NPI", "DISINHIBITION", "0", "", "0", 0, "", "", "", "", "Y", 201.0, "RETRIEVAL", 168, "TREATMENT", "2013-02-18", 198], ["CDISCPILOT01", "QS", "01-701-1023", 3023, "NPITM09F", "IRRITABILITY/LABILITY FREQUENCY", "NPI", "IRRITABILITY/LABILITY", "2", "", "2", 2, "", "", "", "Y", "", 3.0, "BASELINE", 1, "TREATMENT", "2012-08-05", 1], ["CDISCPILOT01", "QS", "01-701-1023", 3024, "NPITM09V", "IRRITABILITY/LABILITY SEVERITY", "NPI", "IRRITABILITY/LABILITY", "1", "", "1", 1, "", "", "", "Y", "", 3.0, "BASELINE", 1, "TREATMENT", "2012-08-05", 1], ["CDISCPILOT01", "QS", "01-701-1023", 3025, "NPITM09D", "IRRITABILITY/LABILITY DISTRESS", "NPI", "IRRITABILITY/LABILITY", "3", "", "3", 3, "", "", "", "Y", "", 3.0, "BASELINE", 1, "TREATMENT", "2012-08-05", 1], ["CDISCPILOT01", "QS", "01-701-1023", 3026, "NPITM09S", "IRRITABILITY/LABILITY Score", "NPI", "IRRITABILITY/LABILITY", "2", "", "2", 2, "", "", "", "Y", "Y", 3.0, "BASELINE", 1, "TREATMENT", "2012-08-05", 1], ["CDISCPILOT01", "QS", "01-701-1023", 3056, "NPITM09F", "IRRITABILITY/LABILITY FREQUENCY", "NPI", "IRRITABILITY/LABILITY", "1", "", "1", 1, "", "", "", "", "", 4.0, "WEEK 2", 14, "TREATMENT", "2012-08-27", 23], ["CDISCPILOT01", "QS", "01-701-1023", 3057, "NPITM09V", "IRRITABILITY/LABILITY SEVERITY", "NPI", "IRRITABILITY/LABILITY", "1", "", "1", 1, "", "", "", "", "", 4.0, "WEEK 2", 14, "TREATMENT", "2012-08-27", 23], ["CDISCPILOT01", "QS", "01-701-1023", 3058, "NPITM09D", "IRRITABILITY/LABILITY DISTRESS", "NPI", "IRRITABILITY/LABILITY", "2", "", "2", 2, "", "", "", "", "", 4.0, "WEEK 2", 14, "TREATMENT", "2012-08-27", 23], ["CDISCPILOT01", "QS", "01-701-1023", 3059, "NPITM09S", "IRRITABILITY/LABILITY Score", "NPI", "IRRITABILITY/LABILITY", "1", "", "1", 1, "", "", "", "", "Y", 4.0, "WEEK 2", 14, "TREATMENT", "2012-08-27", 23], ["CDISCPILOT01", "QS", "01-701-1023", 3089, "NPITM09F", "IRRITABILITY/LABILITY FREQUENCY", "NPI", "IRRITABILITY/LABILITY", "2", "", "2", 2, "", "", "", "", "", 5.0, "WEEK 4", 28, "TREATMENT", "2012-09-02", 29], ["CDISCPILOT01", "QS", "01-701-1023", 3090, "NPITM09V", "IRRITABILITY/LABILITY SEVERITY", "NPI", "IRRITABILITY/LABILITY", "1", "", "1", 1, "", "", "", "", "", 5.0, "WEEK 4", 28, "TREATMENT", "2012-09-02", 29], ["CDISCPILOT01", "QS", "01-701-1023", 3091, "NPITM09D", "IRRITABILITY/LABILITY DISTRESS", "NPI", "IRRITABILITY/LABILITY", "3", "", "3", 3, "", "", "", "", "", 5.0, "WEEK 4", 28, "TREATMENT", "2012-09-02", 29], ["CDISCPILOT01", "QS", "01-701-1023", 3092, "NPITM09S", "IRRITABILITY/LABILITY Score", "NPI", "IRRITABILITY/LABILITY", "2", "", "2", 2, "", "", "", "", "Y", 5.0, "WEEK 4", 28, "TREATMENT", "2012-09-02", 29], ["CDISCPILOT01", "QS", "01-701-1023", 3120, "NPITM09", "IRRITABILITY/LABILITY PRESENT", "NPI", "IRRITABILITY/LABILITY", "ABSENT", "", "0", 0, "", "", "", "", "", 201.0, "RETRIEVAL", 168, "TREATMENT", "2013-02-18", 198], ["CDISCPILOT01", "QS", "01-701-1023", 3121, "NPITM09S", "IRRITABILITY/LABILITY Score", "NPI", "IRRITABILITY/LABILITY", "0", "", "0", 0, "", "", "", "", "Y", 201.0, "RETRIEVAL", 168, "TREATMENT", "2013-02-18", 198], ["CDISCPILOT01", "QS", "01-701-1023", 3027, "NPITM10", "ABERRANT MOTOR BEHAVIOR PRESENT", "NPI", "ABERRANT MOTOR BEHAVIOR", "ABSENT", "", "0", 0, "", "", "", "Y", "", 3.0, "BASELINE", 1, "TREATMENT", "2012-08-05", 1], ["CDISCPILOT01", "QS", "01-701-1023", 3028, "NPITM10S", "ABERRANT MOTOR BEHAVIOR Score", "NPI", "ABERRANT MOTOR BEHAVIOR", "0", "", "0", 0, "", "", "", "Y", "Y", 3.0, "BASELINE", 1, "TREATMENT", "2012-08-05", 1], ["CDISCPILOT01", "QS", "01-701-1023", 3060, "NPITM10", "ABERRANT MOTOR BEHAVIOR PRESENT", "NPI", "ABERRANT MOTOR BEHAVIOR", "ABSENT", "", "0", 0, "", "", "", "", "", 4.0, "WEEK 2", 14, "TREATMENT", "2012-08-27", 23], ["CDISCPILOT01", "QS", "01-701-1023", 3061, "NPITM10S", "ABERRANT MOTOR BEHAVIOR Score", "NPI", "ABERRANT MOTOR BEHAVIOR", "0", "", "0", 0, "", "", "", "", "Y", 4.0, "WEEK 2", 14, "TREATMENT", "2012-08-27", 23], ["CDISCPILOT01", "QS", "01-701-1023", 3093, "NPITM10", "ABERRANT MOTOR BEHAVIOR PRESENT", "NPI", "ABERRANT MOTOR BEHAVIOR", "ABSENT", "", "0", 0, "", "", "", "", "", 5.0, "WEEK 4", 28, "TREATMENT", "2012-09-02", 29], ["CDISCPILOT01", "QS", "01-701-1023", 3094, "NPITM10S", "ABERRANT MOTOR BEHAVIOR Score", "NPI", "ABERRANT MOTOR BEHAVIOR", "0", "", "0", 0, "", "", "", "", "Y", 5.0, "WEEK 4", 28, "TREATMENT", "2012-09-02", 29], ["CDISCPILOT01", "QS", "01-701-1023", 3122, "NPITM10", "ABERRANT MOTOR BEHAVIOR PRESENT", "NPI", "ABERRANT MOTOR BEHAVIOR", "ABSENT", "", "0", 0, "", "", "", "", "", 201.0, "RETRIEVAL", 168, "TREATMENT", "2013-02-18", 198], ["CDISCPILOT01", "QS", "01-701-1023", 3123, "NPITM10S", "ABERRANT MOTOR BEHAVIOR Score", "NPI", "ABERRANT MOTOR BEHAVIOR", "0", "", "0", 0, "", "", "", "", "Y", 201.0, "RETRIEVAL", 168, "TREATMENT", "2013-02-18", 198], ["CDISCPILOT01", "QS", "01-701-1023", 3029, "NPITM11", "NIGHT-TIME BEHAVIOR PRESENT", "NPI", "NIGHT-TIME BEHAVIOR", "ABSENT", "", "0", 0, "", "", "", "Y", "", 3.0, "BASELINE", 1, "TREATMENT", "2012-08-05", 1], ["CDISCPILOT01", "QS", "01-701-1023", 3030, "NPITM11S", "NIGHT-TIME BEHAVIOR Score", "NPI", "NIGHT-TIME BEHAVIOR", "0", "", "0", 0, "", "", "", "Y", "Y", 3.0, "BASELINE", 1, "TREATMENT", "2012-08-05", 1], ["CDISCPILOT01", "QS", "01-701-1023", 3062, "NPITM11", "NIGHT-TIME BEHAVIOR PRESENT", "NPI", "NIGHT-TIME BEHAVIOR", "ABSENT", "", "0", 0, "", "", "", "", "", 4.0, "WEEK 2", 14, "TREATMENT", "2012-08-27", 23], ["CDISCPILOT01", "QS", "01-701-1023", 3063, "NPITM11S", "NIGHT-TIME BEHAVIOR Score", "NPI", "NIGHT-TIME BEHAVIOR", "0", "", "0", 0, "", "", "", "", "Y", 4.0, "WEEK 2", 14, "TREATMENT", "2012-08-27", 23], ["CDISCPILOT01", "QS", "01-701-1023", 3095, "NPITM11", "NIGHT-TIME BEHAVIOR PRESENT", "NPI", "NIGHT-TIME BEHAVIOR", "ABSENT", "", "0", 0, "", "", "", "", "", 5.0, "WEEK 4", 28, "TREATMENT", "2012-09-02", 29], ["CDISCPILOT01", "QS", "01-701-1023", 3096, "NPITM11S", "NIGHT-TIME BEHAVIOR Score", "NPI", "NIGHT-TIME BEHAVIOR", "0", "", "0", 0, "", "", "", "", "Y", 5.0, "WEEK 4", 28, "TREATMENT", "2012-09-02", 29], ["CDISCPILOT01", "QS", "01-701-1023", 3124, "NPITM11", "NIGHT-TIME BEHAVIOR PRESENT", "NPI", "NIGHT-TIME BEHAVIOR", "ABSENT", "", "0", 0, "", "", "", "", "", 201.0, "RETRIEVAL", 168, "TREATMENT", "2013-02-18", 198], ["CDISCPILOT01", "QS", "01-701-1023", 3125, "NPITM11S", "NIGHT-TIME BEHAVIOR Score", "NPI", "NIGHT-TIME BEHAVIOR", "0", "", "0", 0, "", "", "", "", "Y", 201.0, "RETRIEVAL", 168, "TREATMENT", "2013-02-18", 198], ["CDISCPILOT01", "QS", "01-701-1023", 3031, "NPITM12", "APPETITE/EATING CHANGE PRESENT", "NPI", "APPETITE/EATING CHANGE", "ABSENT", "", "0", 0, "", "", "", "Y", "", 3.0, "BASELINE", 1, "TREATMENT", "2012-08-05", 1], ["CDISCPILOT01", "QS", "01-701-1023", 3032, "NPITM12S", "APPETITE/EATING CHANGE Score", "NPI", "APPETITE/EATING CHANGE", "0", "", "0", 0, "", "", "", "Y", "Y", 3.0, "BASELINE", 1, "TREATMENT", "2012-08-05", 1], ["CDISCPILOT01", "QS", "01-701-1023", 3064, "NPITM12", "APPETITE/EATING CHANGE PRESENT", "NPI", "APPETITE/EATING CHANGE", "ABSENT", "", "0", 0, "", "", "", "", "", 4.0, "WEEK 2", 14, "TREATMENT", "2012-08-27", 23], ["CDISCPILOT01", "QS", "01-701-1023", 3065, "NPITM12S", "APPETITE/EATING CHANGE Score", "NPI", "APPETITE/EATING CHANGE", "0", "", "0", 0, "", "", "", "", "Y", 4.0, "WEEK 2", 14, "TREATMENT", "2012-08-27", 23], ["CDISCPILOT01", "QS", "01-701-1023", 3097, "NPITM12", "APPETITE/EATING CHANGE PRESENT", "NPI", "APPETITE/EATING CHANGE", "ABSENT", "", "0", 0, "", "", "", "", "", 5.0, "WEEK 4", 28, "TREATMENT", "2012-09-02", 29], ["CDISCPILOT01", "QS", "01-701-1023", 3098, "NPITM12S", "APPETITE/EATING CHANGE Score", "NPI", "APPETITE/EATING CHANGE", "0", "", "0", 0, "", "", "", "", "Y", 5.0, "WEEK 4", 28, "TREATMENT", "2012-09-02", 29], ["CDISCPILOT01", "QS", "01-701-1023", 3126, "NPITM12", "APPETITE/EATING CHANGE PRESENT", "NPI", "APPETITE/EATING CHANGE", "ABSENT", "", "0", 0, "", "", "", "", "", 201.0, "RETRIEVAL", 168, "TREATMENT", "2013-02-18", 198], ["CDISCPILOT01", "QS", "01-701-1023", 3127, "NPITM12S", "APPETITE/EATING CHANGE Score", "NPI", "APPETITE/EATING CHANGE", "0", "", "0", 0, "", "", "", "", "Y", 201.0, "RETRIEVAL", 168, "TREATMENT", "2013-02-18", 198], ["CDISCPILOT01", "QS", "01-701-1023", 3033, "NPTOT", "NPI-X (9) Total Score", "NPI", "APPETITE/EATING CHANGE", "", "", "11", 11, "", "", "", "Y", "Y", 3.0, "BASELINE", 1, "TREATMENT", "2012-08-05", 1], ["CDISCPILOT01", "QS", "01-701-1023", 3066, "NPTOT", "NPI-X (9) Total Score", "NPI", "APPETITE/EATING CHANGE", "", "", "10", 10, "", "", "", "", "Y", 4.0, "WEEK 2", 14, "TREATMENT", "2012-08-27", 23], ["CDISCPILOT01", "QS", "01-701-1023", 3099, "NPTOT", "NPI-X (9) Total Score", "NPI", "APPETITE/EATING CHANGE", "", "", "11", 11, "", "", "", "", "Y", 5.0, "WEEK 4", 28, "TREATMENT", "2012-09-02", 29], ["CDISCPILOT01", "QS", "01-701-1023", 3128, "NPTOT", "NPI-X (9) Total Score", "NPI", "APPETITE/EATING CHANGE", "", "", "5", 5, "", "", "", "", "Y", 201.0, "RETRIEVAL", 168, "TREATMENT", "2013-02-18", 198], ["CDISCPILOT01", "QS", "01-701-1028", 3001, "NPITM01", "DELUSIONS PRESENT", "NPI", "DELUSIONS", "ABSENT", "", "0", 0, "", "", "", "Y", "", 3.0, "BASELINE", 1, "TREATMENT", "2013-07-19", 1], ["CDISCPILOT01", "QS", "01-701-1028", 3002, "NPITM01S", "DELUSIONS Score", "NPI", "DELUSIONS", "0", "", "0", 0, "", "", "", "Y", "Y", 3.0, "BASELINE", 1, "TREATMENT", "2013-07-19", 1], ["CDISCPILOT01", "QS", "01-701-1028", 3028, "NPITM01", "DELUSIONS PRESENT", "NPI", "DELUSIONS", "ABSENT", "", "0", 0, "", "", "", "", "", 4.0, "WEEK 2", 14, "TREATMENT", "2013-08-01", 14], ["CDISCPILOT01", "QS", "01-701-1028", 3029, "NPITM01S", "DELUSIONS Score", "NPI", "DELUSIONS", "0", "", "0", 0, "", "", "", "", "Y", 4.0, "WEEK 2", 14, "TREATMENT", "2013-08-01", 14], ["CDISCPILOT01", "QS", "01-701-1028", 3055, "NPITM01", "DELUSIONS PRESENT", "NPI", "DELUSIONS", "ABSENT", "", "0", 0, "", "", "", "", "", 5.0, "WEEK 4", 28, "TREATMENT", "2013-08-14", 27], ["CDISCPILOT01", "QS", "01-701-1028", 3056, "NPITM01S", "DELUSIONS Score", "NPI", "DELUSIONS", "0", "", "0", 0, "", "", "", "", "Y", 5.0, "WEEK 4", 28, "TREATMENT", "2013-08-14", 27], ["CDISCPILOT01", "QS", "01-701-1028", 3082, "NPITM01", "DELUSIONS PRESENT", "NPI", "DELUSIONS", "ABSENT", "", "0", 0, "", "", "", "", "", 7.0, "WEEK 6", 42, "TREATMENT", "2013-08-29", 42], ["CDISCPILOT01", "QS", "01-701-1028", 3083, "NPITM01S", "DELUSIONS Score", "NPI", "DELUSIONS", "0", "", "0", 0, "", "", "", "", "Y", 7.0, "WEEK 6", 42, "TREATMENT", "2013-08-29", 42], ["CDISCPILOT01", "QS", "01-701-1028", 3109, "NPITM01", "DELUSIONS PRESENT", "NPI", "DELUSIONS", "ABSENT", "", "0", 0, "", "", "", "", "", 8.0, "WEEK 8", 56, "TREATMENT", "2013-09-10", 54], ["CDISCPILOT01", "QS", "01-701-1028", 3110, "NPITM01S", "DELUSIONS Score", "NPI", "DELUSIONS", "0", "", "0", 0, "", "", "", "", "Y", 8.0, "WEEK 8", 56, "TREATMENT", "2013-09-10", 54], ["CDISCPILOT01", "QS", "01-701-1028", 3138, "NPITM01", "DELUSIONS PRESENT", "NPI", "DELUSIONS", "ABSENT", "", "0", 0, "", "", "", "", "", 8.1, "WEEK 10 (T)", 70, "TREATMENT", "2013-09-24", 68], ["CDISCPILOT01", "QS", "01-701-1028", 3139, "NPITM01S", "DELUSIONS Score", "NPI", "DELUSIONS", "0", "", "0", 0, "", "", "", "", "Y", 8.1, "WEEK 10 (T)", 70, "TREATMENT", "2013-09-24", 68], ["CDISCPILOT01", "QS", "01-701-1028", 3165, "NPITM01", "DELUSIONS PRESENT", "NPI", "DELUSIONS", "ABSENT", "", "0", 0, "", "", "", "", "", 9.0, "WEEK 12", 84, "TREATMENT", "2013-10-09", 83], ["CDISCPILOT01", "QS", "01-701-1028", 3166, "NPITM01S", "DELUSIONS Score", "NPI", "DELUSIONS", "0", "", "0", 0, "", "", "", "", "Y", 9.0, "WEEK 12", 84, "TREATMENT", "2013-10-09", 83], ["CDISCPILOT01", "QS", "01-701-1028", 3192, "NPITM01", "DELUSIONS PRESENT", "NPI", "DELUSIONS", "ABSENT", "", "0", 0, "", "", "", "", "", 9.1, "WEEK 14 (T)", 98, "TREATMENT", "2013-10-23", 97], ["CDISCPILOT01", "QS", "01-701-1028", 3193, "NPITM01S", "DELUSIONS Score", "NPI", "DELUSIONS", "0", "", "0", 0, "", "", "", "", "Y", 9.1, "WEEK 14 (T)", 98, "TREATMENT", "2013-10-23", 97], ["CDISCPILOT01", "QS", "01-701-1028", 3219, "NPITM01", "DELUSIONS PRESENT", "NPI", "DELUSIONS", "ABSENT", "", "0", 0, "", "", "", "", "", 10.0, "WEEK 16", 112, "TREATMENT", "2013-11-06", 111], ["CDISCPILOT01", "QS", "01-701-1028", 3220, "NPITM01S", "DELUSIONS Score", "NPI", "DELUSIONS", "0", "", "0", 0, "", "", "", "", "Y", 10.0, "WEEK 16", 112, "TREATMENT", "2013-11-06", 111], ["CDISCPILOT01", "QS", "01-701-1028", 3246, "NPITM01", "DELUSIONS PRESENT", "NPI", "DELUSIONS", "ABSENT", "", "0", 0, "", "", "", "", "", 10.1, "WEEK 18 (T)", 126, "TREATMENT", "2013-11-20", 125], ["CDISCPILOT01", "QS", "01-701-1028", 3247, "NPITM01S", "DELUSIONS Score", "NPI", "DELUSIONS", "0", "", "0", 0, "", "", "", "", "Y", 10.1, "WEEK 18 (T)", 126, "TREATMENT", "2013-11-20", 125], ["CDISCPILOT01", "QS", "01-701-1028", 3273, "NPITM01", "DELUSIONS PRESENT", "NPI", "DELUSIONS", "ABSENT", "", "0", 0, "", "", "", "", "", 11.0, "WEEK 20", 140, "TREATMENT", "2013-12-04", 139], ["CDISCPILOT01", "QS", "01-701-1028", 3274, "NPITM01S", "DELUSIONS Score", "NPI", "DELUSIONS", "0", "", "0", 0, "", "", "", "", "Y", 11.0, "WEEK 20", 140, "TREATMENT", "2013-12-04", 139], ["CDISCPILOT01", "QS", "01-701-1028", 3300, "NPITM01", "DELUSIONS PRESENT", "NPI", "DELUSIONS", "ABSENT", "", "0", 0, "", "", "", "", "", 11.1, "WEEK 22 (T)", 154, "TREATMENT", "2013-12-18", 153], ["CDISCPILOT01", "QS", "01-701-1028", 3301, "NPITM01S", "DELUSIONS Score", "NPI", "DELUSIONS", "0", "", "0", 0, "", "", "", "", "Y", 11.1, "WEEK 22 (T)", 154, "TREATMENT", "2013-12-18", 153], ["CDISCPILOT01", "QS", "01-701-1028", 3327, "NPITM01", "DELUSIONS PRESENT", "NPI", "DELUSIONS", "ABSENT", "", "0", 0, "", "", "", "", "", 12.0, "WEEK 24", 168, "TREATMENT", "2014-01-06", 172], ["CDISCPILOT01", "QS", "01-701-1028", 3328, "NPITM01S", "DELUSIONS Score", "NPI", "DELUSIONS", "0", "", "0", 0, "", "", "", "", "Y", 12.0, "WEEK 24", 168, "TREATMENT", "2014-01-06", 172], ["CDISCPILOT01", "QS", "01-701-1028", 3354, "NPITM01", "DELUSIONS PRESENT", "NPI", "DELUSIONS", "ABSENT", "", "0", 0, "", "", "", "", "", 13.0, "WEEK 26", 182, "TREATMENT", "2014-01-14", 180], ["CDISCPILOT01", "QS", "01-701-1028", 3355, "NPITM01S", "DELUSIONS Score", "NPI", "DELUSIONS", "0", "", "0", 0, "", "", "", "", "Y", 13.0, "WEEK 26", 182, "TREATMENT", "2014-01-14", 180], ["CDISCPILOT01", "QS", "01-701-1028", 3003, "NPITM02", "HALLUCINATIONS PRESENT", "NPI", "HALLUCINATIONS", "ABSENT", "", "0", 0, "", "", "", "Y", "", 3.0, "BASELINE", 1, "TREATMENT", "2013-07-19", 1], ["CDISCPILOT01", "QS", "01-701-1028", 3004, "NPITM02S", "HALLUCINATIONS Score", "NPI", "HALLUCINATIONS", "0", "", "0", 0, "", "", "", "Y", "Y", 3.0, "BASELINE", 1, "TREATMENT", "2013-07-19", 1], ["CDISCPILOT01", "QS", "01-701-1028", 3030, "NPITM02", "HALLUCINATIONS PRESENT", "NPI", "HALLUCINATIONS", "ABSENT", "", "0", 0, "", "", "", "", "", 4.0, "WEEK 2", 14, "TREATMENT", "2013-08-01", 14], ["CDISCPILOT01", "QS", "01-701-1028", 3031, "NPITM02S", "HALLUCINATIONS Score", "NPI", "HALLUCINATIONS", "0", "", "0", 0, "", "", "", "", "Y", 4.0, "WEEK 2", 14, "TREATMENT", "2013-08-01", 14], ["CDISCPILOT01", "QS", "01-701-1028", 3057, "NPITM02", "HALLUCINATIONS PRESENT", "NPI", "HALLUCINATIONS", "ABSENT", "", "0", 0, "", "", "", "", "", 5.0, "WEEK 4", 28, "TREATMENT", "2013-08-14", 27], ["CDISCPILOT01", "QS", "01-701-1028", 3058, "NPITM02S", "HALLUCINATIONS Score", "NPI", "HALLUCINATIONS", "0", "", "0", 0, "", "", "", "", "Y", 5.0, "WEEK 4", 28, "TREATMENT", "2013-08-14", 27], ["CDISCPILOT01", "QS", "01-701-1028", 3084, "NPITM02", "HALLUCINATIONS PRESENT", "NPI", "HALLUCINATIONS", "ABSENT", "", "0", 0, "", "", "", "", "", 7.0, "WEEK 6", 42, "TREATMENT", "2013-08-29", 42], ["CDISCPILOT01", "QS", "01-701-1028", 3085, "NPITM02S", "HALLUCINATIONS Score", "NPI", "HALLUCINATIONS", "0", "", "0", 0, "", "", "", "", "Y", 7.0, "WEEK 6", 42, "TREATMENT", "2013-08-29", 42], ["CDISCPILOT01", "QS", "01-701-1028", 3111, "NPITM02", "HALLUCINATIONS PRESENT", "NPI", "HALLUCINATIONS", "ABSENT", "", "0", 0, "", "", "", "", "", 8.0, "WEEK 8", 56, "TREATMENT", "2013-09-10", 54], ["CDISCPILOT01", "QS", "01-701-1028", 3112, "NPITM02S", "HALLUCINATIONS Score", "NPI", "HALLUCINATIONS", "0", "", "0", 0, "", "", "", "", "Y", 8.0, "WEEK 8", 56, "TREATMENT", "2013-09-10", 54], ["CDISCPILOT01", "QS", "01-701-1028", 3140, "NPITM02", "HALLUCINATIONS PRESENT", "NPI", "HALLUCINATIONS", "ABSENT", "", "0", 0, "", "", "", "", "", 8.1, "WEEK 10 (T)", 70, "TREATMENT", "2013-09-24", 68], ["CDISCPILOT01", "QS", "01-701-1028", 3141, "NPITM02S", "HALLUCINATIONS Score", "NPI", "HALLUCINATIONS", "0", "", "0", 0, "", "", "", "", "Y", 8.1, "WEEK 10 (T)", 70, "TREATMENT", "2013-09-24", 68], ["CDISCPILOT01", "QS", "01-701-1028", 3167, "NPITM02", "HALLUCINATIONS PRESENT", "NPI", "HALLUCINATIONS", "ABSENT", "", "0", 0, "", "", "", "", "", 9.0, "WEEK 12", 84, "TREATMENT", "2013-10-09", 83], ["CDISCPILOT01", "QS", "01-701-1028", 3168, "NPITM02S", "HALLUCINATIONS Score", "NPI", "HALLUCINATIONS", "0", "", "0", 0, "", "", "", "", "Y", 9.0, "WEEK 12", 84, "TREATMENT", "2013-10-09", 83], ["CDISCPILOT01", "QS", "01-701-1028", 3194, "NPITM02", "HALLUCINATIONS PRESENT", "NPI", "HALLUCINATIONS", "ABSENT", "", "0", 0, "", "", "", "", "", 9.1, "WEEK 14 (T)", 98, "TREATMENT", "2013-10-23", 97], ["CDISCPILOT01", "QS", "01-701-1028", 3195, "NPITM02S", "HALLUCINATIONS Score", "NPI", "HALLUCINATIONS", "0", "", "0", 0, "", "", "", "", "Y", 9.1, "WEEK 14 (T)", 98, "TREATMENT", "2013-10-23", 97], ["CDISCPILOT01", "QS", "01-701-1028", 3221, "NPITM02", "HALLUCINATIONS PRESENT", "NPI", "HALLUCINATIONS", "ABSENT", "", "0", 0, "", "", "", "", "", 10.0, "WEEK 16", 112, "TREATMENT", "2013-11-06", 111], ["CDISCPILOT01", "QS", "01-701-1028", 3222, "NPITM02S", "HALLUCINATIONS Score", "NPI", "HALLUCINATIONS", "0", "", "0", 0, "", "", "", "", "Y", 10.0, "WEEK 16", 112, "TREATMENT", "2013-11-06", 111], ["CDISCPILOT01", "QS", "01-701-1028", 3248, "NPITM02", "HALLUCINATIONS PRESENT", "NPI", "HALLUCINATIONS", "ABSENT", "", "0", 0, "", "", "", "", "", 10.1, "WEEK 18 (T)", 126, "TREATMENT", "2013-11-20", 125], ["CDISCPILOT01", "QS", "01-701-1028", 3249, "NPITM02S", "HALLUCINATIONS Score", "NPI", "HALLUCINATIONS", "0", "", "0", 0, "", "", "", "", "Y", 10.1, "WEEK 18 (T)", 126, "TREATMENT", "2013-11-20", 125], ["CDISCPILOT01", "QS", "01-701-1028", 3275, "NPITM02", "HALLUCINATIONS PRESENT", "NPI", "HALLUCINATIONS", "ABSENT", "", "0", 0, "", "", "", "", "", 11.0, "WEEK 20", 140, "TREATMENT", "2013-12-04", 139], ["CDISCPILOT01", "QS", "01-701-1028", 3276, "NPITM02S", "HALLUCINATIONS Score", "NPI", "HALLUCINATIONS", "0", "", "0", 0, "", "", "", "", "Y", 11.0, "WEEK 20", 140, "TREATMENT", "2013-12-04", 139], ["CDISCPILOT01", "QS", "01-701-1028", 3302, "NPITM02", "HALLUCINATIONS PRESENT", "NPI", "HALLUCINATIONS", "ABSENT", "", "0", 0, "", "", "", "", "", 11.1, "WEEK 22 (T)", 154, "TREATMENT", "2013-12-18", 153], ["CDISCPILOT01", "QS", "01-701-1028", 3303, "NPITM02S", "HALLUCINATIONS Score", "NPI", "HALLUCINATIONS", "0", "", "0", 0, "", "", "", "", "Y", 11.1, "WEEK 22 (T)", 154, "TREATMENT", "2013-12-18", 153], ["CDISCPILOT01", "QS", "01-701-1028", 3329, "NPITM02", "HALLUCINATIONS PRESENT", "NPI", "HALLUCINATIONS", "ABSENT", "", "0", 0, "", "", "", "", "", 12.0, "WEEK 24", 168, "TREATMENT", "2014-01-06", 172], ["CDISCPILOT01", "QS", "01-701-1028", 3330, "NPITM02S", "HALLUCINATIONS Score", "NPI", "HALLUCINATIONS", "0", "", "0", 0, "", "", "", "", "Y", 12.0, "WEEK 24", 168, "TREATMENT", "2014-01-06", 172], ["CDISCPILOT01", "QS", "01-701-1028", 3356, "NPITM02", "HALLUCINATIONS PRESENT", "NPI", "HALLUCINATIONS", "ABSENT", "", "0", 0, "", "", "", "", "", 13.0, "WEEK 26", 182, "TREATMENT", "2014-01-14", 180], ["CDISCPILOT01", "QS", "01-701-1028", 3357, "NPITM02S", "HALLUCINATIONS Score", "NPI", "HALLUCINATIONS", "0", "", "0", 0, "", "", "", "", "Y", 13.0, "WEEK 26", 182, "TREATMENT", "2014-01-14", 180], ["CDISCPILOT01", "QS", "01-701-1028", 3005, "NPITM03", "AGITATION/AGRESSION PRESENT", "NPI", "AGITATION/AGRESSION", "ABSENT", "", "0", 0, "", "", "", "Y", "", 3.0, "BASELINE", 1, "TREATMENT", "2013-07-19", 1], ["CDISCPILOT01", "QS", "01-701-1028", 3006, "NPITM03S", "AGITATION/AGRESSION Score", "NPI", "AGITATION/AGRESSION", "0", "", "0", 0, "", "", "", "Y", "Y", 3.0, "BASELINE", 1, "TREATMENT", "2013-07-19", 1], ["CDISCPILOT01", "QS", "01-701-1028", 3032, "NPITM03", "AGITATION/AGRESSION PRESENT", "NPI", "AGITATION/AGRESSION", "ABSENT", "", "0", 0, "", "", "", "", "", 4.0, "WEEK 2", 14, "TREATMENT", "2013-08-01", 14], ["CDISCPILOT01", "QS", "01-701-1028", 3033, "NPITM03S", "AGITATION/AGRESSION Score", "NPI", "AGITATION/AGRESSION", "0", "", "0", 0, "", "", "", "", "Y", 4.0, "WEEK 2", 14, "TREATMENT", "2013-08-01", 14], ["CDISCPILOT01", "QS", "01-701-1028", 3059, "NPITM03", "AGITATION/AGRESSION PRESENT", "NPI", "AGITATION/AGRESSION", "ABSENT", "", "0", 0, "", "", "", "", "", 5.0, "WEEK 4", 28, "TREATMENT", "2013-08-14", 27], ["CDISCPILOT01", "QS", "01-701-1028", 3060, "NPITM03S", "AGITATION/AGRESSION Score", "NPI", "AGITATION/AGRESSION", "0", "", "0", 0, "", "", "", "", "Y", 5.0, "WEEK 4", 28, "TREATMENT", "2013-08-14", 27], ["CDISCPILOT01", "QS", "01-701-1028", 3086, "NPITM03", "AGITATION/AGRESSION PRESENT", "NPI", "AGITATION/AGRESSION", "ABSENT", "", "0", 0, "", "", "", "", "", 7.0, "WEEK 6", 42, "TREATMENT", "2013-08-29", 42], ["CDISCPILOT01", "QS", "01-701-1028", 3087, "NPITM03S", "AGITATION/AGRESSION Score", "NPI", "AGITATION/AGRESSION", "0", "", "0", 0, "", "", "", "", "Y", 7.0, "WEEK 6", 42, "TREATMENT", "2013-08-29", 42], ["CDISCPILOT01", "QS", "01-701-1028", 3113, "NPITM03", "AGITATION/AGRESSION PRESENT", "NPI", "AGITATION/AGRESSION", "ABSENT", "", "0", 0, "", "", "", "", "", 8.0, "WEEK 8", 56, "TREATMENT", "2013-09-10", 54], ["CDISCPILOT01", "QS", "01-701-1028", 3114, "NPITM03S", "AGITATION/AGRESSION Score", "NPI", "AGITATION/AGRESSION", "0", "", "0", 0, "", "", "", "", "Y", 8.0, "WEEK 8", 56, "TREATMENT", "2013-09-10", 54], ["CDISCPILOT01", "QS", "01-701-1028", 3142, "NPITM03", "AGITATION/AGRESSION PRESENT", "NPI", "AGITATION/AGRESSION", "ABSENT", "", "0", 0, "", "", "", "", "", 8.1, "WEEK 10 (T)", 70, "TREATMENT", "2013-09-24", 68], ["CDISCPILOT01", "QS", "01-701-1028", 3143, "NPITM03S", "AGITATION/AGRESSION Score", "NPI", "AGITATION/AGRESSION", "0", "", "0", 0, "", "", "", "", "Y", 8.1, "WEEK 10 (T)", 70, "TREATMENT", "2013-09-24", 68], ["CDISCPILOT01", "QS", "01-701-1028", 3169, "NPITM03", "AGITATION/AGRESSION PRESENT", "NPI", "AGITATION/AGRESSION", "ABSENT", "", "0", 0, "", "", "", "", "", 9.0, "WEEK 12", 84, "TREATMENT", "2013-10-09", 83], ["CDISCPILOT01", "QS", "01-701-1028", 3170, "NPITM03S", "AGITATION/AGRESSION Score", "NPI", "AGITATION/AGRESSION", "0", "", "0", 0, "", "", "", "", "Y", 9.0, "WEEK 12", 84, "TREATMENT", "2013-10-09", 83], ["CDISCPILOT01", "QS", "01-701-1028", 3196, "NPITM03", "AGITATION/AGRESSION PRESENT", "NPI", "AGITATION/AGRESSION", "ABSENT", "", "0", 0, "", "", "", "", "", 9.1, "WEEK 14 (T)", 98, "TREATMENT", "2013-10-23", 97], ["CDISCPILOT01", "QS", "01-701-1028", 3197, "NPITM03S", "AGITATION/AGRESSION Score", "NPI", "AGITATION/AGRESSION", "0", "", "0", 0, "", "", "", "", "Y", 9.1, "WEEK 14 (T)", 98, "TREATMENT", "2013-10-23", 97], ["CDISCPILOT01", "QS", "01-701-1028", 3223, "NPITM03", "AGITATION/AGRESSION PRESENT", "NPI", "AGITATION/AGRESSION", "ABSENT", "", "0", 0, "", "", "", "", "", 10.0, "WEEK 16", 112, "TREATMENT", "2013-11-06", 111], ["CDISCPILOT01", "QS", "01-701-1028", 3224, "NPITM03S", "AGITATION/AGRESSION Score", "NPI", "AGITATION/AGRESSION", "0", "", "0", 0, "", "", "", "", "Y", 10.0, "WEEK 16", 112, "TREATMENT", "2013-11-06", 111], ["CDISCPILOT01", "QS", "01-701-1028", 3250, "NPITM03", "AGITATION/AGRESSION PRESENT", "NPI", "AGITATION/AGRESSION", "ABSENT", "", "0", 0, "", "", "", "", "", 10.1, "WEEK 18 (T)", 126, "TREATMENT", "2013-11-20", 125], ["CDISCPILOT01", "QS", "01-701-1028", 3251, "NPITM03S", "AGITATION/AGRESSION Score", "NPI", "AGITATION/AGRESSION", "0", "", "0", 0, "", "", "", "", "Y", 10.1, "WEEK 18 (T)", 126, "TREATMENT", "2013-11-20", 125], ["CDISCPILOT01", "QS", "01-701-1028", 3277, "NPITM03", "AGITATION/AGRESSION PRESENT", "NPI", "AGITATION/AGRESSION", "ABSENT", "", "0", 0, "", "", "", "", "", 11.0, "WEEK 20", 140, "TREATMENT", "2013-12-04", 139], ["CDISCPILOT01", "QS", "01-701-1028", 3278, "NPITM03S", "AGITATION/AGRESSION Score", "NPI", "AGITATION/AGRESSION", "0", "", "0", 0, "", "", "", "", "Y", 11.0, "WEEK 20", 140, "TREATMENT", "2013-12-04", 139], ["CDISCPILOT01", "QS", "01-701-1028", 3304, "NPITM03", "AGITATION/AGRESSION PRESENT", "NPI", "AGITATION/AGRESSION", "ABSENT", "", "0", 0, "", "", "", "", "", 11.1, "WEEK 22 (T)", 154, "TREATMENT", "2013-12-18", 153], ["CDISCPILOT01", "QS", "01-701-1028", 3305, "NPITM03S", "AGITATION/AGRESSION Score", "NPI", "AGITATION/AGRESSION", "0", "", "0", 0, "", "", "", "", "Y", 11.1, "WEEK 22 (T)", 154, "TREATMENT", "2013-12-18", 153], ["CDISCPILOT01", "QS", "01-701-1028", 3331, "NPITM03", "AGITATION/AGRESSION PRESENT", "NPI", "AGITATION/AGRESSION", "ABSENT", "", "0", 0, "", "", "", "", "", 12.0, "WEEK 24", 168, "TREATMENT", "2014-01-06", 172], ["CDISCPILOT01", "QS", "01-701-1028", 3332, "NPITM03S", "AGITATION/AGRESSION Score", "NPI", "AGITATION/AGRESSION", "0", "", "0", 0, "", "", "", "", "Y", 12.0, "WEEK 24", 168, "TREATMENT", "2014-01-06", 172], ["CDISCPILOT01", "QS", "01-701-1028", 3358, "NPITM03", "AGITATION/AGRESSION PRESENT", "NPI", "AGITATION/AGRESSION", "ABSENT", "", "0", 0, "", "", "", "", "", 13.0, "WEEK 26", 182, "TREATMENT", "2014-01-14", 180], ["CDISCPILOT01", "QS", "01-701-1028", 3359, "NPITM03S", "AGITATION/AGRESSION Score", "NPI", "AGITATION/AGRESSION", "0", "", "0", 0, "", "", "", "", "Y", 13.0, "WEEK 26", 182, "TREATMENT", "2014-01-14", 180], ["CDISCPILOT01", "QS", "01-701-1028", 3007, "NPITM04", "DEPRESSION/DYSPHORIA PRESENT", "NPI", "DEPRESSION/DYSPHORIA", "ABSENT", "", "0", 0, "", "", "", "Y", "", 3.0, "BASELINE", 1, "TREATMENT", "2013-07-19", 1], ["CDISCPILOT01", "QS", "01-701-1028", 3008, "NPITM04S", "DEPRESSION/DYSPHORIA Score", "NPI", "DEPRESSION/DYSPHORIA", "0", "", "0", 0, "", "", "", "Y", "Y", 3.0, "BASELINE", 1, "TREATMENT", "2013-07-19", 1], ["CDISCPILOT01", "QS", "01-701-1028", 3034, "NPITM04", "DEPRESSION/DYSPHORIA PRESENT", "NPI", "DEPRESSION/DYSPHORIA", "ABSENT", "", "0", 0, "", "", "", "", "", 4.0, "WEEK 2", 14, "TREATMENT", "2013-08-01", 14], ["CDISCPILOT01", "QS", "01-701-1028", 3035, "NPITM04S", "DEPRESSION/DYSPHORIA Score", "NPI", "DEPRESSION/DYSPHORIA", "0", "", "0", 0, "", "", "", "", "Y", 4.0, "WEEK 2", 14, "TREATMENT", "2013-08-01", 14], ["CDISCPILOT01", "QS", "01-701-1028", 3061, "NPITM04", "DEPRESSION/DYSPHORIA PRESENT", "NPI", "DEPRESSION/DYSPHORIA", "ABSENT", "", "0", 0, "", "", "", "", "", 5.0, "WEEK 4", 28, "TREATMENT", "2013-08-14", 27], ["CDISCPILOT01", "QS", "01-701-1028", 3062, "NPITM04S", "DEPRESSION/DYSPHORIA Score", "NPI", "DEPRESSION/DYSPHORIA", "0", "", "0", 0, "", "", "", "", "Y", 5.0, "WEEK 4", 28, "TREATMENT", "2013-08-14", 27], ["CDISCPILOT01", "QS", "01-701-1028", 3088, "NPITM04", "DEPRESSION/DYSPHORIA PRESENT", "NPI", "DEPRESSION/DYSPHORIA", "ABSENT", "", "0", 0, "", "", "", "", "", 7.0, "WEEK 6", 42, "TREATMENT", "2013-08-29", 42], ["CDISCPILOT01", "QS", "01-701-1028", 3089, "NPITM04S", "DEPRESSION/DYSPHORIA Score", "NPI", "DEPRESSION/DYSPHORIA", "0", "", "0", 0, "", "", "", "", "Y", 7.0, "WEEK 6", 42, "TREATMENT", "2013-08-29", 42], ["CDISCPILOT01", "QS", "01-701-1028", 3115, "NPITM04", "DEPRESSION/DYSPHORIA PRESENT", "NPI", "DEPRESSION/DYSPHORIA", "ABSENT", "", "0", 0, "", "", "", "", "", 8.0, "WEEK 8", 56, "TREATMENT", "2013-09-10", 54], ["CDISCPILOT01", "QS", "01-701-1028", 3116, "NPITM04S", "DEPRESSION/DYSPHORIA Score", "NPI", "DEPRESSION/DYSPHORIA", "0", "", "0", 0, "", "", "", "", "Y", 8.0, "WEEK 8", 56, "TREATMENT", "2013-09-10", 54], ["CDISCPILOT01", "QS", "01-701-1028", 3144, "NPITM04", "DEPRESSION/DYSPHORIA PRESENT", "NPI", "DEPRESSION/DYSPHORIA", "ABSENT", "", "0", 0, "", "", "", "", "", 8.1, "WEEK 10 (T)", 70, "TREATMENT", "2013-09-24", 68], ["CDISCPILOT01", "QS", "01-701-1028", 3145, "NPITM04S", "DEPRESSION/DYSPHORIA Score", "NPI", "DEPRESSION/DYSPHORIA", "0", "", "0", 0, "", "", "", "", "Y", 8.1, "WEEK 10 (T)", 70, "TREATMENT", "2013-09-24", 68], ["CDISCPILOT01", "QS", "01-701-1028", 3171, "NPITM04", "DEPRESSION/DYSPHORIA PRESENT", "NPI", "DEPRESSION/DYSPHORIA", "ABSENT", "", "0", 0, "", "", "", "", "", 9.0, "WEEK 12", 84, "TREATMENT", "2013-10-09", 83], ["CDISCPILOT01", "QS", "01-701-1028", 3172, "NPITM04S", "DEPRESSION/DYSPHORIA Score", "NPI", "DEPRESSION/DYSPHORIA", "0", "", "0", 0, "", "", "", "", "Y", 9.0, "WEEK 12", 84, "TREATMENT", "2013-10-09", 83], ["CDISCPILOT01", "QS", "01-701-1028", 3198, "NPITM04", "DEPRESSION/DYSPHORIA PRESENT", "NPI", "DEPRESSION/DYSPHORIA", "ABSENT", "", "0", 0, "", "", "", "", "", 9.1, "WEEK 14 (T)", 98, "TREATMENT", "2013-10-23", 97], ["CDISCPILOT01", "QS", "01-701-1028", 3199, "NPITM04S", "DEPRESSION/DYSPHORIA Score", "NPI", "DEPRESSION/DYSPHORIA", "0", "", "0", 0, "", "", "", "", "Y", 9.1, "WEEK 14 (T)", 98, "TREATMENT", "2013-10-23", 97], ["CDISCPILOT01", "QS", "01-701-1028", 3225, "NPITM04", "DEPRESSION/DYSPHORIA PRESENT", "NPI", "DEPRESSION/DYSPHORIA", "ABSENT", "", "0", 0, "", "", "", "", "", 10.0, "WEEK 16", 112, "TREATMENT", "2013-11-06", 111], ["CDISCPILOT01", "QS", "01-701-1028", 3226, "NPITM04S", "DEPRESSION/DYSPHORIA Score", "NPI", "DEPRESSION/DYSPHORIA", "0", "", "0", 0, "", "", "", "", "Y", 10.0, "WEEK 16", 112, "TREATMENT", "2013-11-06", 111], ["CDISCPILOT01", "QS", "01-701-1028", 3252, "NPITM04", "DEPRESSION/DYSPHORIA PRESENT", "NPI", "DEPRESSION/DYSPHORIA", "ABSENT", "", "0", 0, "", "", "", "", "", 10.1, "WEEK 18 (T)", 126, "TREATMENT", "2013-11-20", 125], ["CDISCPILOT01", "QS", "01-701-1028", 3253, "NPITM04S", "DEPRESSION/DYSPHORIA Score", "NPI", "DEPRESSION/DYSPHORIA", "0", "", "0", 0, "", "", "", "", "Y", 10.1, "WEEK 18 (T)", 126, "TREATMENT", "2013-11-20", 125], ["CDISCPILOT01", "QS", "01-701-1028", 3279, "NPITM04", "DEPRESSION/DYSPHORIA PRESENT", "NPI", "DEPRESSION/DYSPHORIA", "ABSENT", "", "0", 0, "", "", "", "", "", 11.0, "WEEK 20", 140, "TREATMENT", "2013-12-04", 139], ["CDISCPILOT01", "QS", "01-701-1028", 3280, "NPITM04S", "DEPRESSION/DYSPHORIA Score", "NPI", "DEPRESSION/DYSPHORIA", "0", "", "0", 0, "", "", "", "", "Y", 11.0, "WEEK 20", 140, "TREATMENT", "2013-12-04", 139], ["CDISCPILOT01", "QS", "01-701-1028", 3306, "NPITM04", "DEPRESSION/DYSPHORIA PRESENT", "NPI", "DEPRESSION/DYSPHORIA", "ABSENT", "", "0", 0, "", "", "", "", "", 11.1, "WEEK 22 (T)", 154, "TREATMENT", "2013-12-18", 153], ["CDISCPILOT01", "QS", "01-701-1028", 3307, "NPITM04S", "DEPRESSION/DYSPHORIA Score", "NPI", "DEPRESSION/DYSPHORIA", "0", "", "0", 0, "", "", "", "", "Y", 11.1, "WEEK 22 (T)", 154, "TREATMENT", "2013-12-18", 153], ["CDISCPILOT01", "QS", "01-701-1028", 3333, "NPITM04", "DEPRESSION/DYSPHORIA PRESENT", "NPI", "DEPRESSION/DYSPHORIA", "ABSENT", "", "0", 0, "", "", "", "", "", 12.0, "WEEK 24", 168, "TREATMENT", "2014-01-06", 172], ["CDISCPILOT01", "QS", "01-701-1028", 3334, "NPITM04S", "DEPRESSION/DYSPHORIA Score", "NPI", "DEPRESSION/DYSPHORIA", "0", "", "0", 0, "", "", "", "", "Y", 12.0, "WEEK 24", 168, "TREATMENT", "2014-01-06", 172], ["CDISCPILOT01", "QS", "01-701-1028", 3360, "NPITM04", "DEPRESSION/DYSPHORIA PRESENT", "NPI", "DEPRESSION/DYSPHORIA", "ABSENT", "", "0", 0, "", "", "", "", "", 13.0, "WEEK 26", 182, "TREATMENT", "2014-01-14", 180], ["CDISCPILOT01", "QS", "01-701-1028", 3361, "NPITM04S", "DEPRESSION/DYSPHORIA Score", "NPI", "DEPRESSION/DYSPHORIA", "0", "", "0", 0, "", "", "", "", "Y", 13.0, "WEEK 26", 182, "TREATMENT", "2014-01-14", 180], ["CDISCPILOT01", "QS", "01-701-1028", 3009, "NPITM05", "ANXIETY PRESENT", "NPI", "ANXIETY", "ABSENT", "", "0", 0, "", "", "", "Y", "", 3.0, "BASELINE", 1, "TREATMENT", "2013-07-19", 1], ["CDISCPILOT01", "QS", "01-701-1028", 3010, "NPITM05S", "ANXIETY Score", "NPI", "ANXIETY", "0", "", "0", 0, "", "", "", "Y", "Y", 3.0, "BASELINE", 1, "TREATMENT", "2013-07-19", 1], ["CDISCPILOT01", "QS", "01-701-1028", 3036, "NPITM05", "ANXIETY PRESENT", "NPI", "ANXIETY", "ABSENT", "", "0", 0, "", "", "", "", "", 4.0, "WEEK 2", 14, "TREATMENT", "2013-08-01", 14], ["CDISCPILOT01", "QS", "01-701-1028", 3037, "NPITM05S", "ANXIETY Score", "NPI", "ANXIETY", "0", "", "0", 0, "", "", "", "", "Y", 4.0, "WEEK 2", 14, "TREATMENT", "2013-08-01", 14], ["CDISCPILOT01", "QS", "01-701-1028", 3063, "NPITM05", "ANXIETY PRESENT", "NPI", "ANXIETY", "ABSENT", "", "0", 0, "", "", "", "", "", 5.0, "WEEK 4", 28, "TREATMENT", "2013-08-14", 27], ["CDISCPILOT01", "QS", "01-701-1028", 3064, "NPITM05S", "ANXIETY Score", "NPI", "ANXIETY", "0", "", "0", 0, "", "", "", "", "Y", 5.0, "WEEK 4", 28, "TREATMENT", "2013-08-14", 27], ["CDISCPILOT01", "QS", "01-701-1028", 3090, "NPITM05", "ANXIETY PRESENT", "NPI", "ANXIETY", "ABSENT", "", "0", 0, "", "", "", "", "", 7.0, "WEEK 6", 42, "TREATMENT", "2013-08-29", 42], ["CDISCPILOT01", "QS", "01-701-1028", 3091, "NPITM05S", "ANXIETY Score", "NPI", "ANXIETY", "0", "", "0", 0, "", "", "", "", "Y", 7.0, "WEEK 6", 42, "TREATMENT", "2013-08-29", 42], ["CDISCPILOT01", "QS", "01-701-1028", 3117, "NPITM05", "ANXIETY PRESENT", "NPI", "ANXIETY", "ABSENT", "", "0", 0, "", "", "", "", "", 8.0, "WEEK 8", 56, "TREATMENT", "2013-09-10", 54], ["CDISCPILOT01", "QS", "01-701-1028", 3118, "NPITM05S", "ANXIETY Score", "NPI", "ANXIETY", "0", "", "0", 0, "", "", "", "", "Y", 8.0, "WEEK 8", 56, "TREATMENT", "2013-09-10", 54], ["CDISCPILOT01", "QS", "01-701-1028", 3146, "NPITM05", "ANXIETY PRESENT", "NPI", "ANXIETY", "ABSENT", "", "0", 0, "", "", "", "", "", 8.1, "WEEK 10 (T)", 70, "TREATMENT", "2013-09-24", 68], ["CDISCPILOT01", "QS", "01-701-1028", 3147, "NPITM05S", "ANXIETY Score", "NPI", "ANXIETY", "0", "", "0", 0, "", "", "", "", "Y", 8.1, "WEEK 10 (T)", 70, "TREATMENT", "2013-09-24", 68], ["CDISCPILOT01", "QS", "01-701-1028", 3173, "NPITM05", "ANXIETY PRESENT", "NPI", "ANXIETY", "ABSENT", "", "0", 0, "", "", "", "", "", 9.0, "WEEK 12", 84, "TREATMENT", "2013-10-09", 83], ["CDISCPILOT01", "QS", "01-701-1028", 3174, "NPITM05S", "ANXIETY Score", "NPI", "ANXIETY", "0", "", "0", 0, "", "", "", "", "Y", 9.0, "WEEK 12", 84, "TREATMENT", "2013-10-09", 83], ["CDISCPILOT01", "QS", "01-701-1028", 3200, "NPITM05", "ANXIETY PRESENT", "NPI", "ANXIETY", "ABSENT", "", "0", 0, "", "", "", "", "", 9.1, "WEEK 14 (T)", 98, "TREATMENT", "2013-10-23", 97], ["CDISCPILOT01", "QS", "01-701-1028", 3201, "NPITM05S", "ANXIETY Score", "NPI", "ANXIETY", "0", "", "0", 0, "", "", "", "", "Y", 9.1, "WEEK 14 (T)", 98, "TREATMENT", "2013-10-23", 97], ["CDISCPILOT01", "QS", "01-701-1028", 3227, "NPITM05", "ANXIETY PRESENT", "NPI", "ANXIETY", "ABSENT", "", "0", 0, "", "", "", "", "", 10.0, "WEEK 16", 112, "TREATMENT", "2013-11-06", 111], ["CDISCPILOT01", "QS", "01-701-1028", 3228, "NPITM05S", "ANXIETY Score", "NPI", "ANXIETY", "0", "", "0", 0, "", "", "", "", "Y", 10.0, "WEEK 16", 112, "TREATMENT", "2013-11-06", 111], ["CDISCPILOT01", "QS", "01-701-1028", 3254, "NPITM05", "ANXIETY PRESENT", "NPI", "ANXIETY", "ABSENT", "", "0", 0, "", "", "", "", "", 10.1, "WEEK 18 (T)", 126, "TREATMENT", "2013-11-20", 125], ["CDISCPILOT01", "QS", "01-701-1028", 3255, "NPITM05S", "ANXIETY Score", "NPI", "ANXIETY", "0", "", "0", 0, "", "", "", "", "Y", 10.1, "WEEK 18 (T)", 126, "TREATMENT", "2013-11-20", 125], ["CDISCPILOT01", "QS", "01-701-1028", 3281, "NPITM05", "ANXIETY PRESENT", "NPI", "ANXIETY", "ABSENT", "", "0", 0, "", "", "", "", "", 11.0, "WEEK 20", 140, "TREATMENT", "2013-12-04", 139], ["CDISCPILOT01", "QS", "01-701-1028", 3282, "NPITM05S", "ANXIETY Score", "NPI", "ANXIETY", "0", "", "0", 0, "", "", "", "", "Y", 11.0, "WEEK 20", 140, "TREATMENT", "2013-12-04", 139], ["CDISCPILOT01", "QS", "01-701-1028", 3308, "NPITM05", "ANXIETY PRESENT", "NPI", "ANXIETY", "ABSENT", "", "0", 0, "", "", "", "", "", 11.1, "WEEK 22 (T)", 154, "TREATMENT", "2013-12-18", 153], ["CDISCPILOT01", "QS", "01-701-1028", 3309, "NPITM05S", "ANXIETY Score", "NPI", "ANXIETY", "0", "", "0", 0, "", "", "", "", "Y", 11.1, "WEEK 22 (T)", 154, "TREATMENT", "2013-12-18", 153], ["CDISCPILOT01", "QS", "01-701-1028", 3335, "NPITM05", "ANXIETY PRESENT", "NPI", "ANXIETY", "ABSENT", "", "0", 0, "", "", "", "", "", 12.0, "WEEK 24", 168, "TREATMENT", "2014-01-06", 172], ["CDISCPILOT01", "QS", "01-701-1028", 3336, "NPITM05S", "ANXIETY Score", "NPI", "ANXIETY", "0", "", "0", 0, "", "", "", "", "Y", 12.0, "WEEK 24", 168, "TREATMENT", "2014-01-06", 172], ["CDISCPILOT01", "QS", "01-701-1028", 3362, "NPITM05", "ANXIETY PRESENT", "NPI", "ANXIETY", "ABSENT", "", "0", 0, "", "", "", "", "", 13.0, "WEEK 26", 182, "TREATMENT", "2014-01-14", 180], ["CDISCPILOT01", "QS", "01-701-1028", 3363, "NPITM05S", "ANXIETY Score", "NPI", "ANXIETY", "0", "", "0", 0, "", "", "", "", "Y", 13.0, "WEEK 26", 182, "TREATMENT", "2014-01-14", 180], ["CDISCPILOT01", "QS", "01-701-1028", 3011, "NPITM06", "EUPHORIA/ELATION PRESENT", "NPI", "EUPHORIA/ELATION", "ABSENT", "", "0", 0, "", "", "", "Y", "", 3.0, "BASELINE", 1, "TREATMENT", "2013-07-19", 1], ["CDISCPILOT01", "QS", "01-701-1028", 3012, "NPITM06S", "EUPHORIA/ELATION Score", "NPI", "EUPHORIA/ELATION", "0", "", "0", 0, "", "", "", "Y", "Y", 3.0, "BASELINE", 1, "TREATMENT", "2013-07-19", 1], ["CDISCPILOT01", "QS", "01-701-1028", 3038, "NPITM06", "EUPHORIA/ELATION PRESENT", "NPI", "EUPHORIA/ELATION", "ABSENT", "", "0", 0, "", "", "", "", "", 4.0, "WEEK 2", 14, "TREATMENT", "2013-08-01", 14], ["CDISCPILOT01", "QS", "01-701-1028", 3039, "NPITM06S", "EUPHORIA/ELATION Score", "NPI", "EUPHORIA/ELATION", "0", "", "0", 0, "", "", "", "", "Y", 4.0, "WEEK 2", 14, "TREATMENT", "2013-08-01", 14], ["CDISCPILOT01", "QS", "01-701-1028", 3065, "NPITM06", "EUPHORIA/ELATION PRESENT", "NPI", "EUPHORIA/ELATION", "ABSENT", "", "0", 0, "", "", "", "", "", 5.0, "WEEK 4", 28, "TREATMENT", "2013-08-14", 27], ["CDISCPILOT01", "QS", "01-701-1028", 3066, "NPITM06S", "EUPHORIA/ELATION Score", "NPI", "EUPHORIA/ELATION", "0", "", "0", 0, "", "", "", "", "Y", 5.0, "WEEK 4", 28, "TREATMENT", "2013-08-14", 27], ["CDISCPILOT01", "QS", "01-701-1028", 3092, "NPITM06", "EUPHORIA/ELATION PRESENT", "NPI", "EUPHORIA/ELATION", "ABSENT", "", "0", 0, "", "", "", "", "", 7.0, "WEEK 6", 42, "TREATMENT", "2013-08-29", 42], ["CDISCPILOT01", "QS", "01-701-1028", 3093, "NPITM06S", "EUPHORIA/ELATION Score", "NPI", "EUPHORIA/ELATION", "0", "", "0", 0, "", "", "", "", "Y", 7.0, "WEEK 6", 42, "TREATMENT", "2013-08-29", 42], ["CDISCPILOT01", "QS", "01-701-1028", 3119, "NPITM06F", "EUPHORIA/ELATION FREQUENCY", "NPI", "EUPHORIA/ELATION", "1", "", "1", 1, "", "", "", "", "", 8.0, "WEEK 8", 56, "TREATMENT", "2013-09-10", 54], ["CDISCPILOT01", "QS", "01-701-1028", 3120, "NPITM06V", "EUPHORIA/ELATION SEVERITY", "NPI", "EUPHORIA/ELATION", "2", "", "2", 2, "", "", "", "", "", 8.0, "WEEK 8", 56, "TREATMENT", "2013-09-10", 54], ["CDISCPILOT01", "QS", "01-701-1028", 3121, "NPITM06D", "EUPHORIA/ELATION DISTRESS", "NPI", "EUPHORIA/ELATION", "1", "", "1", 1, "", "", "", "", "", 8.0, "WEEK 8", 56, "TREATMENT", "2013-09-10", 54], ["CDISCPILOT01", "QS", "01-701-1028", 3122, "NPITM06S", "EUPHORIA/ELATION Score", "NPI", "EUPHORIA/ELATION", "0", "", "0", 0, "", "", "", "", "Y", 8.0, "WEEK 8", 56, "TREATMENT", "2013-09-10", 54], ["CDISCPILOT01", "QS", "01-701-1028", 3148, "NPITM06", "EUPHORIA/ELATION PRESENT", "NPI", "EUPHORIA/ELATION", "ABSENT", "", "0", 0, "", "", "", "", "", 8.1, "WEEK 10 (T)", 70, "TREATMENT", "2013-09-24", 68], ["CDISCPILOT01", "QS", "01-701-1028", 3149, "NPITM06S", "EUPHORIA/ELATION Score", "NPI", "EUPHORIA/ELATION", "0", "", "0", 0, "", "", "", "", "Y", 8.1, "WEEK 10 (T)", 70, "TREATMENT", "2013-09-24", 68], ["CDISCPILOT01", "QS", "01-701-1028", 3175, "NPITM06", "EUPHORIA/ELATION PRESENT", "NPI", "EUPHORIA/ELATION", "ABSENT", "", "0", 0, "", "", "", "", "", 9.0, "WEEK 12", 84, "TREATMENT", "2013-10-09", 83], ["CDISCPILOT01", "QS", "01-701-1028", 3176, "NPITM06S", "EUPHORIA/ELATION Score", "NPI", "EUPHORIA/ELATION", "0", "", "0", 0, "", "", "", "", "Y", 9.0, "WEEK 12", 84, "TREATMENT", "2013-10-09", 83], ["CDISCPILOT01", "QS", "01-701-1028", 3202, "NPITM06", "EUPHORIA/ELATION PRESENT", "NPI", "EUPHORIA/ELATION", "ABSENT", "", "0", 0, "", "", "", "", "", 9.1, "WEEK 14 (T)", 98, "TREATMENT", "2013-10-23", 97], ["CDISCPILOT01", "QS", "01-701-1028", 3203, "NPITM06S", "EUPHORIA/ELATION Score", "NPI", "EUPHORIA/ELATION", "0", "", "0", 0, "", "", "", "", "Y", 9.1, "WEEK 14 (T)", 98, "TREATMENT", "2013-10-23", 97], ["CDISCPILOT01", "QS", "01-701-1028", 3229, "NPITM06", "EUPHORIA/ELATION PRESENT", "NPI", "EUPHORIA/ELATION", "ABSENT", "", "0", 0, "", "", "", "", "", 10.0, "WEEK 16", 112, "TREATMENT", "2013-11-06", 111], ["CDISCPILOT01", "QS", "01-701-1028", 3230, "NPITM06S", "EUPHORIA/ELATION Score", "NPI", "EUPHORIA/ELATION", "0", "", "0", 0, "", "", "", "", "Y", 10.0, "WEEK 16", 112, "TREATMENT", "2013-11-06", 111], ["CDISCPILOT01", "QS", "01-701-1028", 3256, "NPITM06", "EUPHORIA/ELATION PRESENT", "NPI", "EUPHORIA/ELATION", "ABSENT", "", "0", 0, "", "", "", "", "", 10.1, "WEEK 18 (T)", 126, "TREATMENT", "2013-11-20", 125], ["CDISCPILOT01", "QS", "01-701-1028", 3257, "NPITM06S", "EUPHORIA/ELATION Score", "NPI", "EUPHORIA/ELATION", "0", "", "0", 0, "", "", "", "", "Y", 10.1, "WEEK 18 (T)", 126, "TREATMENT", "2013-11-20", 125], ["CDISCPILOT01", "QS", "01-701-1028", 3283, "NPITM06", "EUPHORIA/ELATION PRESENT", "NPI", "EUPHORIA/ELATION", "ABSENT", "", "0", 0, "", "", "", "", "", 11.0, "WEEK 20", 140, "TREATMENT", "2013-12-04", 139], ["CDISCPILOT01", "QS", "01-701-1028", 3284, "NPITM06S", "EUPHORIA/ELATION Score", "NPI", "EUPHORIA/ELATION", "0", "", "0", 0, "", "", "", "", "Y", 11.0, "WEEK 20", 140, "TREATMENT", "2013-12-04", 139], ["CDISCPILOT01", "QS", "01-701-1028", 3310, "NPITM06", "EUPHORIA/ELATION PRESENT", "NPI", "EUPHORIA/ELATION", "ABSENT", "", "0", 0, "", "", "", "", "", 11.1, "WEEK 22 (T)", 154, "TREATMENT", "2013-12-18", 153], ["CDISCPILOT01", "QS", "01-701-1028", 3311, "NPITM06S", "EUPHORIA/ELATION Score", "NPI", "EUPHORIA/ELATION", "0", "", "0", 0, "", "", "", "", "Y", 11.1, "WEEK 22 (T)", 154, "TREATMENT", "2013-12-18", 153], ["CDISCPILOT01", "QS", "01-701-1028", 3337, "NPITM06", "EUPHORIA/ELATION PRESENT", "NPI", "EUPHORIA/ELATION", "ABSENT", "", "0", 0, "", "", "", "", "", 12.0, "WEEK 24", 168, "TREATMENT", "2014-01-06", 172], ["CDISCPILOT01", "QS", "01-701-1028", 3338, "NPITM06S", "EUPHORIA/ELATION Score", "NPI", "EUPHORIA/ELATION", "0", "", "0", 0, "", "", "", "", "Y", 12.0, "WEEK 24", 168, "TREATMENT", "2014-01-06", 172], ["CDISCPILOT01", "QS", "01-701-1028", 3364, "NPITM06", "EUPHORIA/ELATION PRESENT", "NPI", "EUPHORIA/ELATION", "ABSENT", "", "0", 0, "", "", "", "", "", 13.0, "WEEK 26", 182, "TREATMENT", "2014-01-14", 180], ["CDISCPILOT01", "QS", "01-701-1028", 3365, "NPITM06S", "EUPHORIA/ELATION Score", "NPI", "EUPHORIA/ELATION", "0", "", "0", 0, "", "", "", "", "Y", 13.0, "WEEK 26", 182, "TREATMENT", "2014-01-14", 180], ["CDISCPILOT01", "QS", "01-701-1028", 3013, "NPITM07", "APATHY/INDIFFERENCE PRESENT", "NPI", "APATHY/INDIFFERENCE", "ABSENT", "", "0", 0, "", "", "", "Y", "", 3.0, "BASELINE", 1, "TREATMENT", "2013-07-19", 1], ["CDISCPILOT01", "QS", "01-701-1028", 3014, "NPITM07S", "APATHY/INDIFFERENCE Score", "NPI", "APATHY/INDIFFERENCE", "0", "", "0", 0, "", "", "", "Y", "Y", 3.0, "BASELINE", 1, "TREATMENT", "2013-07-19", 1], ["CDISCPILOT01", "QS", "01-701-1028", 3040, "NPITM07", "APATHY/INDIFFERENCE PRESENT", "NPI", "APATHY/INDIFFERENCE", "ABSENT", "", "0", 0, "", "", "", "", "", 4.0, "WEEK 2", 14, "TREATMENT", "2013-08-01", 14], ["CDISCPILOT01", "QS", "01-701-1028", 3041, "NPITM07S", "APATHY/INDIFFERENCE Score", "NPI", "APATHY/INDIFFERENCE", "0", "", "0", 0, "", "", "", "", "Y", 4.0, "WEEK 2", 14, "TREATMENT", "2013-08-01", 14], ["CDISCPILOT01", "QS", "01-701-1028", 3067, "NPITM07", "APATHY/INDIFFERENCE PRESENT", "NPI", "APATHY/INDIFFERENCE", "ABSENT", "", "0", 0, "", "", "", "", "", 5.0, "WEEK 4", 28, "TREATMENT", "2013-08-14", 27], ["CDISCPILOT01", "QS", "01-701-1028", 3068, "NPITM07S", "APATHY/INDIFFERENCE Score", "NPI", "APATHY/INDIFFERENCE", "0", "", "0", 0, "", "", "", "", "Y", 5.0, "WEEK 4", 28, "TREATMENT", "2013-08-14", 27], ["CDISCPILOT01", "QS", "01-701-1028", 3094, "NPITM07", "APATHY/INDIFFERENCE PRESENT", "NPI", "APATHY/INDIFFERENCE", "ABSENT", "", "0", 0, "", "", "", "", "", 7.0, "WEEK 6", 42, "TREATMENT", "2013-08-29", 42], ["CDISCPILOT01", "QS", "01-701-1028", 3095, "NPITM07S", "APATHY/INDIFFERENCE Score", "NPI", "APATHY/INDIFFERENCE", "0", "", "0", 0, "", "", "", "", "Y", 7.0, "WEEK 6", 42, "TREATMENT", "2013-08-29", 42], ["CDISCPILOT01", "QS", "01-701-1028", 3123, "NPITM07", "APATHY/INDIFFERENCE PRESENT", "NPI", "APATHY/INDIFFERENCE", "ABSENT", "", "0", 0, "", "", "", "", "", 8.0, "WEEK 8", 56, "TREATMENT", "2013-09-10", 54], ["CDISCPILOT01", "QS", "01-701-1028", 3124, "NPITM07S", "APATHY/INDIFFERENCE Score", "NPI", "APATHY/INDIFFERENCE", "0", "", "0", 0, "", "", "", "", "Y", 8.0, "WEEK 8", 56, "TREATMENT", "2013-09-10", 54], ["CDISCPILOT01", "QS", "01-701-1028", 3150, "NPITM07", "APATHY/INDIFFERENCE PRESENT", "NPI", "APATHY/INDIFFERENCE", "ABSENT", "", "0", 0, "", "", "", "", "", 8.1, "WEEK 10 (T)", 70, "TREATMENT", "2013-09-24", 68], ["CDISCPILOT01", "QS", "01-701-1028", 3151, "NPITM07S", "APATHY/INDIFFERENCE Score", "NPI", "APATHY/INDIFFERENCE", "0", "", "0", 0, "", "", "", "", "Y", 8.1, "WEEK 10 (T)", 70, "TREATMENT", "2013-09-24", 68], ["CDISCPILOT01", "QS", "01-701-1028", 3177, "NPITM07", "APATHY/INDIFFERENCE PRESENT", "NPI", "APATHY/INDIFFERENCE", "ABSENT", "", "0", 0, "", "", "", "", "", 9.0, "WEEK 12", 84, "TREATMENT", "2013-10-09", 83], ["CDISCPILOT01", "QS", "01-701-1028", 3178, "NPITM07S", "APATHY/INDIFFERENCE Score", "NPI", "APATHY/INDIFFERENCE", "0", "", "0", 0, "", "", "", "", "Y", 9.0, "WEEK 12", 84, "TREATMENT", "2013-10-09", 83], ["CDISCPILOT01", "QS", "01-701-1028", 3204, "NPITM07", "APATHY/INDIFFERENCE PRESENT", "NPI", "APATHY/INDIFFERENCE", "ABSENT", "", "0", 0, "", "", "", "", "", 9.1, "WEEK 14 (T)", 98, "TREATMENT", "2013-10-23", 97], ["CDISCPILOT01", "QS", "01-701-1028", 3205, "NPITM07S", "APATHY/INDIFFERENCE Score", "NPI", "APATHY/INDIFFERENCE", "0", "", "0", 0, "", "", "", "", "Y", 9.1, "WEEK 14 (T)", 98, "TREATMENT", "2013-10-23", 97], ["CDISCPILOT01", "QS", "01-701-1028", 3231, "NPITM07", "APATHY/INDIFFERENCE PRESENT", "NPI", "APATHY/INDIFFERENCE", "ABSENT", "", "0", 0, "", "", "", "", "", 10.0, "WEEK 16", 112, "TREATMENT", "2013-11-06", 111], ["CDISCPILOT01", "QS", "01-701-1028", 3232, "NPITM07S", "APATHY/INDIFFERENCE Score", "NPI", "APATHY/INDIFFERENCE", "0", "", "0", 0, "", "", "", "", "Y", 10.0, "WEEK 16", 112, "TREATMENT", "2013-11-06", 111], ["CDISCPILOT01", "QS", "01-701-1028", 3258, "NPITM07", "APATHY/INDIFFERENCE PRESENT", "NPI", "APATHY/INDIFFERENCE", "ABSENT", "", "0", 0, "", "", "", "", "", 10.1, "WEEK 18 (T)", 126, "TREATMENT", "2013-11-20", 125], ["CDISCPILOT01", "QS", "01-701-1028", 3259, "NPITM07S", "APATHY/INDIFFERENCE Score", "NPI", "APATHY/INDIFFERENCE", "0", "", "0", 0, "", "", "", "", "Y", 10.1, "WEEK 18 (T)", 126, "TREATMENT", "2013-11-20", 125], ["CDISCPILOT01", "QS", "01-701-1028", 3285, "NPITM07", "APATHY/INDIFFERENCE PRESENT", "NPI", "APATHY/INDIFFERENCE", "ABSENT", "", "0", 0, "", "", "", "", "", 11.0, "WEEK 20", 140, "TREATMENT", "2013-12-04", 139], ["CDISCPILOT01", "QS", "01-701-1028", 3286, "NPITM07S", "APATHY/INDIFFERENCE Score", "NPI", "APATHY/INDIFFERENCE", "0", "", "0", 0, "", "", "", "", "Y", 11.0, "WEEK 20", 140, "TREATMENT", "2013-12-04", 139], ["CDISCPILOT01", "QS", "01-701-1028", 3312, "NPITM07", "APATHY/INDIFFERENCE PRESENT", "NPI", "APATHY/INDIFFERENCE", "ABSENT", "", "0", 0, "", "", "", "", "", 11.1, "WEEK 22 (T)", 154, "TREATMENT", "2013-12-18", 153], ["CDISCPILOT01", "QS", "01-701-1028", 3313, "NPITM07S", "APATHY/INDIFFERENCE Score", "NPI", "APATHY/INDIFFERENCE", "0", "", "0", 0, "", "", "", "", "Y", 11.1, "WEEK 22 (T)", 154, "TREATMENT", "2013-12-18", 153], ["CDISCPILOT01", "QS", "01-701-1028", 3339, "NPITM07", "APATHY/INDIFFERENCE PRESENT", "NPI", "APATHY/INDIFFERENCE", "ABSENT", "", "0", 0, "", "", "", "", "", 12.0, "WEEK 24", 168, "TREATMENT", "2014-01-06", 172], ["CDISCPILOT01", "QS", "01-701-1028", 3340, "NPITM07S", "APATHY/INDIFFERENCE Score", "NPI", "APATHY/INDIFFERENCE", "0", "", "0", 0, "", "", "", "", "Y", 12.0, "WEEK 24", 168, "TREATMENT", "2014-01-06", 172], ["CDISCPILOT01", "QS", "01-701-1028", 3366, "NPITM07", "APATHY/INDIFFERENCE PRESENT", "NPI", "APATHY/INDIFFERENCE", "ABSENT", "", "0", 0, "", "", "", "", "", 13.0, "WEEK 26", 182, "TREATMENT", "2014-01-14", 180], ["CDISCPILOT01", "QS", "01-701-1028", 3367, "NPITM07S", "APATHY/INDIFFERENCE Score", "NPI", "APATHY/INDIFFERENCE", "0", "", "0", 0, "", "", "", "", "Y", 13.0, "WEEK 26", 182, "TREATMENT", "2014-01-14", 180], ["CDISCPILOT01", "QS", "01-701-1028", 3015, "NPITM08", "DISINHIBITION PRESENT", "NPI", "DISINHIBITION", "ABSENT", "", "0", 0, "", "", "", "Y", "", 3.0, "BASELINE", 1, "TREATMENT", "2013-07-19", 1], ["CDISCPILOT01", "QS", "01-701-1028", 3016, "NPITM08S", "DISINHIBITION Score", "NPI", "DISINHIBITION", "0", "", "0", 0, "", "", "", "Y", "Y", 3.0, "BASELINE", 1, "TREATMENT", "2013-07-19", 1], ["CDISCPILOT01", "QS", "01-701-1028", 3042, "NPITM08", "DISINHIBITION PRESENT", "NPI", "DISINHIBITION", "ABSENT", "", "0", 0, "", "", "", "", "", 4.0, "WEEK 2", 14, "TREATMENT", "2013-08-01", 14], ["CDISCPILOT01", "QS", "01-701-1028", 3043, "NPITM08S", "DISINHIBITION Score", "NPI", "DISINHIBITION", "0", "", "0", 0, "", "", "", "", "Y", 4.0, "WEEK 2", 14, "TREATMENT", "2013-08-01", 14], ["CDISCPILOT01", "QS", "01-701-1028", 3069, "NPITM08", "DISINHIBITION PRESENT", "NPI", "DISINHIBITION", "ABSENT", "", "0", 0, "", "", "", "", "", 5.0, "WEEK 4", 28, "TREATMENT", "2013-08-14", 27], ["CDISCPILOT01", "QS", "01-701-1028", 3070, "NPITM08S", "DISINHIBITION Score", "NPI", "DISINHIBITION", "0", "", "0", 0, "", "", "", "", "Y", 5.0, "WEEK 4", 28, "TREATMENT", "2013-08-14", 27], ["CDISCPILOT01", "QS", "01-701-1028", 3096, "NPITM08", "DISINHIBITION PRESENT", "NPI", "DISINHIBITION", "ABSENT", "", "0", 0, "", "", "", "", "", 7.0, "WEEK 6", 42, "TREATMENT", "2013-08-29", 42], ["CDISCPILOT01", "QS", "01-701-1028", 3097, "NPITM08S", "DISINHIBITION Score", "NPI", "DISINHIBITION", "0", "", "0", 0, "", "", "", "", "Y", 7.0, "WEEK 6", 42, "TREATMENT", "2013-08-29", 42], ["CDISCPILOT01", "QS", "01-701-1028", 3125, "NPITM08", "DISINHIBITION PRESENT", "NPI", "DISINHIBITION", "ABSENT", "", "0", 0, "", "", "", "", "", 8.0, "WEEK 8", 56, "TREATMENT", "2013-09-10", 54], ["CDISCPILOT01", "QS", "01-701-1028", 3126, "NPITM08S", "DISINHIBITION Score", "NPI", "DISINHIBITION", "0", "", "0", 0, "", "", "", "", "Y", 8.0, "WEEK 8", 56, "TREATMENT", "2013-09-10", 54], ["CDISCPILOT01", "QS", "01-701-1028", 3152, "NPITM08", "DISINHIBITION PRESENT", "NPI", "DISINHIBITION", "ABSENT", "", "0", 0, "", "", "", "", "", 8.1, "WEEK 10 (T)", 70, "TREATMENT", "2013-09-24", 68], ["CDISCPILOT01", "QS", "01-701-1028", 3153, "NPITM08S", "DISINHIBITION Score", "NPI", "DISINHIBITION", "0", "", "0", 0, "", "", "", "", "Y", 8.1, "WEEK 10 (T)", 70, "TREATMENT", "2013-09-24", 68], ["CDISCPILOT01", "QS", "01-701-1028", 3179, "NPITM08", "DISINHIBITION PRESENT", "NPI", "DISINHIBITION", "ABSENT", "", "0", 0, "", "", "", "", "", 9.0, "WEEK 12", 84, "TREATMENT", "2013-10-09", 83], ["CDISCPILOT01", "QS", "01-701-1028", 3180, "NPITM08S", "DISINHIBITION Score", "NPI", "DISINHIBITION", "0", "", "0", 0, "", "", "", "", "Y", 9.0, "WEEK 12", 84, "TREATMENT", "2013-10-09", 83], ["CDISCPILOT01", "QS", "01-701-1028", 3206, "NPITM08", "DISINHIBITION PRESENT", "NPI", "DISINHIBITION", "ABSENT", "", "0", 0, "", "", "", "", "", 9.1, "WEEK 14 (T)", 98, "TREATMENT", "2013-10-23", 97], ["CDISCPILOT01", "QS", "01-701-1028", 3207, "NPITM08S", "DISINHIBITION Score", "NPI", "DISINHIBITION", "0", "", "0", 0, "", "", "", "", "Y", 9.1, "WEEK 14 (T)", 98, "TREATMENT", "2013-10-23", 97], ["CDISCPILOT01", "QS", "01-701-1028", 3233, "NPITM08", "DISINHIBITION PRESENT", "NPI", "DISINHIBITION", "ABSENT", "", "0", 0, "", "", "", "", "", 10.0, "WEEK 16", 112, "TREATMENT", "2013-11-06", 111], ["CDISCPILOT01", "QS", "01-701-1028", 3234, "NPITM08S", "DISINHIBITION Score", "NPI", "DISINHIBITION", "0", "", "0", 0, "", "", "", "", "Y", 10.0, "WEEK 16", 112, "TREATMENT", "2013-11-06", 111], ["CDISCPILOT01", "QS", "01-701-1028", 3260, "NPITM08", "DISINHIBITION PRESENT", "NPI", "DISINHIBITION", "ABSENT", "", "0", 0, "", "", "", "", "", 10.1, "WEEK 18 (T)", 126, "TREATMENT", "2013-11-20", 125], ["CDISCPILOT01", "QS", "01-701-1028", 3261, "NPITM08S", "DISINHIBITION Score", "NPI", "DISINHIBITION", "0", "", "0", 0, "", "", "", "", "Y", 10.1, "WEEK 18 (T)", 126, "TREATMENT", "2013-11-20", 125], ["CDISCPILOT01", "QS", "01-701-1028", 3287, "NPITM08", "DISINHIBITION PRESENT", "NPI", "DISINHIBITION", "ABSENT", "", "0", 0, "", "", "", "", "", 11.0, "WEEK 20", 140, "TREATMENT", "2013-12-04", 139], ["CDISCPILOT01", "QS", "01-701-1028", 3288, "NPITM08S", "DISINHIBITION Score", "NPI", "DISINHIBITION", "0", "", "0", 0, "", "", "", "", "Y", 11.0, "WEEK 20", 140, "TREATMENT", "2013-12-04", 139], ["CDISCPILOT01", "QS", "01-701-1028", 3314, "NPITM08", "DISINHIBITION PRESENT", "NPI", "DISINHIBITION", "ABSENT", "", "0", 0, "", "", "", "", "", 11.1, "WEEK 22 (T)", 154, "TREATMENT", "2013-12-18", 153], ["CDISCPILOT01", "QS", "01-701-1028", 3315, "NPITM08S", "DISINHIBITION Score", "NPI", "DISINHIBITION", "0", "", "0", 0, "", "", "", "", "Y", 11.1, "WEEK 22 (T)", 154, "TREATMENT", "2013-12-18", 153], ["CDISCPILOT01", "QS", "01-701-1028", 3341, "NPITM08", "DISINHIBITION PRESENT", "NPI", "DISINHIBITION", "ABSENT", "", "0", 0, "", "", "", "", "", 12.0, "WEEK 24", 168, "TREATMENT", "2014-01-06", 172], ["CDISCPILOT01", "QS", "01-701-1028", 3342, "NPITM08S", "DISINHIBITION Score", "NPI", "DISINHIBITION", "0", "", "0", 0, "", "", "", "", "Y", 12.0, "WEEK 24", 168, "TREATMENT", "2014-01-06", 172], ["CDISCPILOT01", "QS", "01-701-1028", 3368, "NPITM08", "DISINHIBITION PRESENT", "NPI", "DISINHIBITION", "ABSENT", "", "0", 0, "", "", "", "", "", 13.0, "WEEK 26", 182, "TREATMENT", "2014-01-14", 180], ["CDISCPILOT01", "QS", "01-701-1028", 3369, "NPITM08S", "DISINHIBITION Score", "NPI", "DISINHIBITION", "0", "", "0", 0, "", "", "", "", "Y", 13.0, "WEEK 26", 182, "TREATMENT", "2014-01-14", 180], ["CDISCPILOT01", "QS", "01-701-1028", 3017, "NPITM09", "IRRITABILITY/LABILITY PRESENT", "NPI", "IRRITABILITY/LABILITY", "ABSENT", "", "0", 0, "", "", "", "Y", "", 3.0, "BASELINE", 1, "TREATMENT", "2013-07-19", 1], ["CDISCPILOT01", "QS", "01-701-1028", 3018, "NPITM09S", "IRRITABILITY/LABILITY Score", "NPI", "IRRITABILITY/LABILITY", "0", "", "0", 0, "", "", "", "Y", "Y", 3.0, "BASELINE", 1, "TREATMENT", "2013-07-19", 1], ["CDISCPILOT01", "QS", "01-701-1028", 3044, "NPITM09", "IRRITABILITY/LABILITY PRESENT", "NPI", "IRRITABILITY/LABILITY", "ABSENT", "", "0", 0, "", "", "", "", "", 4.0, "WEEK 2", 14, "TREATMENT", "2013-08-01", 14], ["CDISCPILOT01", "QS", "01-701-1028", 3045, "NPITM09S", "IRRITABILITY/LABILITY Score", "NPI", "IRRITABILITY/LABILITY", "0", "", "0", 0, "", "", "", "", "Y", 4.0, "WEEK 2", 14, "TREATMENT", "2013-08-01", 14], ["CDISCPILOT01", "QS", "01-701-1028", 3071, "NPITM09", "IRRITABILITY/LABILITY PRESENT", "NPI", "IRRITABILITY/LABILITY", "ABSENT", "", "0", 0, "", "", "", "", "", 5.0, "WEEK 4", 28, "TREATMENT", "2013-08-14", 27], ["CDISCPILOT01", "QS", "01-701-1028", 3072, "NPITM09S", "IRRITABILITY/LABILITY Score", "NPI", "IRRITABILITY/LABILITY", "0", "", "0", 0, "", "", "", "", "Y", 5.0, "WEEK 4", 28, "TREATMENT", "2013-08-14", 27], ["CDISCPILOT01", "QS", "01-701-1028", 3098, "NPITM09", "IRRITABILITY/LABILITY PRESENT", "NPI", "IRRITABILITY/LABILITY", "ABSENT", "", "0", 0, "", "", "", "", "", 7.0, "WEEK 6", 42, "TREATMENT", "2013-08-29", 42], ["CDISCPILOT01", "QS", "01-701-1028", 3099, "NPITM09S", "IRRITABILITY/LABILITY Score", "NPI", "IRRITABILITY/LABILITY", "0", "", "0", 0, "", "", "", "", "Y", 7.0, "WEEK 6", 42, "TREATMENT", "2013-08-29", 42], ["CDISCPILOT01", "QS", "01-701-1028", 3127, "NPITM09", "IRRITABILITY/LABILITY PRESENT", "NPI", "IRRITABILITY/LABILITY", "ABSENT", "", "0", 0, "", "", "", "", "", 8.0, "WEEK 8", 56, "TREATMENT", "2013-09-10", 54], ["CDISCPILOT01", "QS", "01-701-1028", 3128, "NPITM09S", "IRRITABILITY/LABILITY Score", "NPI", "IRRITABILITY/LABILITY", "0", "", "0", 0, "", "", "", "", "Y", 8.0, "WEEK 8", 56, "TREATMENT", "2013-09-10", 54], ["CDISCPILOT01", "QS", "01-701-1028", 3154, "NPITM09", "IRRITABILITY/LABILITY PRESENT", "NPI", "IRRITABILITY/LABILITY", "ABSENT", "", "0", 0, "", "", "", "", "", 8.1, "WEEK 10 (T)", 70, "TREATMENT", "2013-09-24", 68], ["CDISCPILOT01", "QS", "01-701-1028", 3155, "NPITM09S", "IRRITABILITY/LABILITY Score", "NPI", "IRRITABILITY/LABILITY", "0", "", "0", 0, "", "", "", "", "Y", 8.1, "WEEK 10 (T)", 70, "TREATMENT", "2013-09-24", 68], ["CDISCPILOT01", "QS", "01-701-1028", 3181, "NPITM09", "IRRITABILITY/LABILITY PRESENT", "NPI", "IRRITABILITY/LABILITY", "ABSENT", "", "0", 0, "", "", "", "", "", 9.0, "WEEK 12", 84, "TREATMENT", "2013-10-09", 83], ["CDISCPILOT01", "QS", "01-701-1028", 3182, "NPITM09S", "IRRITABILITY/LABILITY Score", "NPI", "IRRITABILITY/LABILITY", "0", "", "0", 0, "", "", "", "", "Y", 9.0, "WEEK 12", 84, "TREATMENT", "2013-10-09", 83], ["CDISCPILOT01", "QS", "01-701-1028", 3208, "NPITM09", "IRRITABILITY/LABILITY PRESENT", "NPI", "IRRITABILITY/LABILITY", "ABSENT", "", "0", 0, "", "", "", "", "", 9.1, "WEEK 14 (T)", 98, "TREATMENT", "2013-10-23", 97], ["CDISCPILOT01", "QS", "01-701-1028", 3209, "NPITM09S", "IRRITABILITY/LABILITY Score", "NPI", "IRRITABILITY/LABILITY", "0", "", "0", 0, "", "", "", "", "Y", 9.1, "WEEK 14 (T)", 98, "TREATMENT", "2013-10-23", 97], ["CDISCPILOT01", "QS", "01-701-1028", 3235, "NPITM09", "IRRITABILITY/LABILITY PRESENT", "NPI", "IRRITABILITY/LABILITY", "ABSENT", "", "0", 0, "", "", "", "", "", 10.0, "WEEK 16", 112, "TREATMENT", "2013-11-06", 111], ["CDISCPILOT01", "QS", "01-701-1028", 3236, "NPITM09S", "IRRITABILITY/LABILITY Score", "NPI", "IRRITABILITY/LABILITY", "0", "", "0", 0, "", "", "", "", "Y", 10.0, "WEEK 16", 112, "TREATMENT", "2013-11-06", 111], ["CDISCPILOT01", "QS", "01-701-1028", 3262, "NPITM09", "IRRITABILITY/LABILITY PRESENT", "NPI", "IRRITABILITY/LABILITY", "ABSENT", "", "0", 0, "", "", "", "", "", 10.1, "WEEK 18 (T)", 126, "TREATMENT", "2013-11-20", 125], ["CDISCPILOT01", "QS", "01-701-1028", 3263, "NPITM09S", "IRRITABILITY/LABILITY Score", "NPI", "IRRITABILITY/LABILITY", "0", "", "0", 0, "", "", "", "", "Y", 10.1, "WEEK 18 (T)", 126, "TREATMENT", "2013-11-20", 125], ["CDISCPILOT01", "QS", "01-701-1028", 3289, "NPITM09", "IRRITABILITY/LABILITY PRESENT", "NPI", "IRRITABILITY/LABILITY", "ABSENT", "", "0", 0, "", "", "", "", "", 11.0, "WEEK 20", 140, "TREATMENT", "2013-12-04", 139], ["CDISCPILOT01", "QS", "01-701-1028", 3290, "NPITM09S", "IRRITABILITY/LABILITY Score", "NPI", "IRRITABILITY/LABILITY", "0", "", "0", 0, "", "", "", "", "Y", 11.0, "WEEK 20", 140, "TREATMENT", "2013-12-04", 139], ["CDISCPILOT01", "QS", "01-701-1028", 3316, "NPITM09", "IRRITABILITY/LABILITY PRESENT", "NPI", "IRRITABILITY/LABILITY", "ABSENT", "", "0", 0, "", "", "", "", "", 11.1, "WEEK 22 (T)", 154, "TREATMENT", "2013-12-18", 153], ["CDISCPILOT01", "QS", "01-701-1028", 3317, "NPITM09S", "IRRITABILITY/LABILITY Score", "NPI", "IRRITABILITY/LABILITY", "0", "", "0", 0, "", "", "", "", "Y", 11.1, "WEEK 22 (T)", 154, "TREATMENT", "2013-12-18", 153], ["CDISCPILOT01", "QS", "01-701-1028", 3343, "NPITM09", "IRRITABILITY/LABILITY PRESENT", "NPI", "IRRITABILITY/LABILITY", "ABSENT", "", "0", 0, "", "", "", "", "", 12.0, "WEEK 24", 168, "TREATMENT", "2014-01-06", 172], ["CDISCPILOT01", "QS", "01-701-1028", 3344, "NPITM09S", "IRRITABILITY/LABILITY Score", "NPI", "IRRITABILITY/LABILITY", "0", "", "0", 0, "", "", "", "", "Y", 12.0, "WEEK 24", 168, "TREATMENT", "2014-01-06", 172], ["CDISCPILOT01", "QS", "01-701-1028", 3370, "NPITM09", "IRRITABILITY/LABILITY PRESENT", "NPI", "IRRITABILITY/LABILITY", "ABSENT", "", "0", 0, "", "", "", "", "", 13.0, "WEEK 26", 182, "TREATMENT", "2014-01-14", 180], ["CDISCPILOT01", "QS", "01-701-1028", 3371, "NPITM09S", "IRRITABILITY/LABILITY Score", "NPI", "IRRITABILITY/LABILITY", "0", "", "0", 0, "", "", "", "", "Y", 13.0, "WEEK 26", 182, "TREATMENT", "2014-01-14", 180], ["CDISCPILOT01", "QS", "01-701-1028", 3019, "NPITM10", "ABERRANT MOTOR BEHAVIOR PRESENT", "NPI", "ABERRANT MOTOR BEHAVIOR", "ABSENT", "", "0", 0, "", "", "", "Y", "", 3.0, "BASELINE", 1, "TREATMENT", "2013-07-19", 1], ["CDISCPILOT01", "QS", "01-701-1028", 3020, "NPITM10S", "ABERRANT MOTOR BEHAVIOR Score", "NPI", "ABERRANT MOTOR BEHAVIOR", "0", "", "0", 0, "", "", "", "Y", "Y", 3.0, "BASELINE", 1, "TREATMENT", "2013-07-19", 1], ["CDISCPILOT01", "QS", "01-701-1028", 3046, "NPITM10", "ABERRANT MOTOR BEHAVIOR PRESENT", "NPI", "ABERRANT MOTOR BEHAVIOR", "ABSENT", "", "0", 0, "", "", "", "", "", 4.0, "WEEK 2", 14, "TREATMENT", "2013-08-01", 14], ["CDISCPILOT01", "QS", "01-701-1028", 3047, "NPITM10S", "ABERRANT MOTOR BEHAVIOR Score", "NPI", "ABERRANT MOTOR BEHAVIOR", "0", "", "0", 0, "", "", "", "", "Y", 4.0, "WEEK 2", 14, "TREATMENT", "2013-08-01", 14], ["CDISCPILOT01", "QS", "01-701-1028", 3073, "NPITM10", "ABERRANT MOTOR BEHAVIOR PRESENT", "NPI", "ABERRANT MOTOR BEHAVIOR", "ABSENT", "", "0", 0, "", "", "", "", "", 5.0, "WEEK 4", 28, "TREATMENT", "2013-08-14", 27], ["CDISCPILOT01", "QS", "01-701-1028", 3074, "NPITM10S", "ABERRANT MOTOR BEHAVIOR Score", "NPI", "ABERRANT MOTOR BEHAVIOR", "0", "", "0", 0, "", "", "", "", "Y", 5.0, "WEEK 4", 28, "TREATMENT", "2013-08-14", 27], ["CDISCPILOT01", "QS", "01-701-1028", 3100, "NPITM10", "ABERRANT MOTOR BEHAVIOR PRESENT", "NPI", "ABERRANT MOTOR BEHAVIOR", "ABSENT", "", "0", 0, "", "", "", "", "", 7.0, "WEEK 6", 42, "TREATMENT", "2013-08-29", 42], ["CDISCPILOT01", "QS", "01-701-1028", 3101, "NPITM10S", "ABERRANT MOTOR BEHAVIOR Score", "NPI", "ABERRANT MOTOR BEHAVIOR", "0", "", "0", 0, "", "", "", "", "Y", 7.0, "WEEK 6", 42, "TREATMENT", "2013-08-29", 42], ["CDISCPILOT01", "QS", "01-701-1028", 3129, "NPITM10", "ABERRANT MOTOR BEHAVIOR PRESENT", "NPI", "ABERRANT MOTOR BEHAVIOR", "ABSENT", "", "0", 0, "", "", "", "", "", 8.0, "WEEK 8", 56, "TREATMENT", "2013-09-10", 54], ["CDISCPILOT01", "QS", "01-701-1028", 3130, "NPITM10S", "ABERRANT MOTOR BEHAVIOR Score", "NPI", "ABERRANT MOTOR BEHAVIOR", "0", "", "0", 0, "", "", "", "", "Y", 8.0, "WEEK 8", 56, "TREATMENT", "2013-09-10", 54], ["CDISCPILOT01", "QS", "01-701-1028", 3156, "NPITM10", "ABERRANT MOTOR BEHAVIOR PRESENT", "NPI", "ABERRANT MOTOR BEHAVIOR", "ABSENT", "", "0", 0, "", "", "", "", "", 8.1, "WEEK 10 (T)", 70, "TREATMENT", "2013-09-24", 68], ["CDISCPILOT01", "QS", "01-701-1028", 3157, "NPITM10S", "ABERRANT MOTOR BEHAVIOR Score", "NPI", "ABERRANT MOTOR BEHAVIOR", "0", "", "0", 0, "", "", "", "", "Y", 8.1, "WEEK 10 (T)", 70, "TREATMENT", "2013-09-24", 68], ["CDISCPILOT01", "QS", "01-701-1028", 3183, "NPITM10", "ABERRANT MOTOR BEHAVIOR PRESENT", "NPI", "ABERRANT MOTOR BEHAVIOR", "ABSENT", "", "0", 0, "", "", "", "", "", 9.0, "WEEK 12", 84, "TREATMENT", "2013-10-09", 83], ["CDISCPILOT01", "QS", "01-701-1028", 3184, "NPITM10S", "ABERRANT MOTOR BEHAVIOR Score", "NPI", "ABERRANT MOTOR BEHAVIOR", "0", "", "0", 0, "", "", "", "", "Y", 9.0, "WEEK 12", 84, "TREATMENT", "2013-10-09", 83], ["CDISCPILOT01", "QS", "01-701-1028", 3210, "NPITM10", "ABERRANT MOTOR BEHAVIOR PRESENT", "NPI", "ABERRANT MOTOR BEHAVIOR", "ABSENT", "", "0", 0, "", "", "", "", "", 9.1, "WEEK 14 (T)", 98, "TREATMENT", "2013-10-23", 97], ["CDISCPILOT01", "QS", "01-701-1028", 3211, "NPITM10S", "ABERRANT MOTOR BEHAVIOR Score", "NPI", "ABERRANT MOTOR BEHAVIOR", "0", "", "0", 0, "", "", "", "", "Y", 9.1, "WEEK 14 (T)", 98, "TREATMENT", "2013-10-23", 97], ["CDISCPILOT01", "QS", "01-701-1028", 3237, "NPITM10", "ABERRANT MOTOR BEHAVIOR PRESENT", "NPI", "ABERRANT MOTOR BEHAVIOR", "ABSENT", "", "0", 0, "", "", "", "", "", 10.0, "WEEK 16", 112, "TREATMENT", "2013-11-06", 111], ["CDISCPILOT01", "QS", "01-701-1028", 3238, "NPITM10S", "ABERRANT MOTOR BEHAVIOR Score", "NPI", "ABERRANT MOTOR BEHAVIOR", "0", "", "0", 0, "", "", "", "", "Y", 10.0, "WEEK 16", 112, "TREATMENT", "2013-11-06", 111], ["CDISCPILOT01", "QS", "01-701-1028", 3264, "NPITM10", "ABERRANT MOTOR BEHAVIOR PRESENT", "NPI", "ABERRANT MOTOR BEHAVIOR", "ABSENT", "", "0", 0, "", "", "", "", "", 10.1, "WEEK 18 (T)", 126, "TREATMENT", "2013-11-20", 125], ["CDISCPILOT01", "QS", "01-701-1028", 3265, "NPITM10S", "ABERRANT MOTOR BEHAVIOR Score", "NPI", "ABERRANT MOTOR BEHAVIOR", "0", "", "0", 0, "", "", "", "", "Y", 10.1, "WEEK 18 (T)", 126, "TREATMENT", "2013-11-20", 125], ["CDISCPILOT01", "QS", "01-701-1028", 3291, "NPITM10", "ABERRANT MOTOR BEHAVIOR PRESENT", "NPI", "ABERRANT MOTOR BEHAVIOR", "ABSENT", "", "0", 0, "", "", "", "", "", 11.0, "WEEK 20", 140, "TREATMENT", "2013-12-04", 139], ["CDISCPILOT01", "QS", "01-701-1028", 3292, "NPITM10S", "ABERRANT MOTOR BEHAVIOR Score", "NPI", "ABERRANT MOTOR BEHAVIOR", "0", "", "0", 0, "", "", "", "", "Y", 11.0, "WEEK 20", 140, "TREATMENT", "2013-12-04", 139], ["CDISCPILOT01", "QS", "01-701-1028", 3318, "NPITM10", "ABERRANT MOTOR BEHAVIOR PRESENT", "NPI", "ABERRANT MOTOR BEHAVIOR", "ABSENT", "", "0", 0, "", "", "", "", "", 11.1, "WEEK 22 (T)", 154, "TREATMENT", "2013-12-18", 153], ["CDISCPILOT01", "QS", "01-701-1028", 3319, "NPITM10S", "ABERRANT MOTOR BEHAVIOR Score", "NPI", "ABERRANT MOTOR BEHAVIOR", "0", "", "0", 0, "", "", "", "", "Y", 11.1, "WEEK 22 (T)", 154, "TREATMENT", "2013-12-18", 153], ["CDISCPILOT01", "QS", "01-701-1028", 3345, "NPITM10", "ABERRANT MOTOR BEHAVIOR PRESENT", "NPI", "ABERRANT MOTOR BEHAVIOR", "ABSENT", "", "0", 0, "", "", "", "", "", 12.0, "WEEK 24", 168, "TREATMENT", "2014-01-06", 172], ["CDISCPILOT01", "QS", "01-701-1028", 3346, "NPITM10S", "ABERRANT MOTOR BEHAVIOR Score", "NPI", "ABERRANT MOTOR BEHAVIOR", "0", "", "0", 0, "", "", "", "", "Y", 12.0, "WEEK 24", 168, "TREATMENT", "2014-01-06", 172], ["CDISCPILOT01", "QS", "01-701-1028", 3372, "NPITM10", "ABERRANT MOTOR BEHAVIOR PRESENT", "NPI", "ABERRANT MOTOR BEHAVIOR", "ABSENT", "", "0", 0, "", "", "", "", "", 13.0, "WEEK 26", 182, "TREATMENT", "2014-01-14", 180], ["CDISCPILOT01", "QS", "01-701-1028", 3373, "NPITM10S", "ABERRANT MOTOR BEHAVIOR Score", "NPI", "ABERRANT MOTOR BEHAVIOR", "0", "", "0", 0, "", "", "", "", "Y", 13.0, "WEEK 26", 182, "TREATMENT", "2014-01-14", 180], ["CDISCPILOT01", "QS", "01-701-1028", 3021, "NPITM11F", "NIGHT-TIME BEHAVIOR FREQUENCY", "NPI", "NIGHT-TIME BEHAVIOR", "4", "", "4", 4, "", "", "", "Y", "", 3.0, "BASELINE", 1, "TREATMENT", "2013-07-19", 1], ["CDISCPILOT01", "QS", "01-701-1028", 3022, "NPITM11V", "NIGHT-TIME BEHAVIOR SEVERITY", "NPI", "NIGHT-TIME BEHAVIOR", "3", "", "3", 3, "", "", "", "Y", "", 3.0, "BASELINE", 1, "TREATMENT", "2013-07-19", 1], ["CDISCPILOT01", "QS", "01-701-1028", 3023, "NPITM11D", "NIGHT-TIME BEHAVIOR DISTRESS", "NPI", "NIGHT-TIME BEHAVIOR", "3", "", "3", 3, "", "", "", "Y", "", 3.0, "BASELINE", 1, "TREATMENT", "2013-07-19", 1], ["CDISCPILOT01", "QS", "01-701-1028", 3024, "NPITM11S", "NIGHT-TIME BEHAVIOR Score", "NPI", "NIGHT-TIME BEHAVIOR", "0", "", "0", 0, "", "", "", "Y", "Y", 3.0, "BASELINE", 1, "TREATMENT", "2013-07-19", 1], ["CDISCPILOT01", "QS", "01-701-1028", 3048, "NPITM11F", "NIGHT-TIME BEHAVIOR FREQUENCY", "NPI", "NIGHT-TIME BEHAVIOR", "3", "", "3", 3, "", "", "", "", "", 4.0, "WEEK 2", 14, "TREATMENT", "2013-08-01", 14], ["CDISCPILOT01", "QS", "01-701-1028", 3049, "NPITM11V", "NIGHT-TIME BEHAVIOR SEVERITY", "NPI", "NIGHT-TIME BEHAVIOR", "2", "", "2", 2, "", "", "", "", "", 4.0, "WEEK 2", 14, "TREATMENT", "2013-08-01", 14], ["CDISCPILOT01", "QS", "01-701-1028", 3050, "NPITM11D", "NIGHT-TIME BEHAVIOR DISTRESS", "NPI", "NIGHT-TIME BEHAVIOR", "2", "", "2", 2, "", "", "", "", "", 4.0, "WEEK 2", 14, "TREATMENT", "2013-08-01", 14], ["CDISCPILOT01", "QS", "01-701-1028", 3051, "NPITM11S", "NIGHT-TIME BEHAVIOR Score", "NPI", "NIGHT-TIME BEHAVIOR", "0", "", "0", 0, "", "", "", "", "Y", 4.0, "WEEK 2", 14, "TREATMENT", "2013-08-01", 14], ["CDISCPILOT01", "QS", "01-701-1028", 3075, "NPITM11F", "NIGHT-TIME BEHAVIOR FREQUENCY", "NPI", "NIGHT-TIME BEHAVIOR", "4", "", "4", 4, "", "", "", "", "", 5.0, "WEEK 4", 28, "TREATMENT", "2013-08-14", 27], ["CDISCPILOT01", "QS", "01-701-1028", 3076, "NPITM11V", "NIGHT-TIME BEHAVIOR SEVERITY", "NPI", "NIGHT-TIME BEHAVIOR", "3", "", "3", 3, "", "", "", "", "", 5.0, "WEEK 4", 28, "TREATMENT", "2013-08-14", 27], ["CDISCPILOT01", "QS", "01-701-1028", 3077, "NPITM11D", "NIGHT-TIME BEHAVIOR DISTRESS", "NPI", "NIGHT-TIME BEHAVIOR", "1", "", "1", 1, "", "", "", "", "", 5.0, "WEEK 4", 28, "TREATMENT", "2013-08-14", 27], ["CDISCPILOT01", "QS", "01-701-1028", 3078, "NPITM11S", "NIGHT-TIME BEHAVIOR Score", "NPI", "NIGHT-TIME BEHAVIOR", "0", "", "0", 0, "", "", "", "", "Y", 5.0, "WEEK 4", 28, "TREATMENT", "2013-08-14", 27], ["CDISCPILOT01", "QS", "01-701-1028", 3102, "NPITM11F", "NIGHT-TIME BEHAVIOR FREQUENCY", "NPI", "NIGHT-TIME BEHAVIOR", "4", "", "4", 4, "", "", "", "", "", 7.0, "WEEK 6", 42, "TREATMENT", "2013-08-29", 42], ["CDISCPILOT01", "QS", "01-701-1028", 3103, "NPITM11V", "NIGHT-TIME BEHAVIOR SEVERITY", "NPI", "NIGHT-TIME BEHAVIOR", "2", "", "2", 2, "", "", "", "", "", 7.0, "WEEK 6", 42, "TREATMENT", "2013-08-29", 42], ["CDISCPILOT01", "QS", "01-701-1028", 3104, "NPITM11D", "NIGHT-TIME BEHAVIOR DISTRESS", "NPI", "NIGHT-TIME BEHAVIOR", "1", "", "1", 1, "", "", "", "", "", 7.0, "WEEK 6", 42, "TREATMENT", "2013-08-29", 42], ["CDISCPILOT01", "QS", "01-701-1028", 3105, "NPITM11S", "NIGHT-TIME BEHAVIOR Score", "NPI", "NIGHT-TIME BEHAVIOR", "0", "", "0", 0, "", "", "", "", "Y", 7.0, "WEEK 6", 42, "TREATMENT", "2013-08-29", 42], ["CDISCPILOT01", "QS", "01-701-1028", 3131, "NPITM11F", "NIGHT-TIME BEHAVIOR FREQUENCY", "NPI", "NIGHT-TIME BEHAVIOR", "4", "", "4", 4, "", "", "", "", "", 8.0, "WEEK 8", 56, "TREATMENT", "2013-09-10", 54], ["CDISCPILOT01", "QS", "01-701-1028", 3132, "NPITM11V", "NIGHT-TIME BEHAVIOR SEVERITY", "NPI", "NIGHT-TIME BEHAVIOR", "3", "", "3", 3, "", "", "", "", "", 8.0, "WEEK 8", 56, "TREATMENT", "2013-09-10", 54], ["CDISCPILOT01", "QS", "01-701-1028", 3133, "NPITM11D", "NIGHT-TIME BEHAVIOR DISTRESS", "NPI", "NIGHT-TIME BEHAVIOR", "1", "", "1", 1, "", "", "", "", "", 8.0, "WEEK 8", 56, "TREATMENT", "2013-09-10", 54], ["CDISCPILOT01", "QS", "01-701-1028", 3134, "NPITM11S", "NIGHT-TIME BEHAVIOR Score", "NPI", "NIGHT-TIME BEHAVIOR", "0", "", "0", 0, "", "", "", "", "Y", 8.0, "WEEK 8", 56, "TREATMENT", "2013-09-10", 54], ["CDISCPILOT01", "QS", "01-701-1028", 3158, "NPITM11F", "NIGHT-TIME BEHAVIOR FREQUENCY", "NPI", "NIGHT-TIME BEHAVIOR", "3", "", "3", 3, "", "", "", "", "", 8.1, "WEEK 10 (T)", 70, "TREATMENT", "2013-09-24", 68], ["CDISCPILOT01", "QS", "01-701-1028", 3159, "NPITM11V", "NIGHT-TIME BEHAVIOR SEVERITY", "NPI", "NIGHT-TIME BEHAVIOR", "2", "", "2", 2, "", "", "", "", "", 8.1, "WEEK 10 (T)", 70, "TREATMENT", "2013-09-24", 68], ["CDISCPILOT01", "QS", "01-701-1028", 3160, "NPITM11D", "NIGHT-TIME BEHAVIOR DISTRESS", "NPI", "NIGHT-TIME BEHAVIOR", "1", "", "1", 1, "", "", "", "", "", 8.1, "WEEK 10 (T)", 70, "TREATMENT", "2013-09-24", 68], ["CDISCPILOT01", "QS", "01-701-1028", 3161, "NPITM11S", "NIGHT-TIME BEHAVIOR Score", "NPI", "NIGHT-TIME BEHAVIOR", "0", "", "0", 0, "", "", "", "", "Y", 8.1, "WEEK 10 (T)", 70, "TREATMENT", "2013-09-24", 68], ["CDISCPILOT01", "QS", "01-701-1028", 3185, "NPITM11F", "NIGHT-TIME BEHAVIOR FREQUENCY", "NPI", "NIGHT-TIME BEHAVIOR", "3", "", "3", 3, "", "", "", "", "", 9.0, "WEEK 12", 84, "TREATMENT", "2013-10-09", 83], ["CDISCPILOT01", "QS", "01-701-1028", 3186, "NPITM11V", "NIGHT-TIME BEHAVIOR SEVERITY", "NPI", "NIGHT-TIME BEHAVIOR", "2", "", "2", 2, "", "", "", "", "", 9.0, "WEEK 12", 84, "TREATMENT", "2013-10-09", 83], ["CDISCPILOT01", "QS", "01-701-1028", 3187, "NPITM11D", "NIGHT-TIME BEHAVIOR DISTRESS", "NPI", "NIGHT-TIME BEHAVIOR", "1", "", "1", 1, "", "", "", "", "", 9.0, "WEEK 12", 84, "TREATMENT", "2013-10-09", 83], ["CDISCPILOT01", "QS", "01-701-1028", 3188, "NPITM11S", "NIGHT-TIME BEHAVIOR Score", "NPI", "NIGHT-TIME BEHAVIOR", "0", "", "0", 0, "", "", "", "", "Y", 9.0, "WEEK 12", 84, "TREATMENT", "2013-10-09", 83], ["CDISCPILOT01", "QS", "01-701-1028", 3212, "NPITM11F", "NIGHT-TIME BEHAVIOR FREQUENCY", "NPI", "NIGHT-TIME BEHAVIOR", "1", "", "1", 1, "", "", "", "", "", 9.1, "WEEK 14 (T)", 98, "TREATMENT", "2013-10-23", 97], ["CDISCPILOT01", "QS", "01-701-1028", 3213, "NPITM11V", "NIGHT-TIME BEHAVIOR SEVERITY", "NPI", "NIGHT-TIME BEHAVIOR", "1", "", "1", 1, "", "", "", "", "", 9.1, "WEEK 14 (T)", 98, "TREATMENT", "2013-10-23", 97], ["CDISCPILOT01", "QS", "01-701-1028", 3214, "NPITM11D", "NIGHT-TIME BEHAVIOR DISTRESS", "NPI", "NIGHT-TIME BEHAVIOR", "1", "", "1", 1, "", "", "", "", "", 9.1, "WEEK 14 (T)", 98, "TREATMENT", "2013-10-23", 97], ["CDISCPILOT01", "QS", "01-701-1028", 3215, "NPITM11S", "NIGHT-TIME BEHAVIOR Score", "NPI", "NIGHT-TIME BEHAVIOR", "0", "", "0", 0, "", "", "", "", "Y", 9.1, "WEEK 14 (T)", 98, "TREATMENT", "2013-10-23", 97], ["CDISCPILOT01", "QS", "01-701-1028", 3239, "NPITM11F", "NIGHT-TIME BEHAVIOR FREQUENCY", "NPI", "NIGHT-TIME BEHAVIOR", "3", "", "3", 3, "", "", "", "", "", 10.0, "WEEK 16", 112, "TREATMENT", "2013-11-06", 111], ["CDISCPILOT01", "QS", "01-701-1028", 3240, "NPITM11V", "NIGHT-TIME BEHAVIOR SEVERITY", "NPI", "NIGHT-TIME BEHAVIOR", "2", "", "2", 2, "", "", "", "", "", 10.0, "WEEK 16", 112, "TREATMENT", "2013-11-06", 111], ["CDISCPILOT01", "QS", "01-701-1028", 3241, "NPITM11D", "NIGHT-TIME BEHAVIOR DISTRESS", "NPI", "NIGHT-TIME BEHAVIOR", "1", "", "1", 1, "", "", "", "", "", 10.0, "WEEK 16", 112, "TREATMENT", "2013-11-06", 111], ["CDISCPILOT01", "QS", "01-701-1028", 3242, "NPITM11S", "NIGHT-TIME BEHAVIOR Score", "NPI", "NIGHT-TIME BEHAVIOR", "0", "", "0", 0, "", "", "", "", "Y", 10.0, "WEEK 16", 112, "TREATMENT", "2013-11-06", 111], ["CDISCPILOT01", "QS", "01-701-1028", 3266, "NPITM11F", "NIGHT-TIME BEHAVIOR FREQUENCY", "NPI", "NIGHT-TIME BEHAVIOR", "3", "", "3", 3, "", "", "", "", "", 10.1, "WEEK 18 (T)", 126, "TREATMENT", "2013-11-20", 125], ["CDISCPILOT01", "QS", "01-701-1028", 3267, "NPITM11V", "NIGHT-TIME BEHAVIOR SEVERITY", "NPI", "NIGHT-TIME BEHAVIOR", "2", "", "2", 2, "", "", "", "", "", 10.1, "WEEK 18 (T)", 126, "TREATMENT", "2013-11-20", 125], ["CDISCPILOT01", "QS", "01-701-1028", 3268, "NPITM11D", "NIGHT-TIME BEHAVIOR DISTRESS", "NPI", "NIGHT-TIME BEHAVIOR", "1", "", "1", 1, "", "", "", "", "", 10.1, "WEEK 18 (T)", 126, "TREATMENT", "2013-11-20", 125], ["CDISCPILOT01", "QS", "01-701-1028", 3269, "NPITM11S", "NIGHT-TIME BEHAVIOR Score", "NPI", "NIGHT-TIME BEHAVIOR", "0", "", "0", 0, "", "", "", "", "Y", 10.1, "WEEK 18 (T)", 126, "TREATMENT", "2013-11-20", 125], ["CDISCPILOT01", "QS", "01-701-1028", 3293, "NPITM11F", "NIGHT-TIME BEHAVIOR FREQUENCY", "NPI", "NIGHT-TIME BEHAVIOR", "3", "", "3", 3, "", "", "", "", "", 11.0, "WEEK 20", 140, "TREATMENT", "2013-12-04", 139], ["CDISCPILOT01", "QS", "01-701-1028", 3294, "NPITM11V", "NIGHT-TIME BEHAVIOR SEVERITY", "NPI", "NIGHT-TIME BEHAVIOR", "2", "", "2", 2, "", "", "", "", "", 11.0, "WEEK 20", 140, "TREATMENT", "2013-12-04", 139], ["CDISCPILOT01", "QS", "01-701-1028", 3295, "NPITM11D", "NIGHT-TIME BEHAVIOR DISTRESS", "NPI", "NIGHT-TIME BEHAVIOR", "2", "", "2", 2, "", "", "", "", "", 11.0, "WEEK 20", 140, "TREATMENT", "2013-12-04", 139], ["CDISCPILOT01", "QS", "01-701-1028", 3296, "NPITM11S", "NIGHT-TIME BEHAVIOR Score", "NPI", "NIGHT-TIME BEHAVIOR", "0", "", "0", 0, "", "", "", "", "Y", 11.0, "WEEK 20", 140, "TREATMENT", "2013-12-04", 139], ["CDISCPILOT01", "QS", "01-701-1028", 3320, "NPITM11F", "NIGHT-TIME BEHAVIOR FREQUENCY", "NPI", "NIGHT-TIME BEHAVIOR", "3", "", "3", 3, "", "", "", "", "", 11.1, "WEEK 22 (T)", 154, "TREATMENT", "2013-12-18", 153], ["CDISCPILOT01", "QS", "01-701-1028", 3321, "NPITM11V", "NIGHT-TIME BEHAVIOR SEVERITY", "NPI", "NIGHT-TIME BEHAVIOR", "2", "", "2", 2, "", "", "", "", "", 11.1, "WEEK 22 (T)", 154, "TREATMENT", "2013-12-18", 153], ["CDISCPILOT01", "QS", "01-701-1028", 3322, "NPITM11D", "NIGHT-TIME BEHAVIOR DISTRESS", "NPI", "NIGHT-TIME BEHAVIOR", "2", "", "2", 2, "", "", "", "", "", 11.1, "WEEK 22 (T)", 154, "TREATMENT", "2013-12-18", 153], ["CDISCPILOT01", "QS", "01-701-1028", 3323, "NPITM11S", "NIGHT-TIME BEHAVIOR Score", "NPI", "NIGHT-TIME BEHAVIOR", "0", "", "0", 0, "", "", "", "", "Y", 11.1, "WEEK 22 (T)", 154, "TREATMENT", "2013-12-18", 153], ["CDISCPILOT01", "QS", "01-701-1028", 3347, "NPITM11F", "NIGHT-TIME BEHAVIOR FREQUENCY", "NPI", "NIGHT-TIME BEHAVIOR", "4", "", "4", 4, "", "", "", "", "", 12.0, "WEEK 24", 168, "TREATMENT", "2014-01-06", 172], ["CDISCPILOT01", "QS", "01-701-1028", 3348, "NPITM11V", "NIGHT-TIME BEHAVIOR SEVERITY", "NPI", "NIGHT-TIME BEHAVIOR", "2", "", "2", 2, "", "", "", "", "", 12.0, "WEEK 24", 168, "TREATMENT", "2014-01-06", 172], ["CDISCPILOT01", "QS", "01-701-1028", 3349, "NPITM11D", "NIGHT-TIME BEHAVIOR DISTRESS", "NPI", "NIGHT-TIME BEHAVIOR", "1", "", "1", 1, "", "", "", "", "", 12.0, "WEEK 24", 168, "TREATMENT", "2014-01-06", 172], ["CDISCPILOT01", "QS", "01-701-1028", 3350, "NPITM11S", "NIGHT-TIME BEHAVIOR Score", "NPI", "NIGHT-TIME BEHAVIOR", "0", "", "0", 0, "", "", "", "", "Y", 12.0, "WEEK 24", 168, "TREATMENT", "2014-01-06", 172], ["CDISCPILOT01", "QS", "01-701-1028", 3374, "NPITM11F", "NIGHT-TIME BEHAVIOR FREQUENCY", "NPI", "NIGHT-TIME BEHAVIOR", "3", "", "3", 3, "", "", "", "", "", 13.0, "WEEK 26", 182, "TREATMENT", "2014-01-14", 180], ["CDISCPILOT01", "QS", "01-701-1028", 3375, "NPITM11V", "NIGHT-TIME BEHAVIOR SEVERITY", "NPI", "NIGHT-TIME BEHAVIOR", "2", "", "2", 2, "", "", "", "", "", 13.0, "WEEK 26", 182, "TREATMENT", "2014-01-14", 180], ["CDISCPILOT01", "QS", "01-701-1028", 3376, "NPITM11D", "NIGHT-TIME BEHAVIOR DISTRESS", "NPI", "NIGHT-TIME BEHAVIOR", "1", "", "1", 1, "", "", "", "", "", 13.0, "WEEK 26", 182, "TREATMENT", "2014-01-14", 180], ["CDISCPILOT01", "QS", "01-701-1028", 3377, "NPITM11S", "NIGHT-TIME BEHAVIOR Score", "NPI", "NIGHT-TIME BEHAVIOR", "0", "", "0", 0, "", "", "", "", "Y", 13.0, "WEEK 26", 182, "TREATMENT", "2014-01-14", 180], ["CDISCPILOT01", "QS", "01-701-1028", 3025, "NPITM12", "APPETITE/EATING CHANGE PRESENT", "NPI", "APPETITE/EATING CHANGE", "ABSENT", "", "0", 0, "", "", "", "Y", "", 3.0, "BASELINE", 1, "TREATMENT", "2013-07-19", 1], ["CDISCPILOT01", "QS", "01-701-1028", 3026, "NPITM12S", "APPETITE/EATING CHANGE Score", "NPI", "APPETITE/EATING CHANGE", "0", "", "0", 0, "", "", "", "Y", "Y", 3.0, "BASELINE", 1, "TREATMENT", "2013-07-19", 1], ["CDISCPILOT01", "QS", "01-701-1028", 3052, "NPITM12", "APPETITE/EATING CHANGE PRESENT", "NPI", "APPETITE/EATING CHANGE", "ABSENT", "", "0", 0, "", "", "", "", "", 4.0, "WEEK 2", 14, "TREATMENT", "2013-08-01", 14], ["CDISCPILOT01", "QS", "01-701-1028", 3053, "NPITM12S", "APPETITE/EATING CHANGE Score", "NPI", "APPETITE/EATING CHANGE", "0", "", "0", 0, "", "", "", "", "Y", 4.0, "WEEK 2", 14, "TREATMENT", "2013-08-01", 14], ["CDISCPILOT01", "QS", "01-701-1028", 3079, "NPITM12", "APPETITE/EATING CHANGE PRESENT", "NPI", "APPETITE/EATING CHANGE", "ABSENT", "", "0", 0, "", "", "", "", "", 5.0, "WEEK 4", 28, "TREATMENT", "2013-08-14", 27], ["CDISCPILOT01", "QS", "01-701-1028", 3080, "NPITM12S", "APPETITE/EATING CHANGE Score", "NPI", "APPETITE/EATING CHANGE", "0", "", "0", 0, "", "", "", "", "Y", 5.0, "WEEK 4", 28, "TREATMENT", "2013-08-14", 27], ["CDISCPILOT01", "QS", "01-701-1028", 3106, "NPITM12", "APPETITE/EATING CHANGE PRESENT", "NPI", "APPETITE/EATING CHANGE", "ABSENT", "", "0", 0, "", "", "", "", "", 7.0, "WEEK 6", 42, "TREATMENT", "2013-08-29", 42], ["CDISCPILOT01", "QS", "01-701-1028", 3107, "NPITM12S", "APPETITE/EATING CHANGE Score", "NPI", "APPETITE/EATING CHANGE", "0", "", "0", 0, "", "", "", "", "Y", 7.0, "WEEK 6", 42, "TREATMENT", "2013-08-29", 42], ["CDISCPILOT01", "QS", "01-701-1028", 3135, "NPITM12", "APPETITE/EATING CHANGE PRESENT", "NPI", "APPETITE/EATING CHANGE", "ABSENT", "", "0", 0, "", "", "", "", "", 8.0, "WEEK 8", 56, "TREATMENT", "2013-09-10", 54], ["CDISCPILOT01", "QS", "01-701-1028", 3136, "NPITM12S", "APPETITE/EATING CHANGE Score", "NPI", "APPETITE/EATING CHANGE", "0", "", "0", 0, "", "", "", "", "Y", 8.0, "WEEK 8", 56, "TREATMENT", "2013-09-10", 54], ["CDISCPILOT01", "QS", "01-701-1028", 3162, "NPITM12", "APPETITE/EATING CHANGE PRESENT", "NPI", "APPETITE/EATING CHANGE", "ABSENT", "", "0", 0, "", "", "", "", "", 8.1, "WEEK 10 (T)", 70, "TREATMENT", "2013-09-24", 68], ["CDISCPILOT01", "QS", "01-701-1028", 3163, "NPITM12S", "APPETITE/EATING CHANGE Score", "NPI", "APPETITE/EATING CHANGE", "0", "", "0", 0, "", "", "", "", "Y", 8.1, "WEEK 10 (T)", 70, "TREATMENT", "2013-09-24", 68], ["CDISCPILOT01", "QS", "01-701-1028", 3189, "NPITM12", "APPETITE/EATING CHANGE PRESENT", "NPI", "APPETITE/EATING CHANGE", "ABSENT", "", "0", 0, "", "", "", "", "", 9.0, "WEEK 12", 84, "TREATMENT", "2013-10-09", 83], ["CDISCPILOT01", "QS", "01-701-1028", 3190, "NPITM12S", "APPETITE/EATING CHANGE Score", "NPI", "APPETITE/EATING CHANGE", "0", "", "0", 0, "", "", "", "", "Y", 9.0, "WEEK 12", 84, "TREATMENT", "2013-10-09", 83], ["CDISCPILOT01", "QS", "01-701-1028", 3216, "NPITM12", "APPETITE/EATING CHANGE PRESENT", "NPI", "APPETITE/EATING CHANGE", "ABSENT", "", "0", 0, "", "", "", "", "", 9.1, "WEEK 14 (T)", 98, "TREATMENT", "2013-10-23", 97], ["CDISCPILOT01", "QS", "01-701-1028", 3217, "NPITM12S", "APPETITE/EATING CHANGE Score", "NPI", "APPETITE/EATING CHANGE", "0", "", "0", 0, "", "", "", "", "Y", 9.1, "WEEK 14 (T)", 98, "TREATMENT", "2013-10-23", 97], ["CDISCPILOT01", "QS", "01-701-1028", 3243, "NPITM12", "APPETITE/EATING CHANGE PRESENT", "NPI", "APPETITE/EATING CHANGE", "ABSENT", "", "0", 0, "", "", "", "", "", 10.0, "WEEK 16", 112, "TREATMENT", "2013-11-06", 111], ["CDISCPILOT01", "QS", "01-701-1028", 3244, "NPITM12S", "APPETITE/EATING CHANGE Score", "NPI", "APPETITE/EATING CHANGE", "0", "", "0", 0, "", "", "", "", "Y", 10.0, "WEEK 16", 112, "TREATMENT", "2013-11-06", 111], ["CDISCPILOT01", "QS", "01-701-1028", 3270, "NPITM12", "APPETITE/EATING CHANGE PRESENT", "NPI", "APPETITE/EATING CHANGE", "ABSENT", "", "0", 0, "", "", "", "", "", 10.1, "WEEK 18 (T)", 126, "TREATMENT", "2013-11-20", 125], ["CDISCPILOT01", "QS", "01-701-1028", 3271, "NPITM12S", "APPETITE/EATING CHANGE Score", "NPI", "APPETITE/EATING CHANGE", "0", "", "0", 0, "", "", "", "", "Y", 10.1, "WEEK 18 (T)", 126, "TREATMENT", "2013-11-20", 125], ["CDISCPILOT01", "QS", "01-701-1028", 3297, "NPITM12", "APPETITE/EATING CHANGE PRESENT", "NPI", "APPETITE/EATING CHANGE", "ABSENT", "", "0", 0, "", "", "", "", "", 11.0, "WEEK 20", 140, "TREATMENT", "2013-12-04", 139], ["CDISCPILOT01", "QS", "01-701-1028", 3298, "NPITM12S", "APPETITE/EATING CHANGE Score", "NPI", "APPETITE/EATING CHANGE", "0", "", "0", 0, "", "", "", "", "Y", 11.0, "WEEK 20", 140, "TREATMENT", "2013-12-04", 139], ["CDISCPILOT01", "QS", "01-701-1028", 3324, "NPITM12", "APPETITE/EATING CHANGE PRESENT", "NPI", "APPETITE/EATING CHANGE", "ABSENT", "", "0", 0, "", "", "", "", "", 11.1, "WEEK 22 (T)", 154, "TREATMENT", "2013-12-18", 153], ["CDISCPILOT01", "QS", "01-701-1028", 3325, "NPITM12S", "APPETITE/EATING CHANGE Score", "NPI", "APPETITE/EATING CHANGE", "0", "", "0", 0, "", "", "", "", "Y", 11.1, "WEEK 22 (T)", 154, "TREATMENT", "2013-12-18", 153], ["CDISCPILOT01", "QS", "01-701-1028", 3351, "NPITM12", "APPETITE/EATING CHANGE PRESENT", "NPI", "APPETITE/EATING CHANGE", "ABSENT", "", "0", 0, "", "", "", "", "", 12.0, "WEEK 24", 168, "TREATMENT", "2014-01-06", 172], ["CDISCPILOT01", "QS", "01-701-1028", 3352, "NPITM12S", "APPETITE/EATING CHANGE Score", "NPI", "APPETITE/EATING CHANGE", "0", "", "0", 0, "", "", "", "", "Y", 12.0, "WEEK 24", 168, "TREATMENT", "2014-01-06", 172], ["CDISCPILOT01", "QS", "01-701-1028", 3378, "NPITM12", "APPETITE/EATING CHANGE PRESENT", "NPI", "APPETITE/EATING CHANGE", "ABSENT", "", "0", 0, "", "", "", "", "", 13.0, "WEEK 26", 182, "TREATMENT", "2014-01-14", 180], ["CDISCPILOT01", "QS", "01-701-1028", 3379, "NPITM12S", "APPETITE/EATING CHANGE Score", "NPI", "APPETITE/EATING CHANGE", "0", "", "0", 0, "", "", "", "", "Y", 13.0, "WEEK 26", 182, "TREATMENT", "2014-01-14", 180], ["CDISCPILOT01", "QS", "01-701-1028", 3027, "NPTOT", "NPI-X (9) Total Score", "NPI", "APPETITE/EATING CHANGE", "", "", "0", 0, "", "", "", "Y", "Y", 3.0, "BASELINE", 1, "TREATMENT", "2013-07-19", 1], ["CDISCPILOT01", "QS", "01-701-1028", 3054, "NPTOT", "NPI-X (9) Total Score", "NPI", "APPETITE/EATING CHANGE", "", "", "0", 0, "", "", "", "", "Y", 4.0, "WEEK 2", 14, "TREATMENT", "2013-08-01", 14], ["CDISCPILOT01", "QS", "01-701-1028", 3081, "NPTOT", "NPI-X (9) Total Score", "NPI", "APPETITE/EATING CHANGE", "", "", "0", 0, "", "", "", "", "Y", 5.0, "WEEK 4", 28, "TREATMENT", "2013-08-14", 27], ["CDISCPILOT01", "QS", "01-701-1028", 3108, "NPTOT", "NPI-X (9) Total Score", "NPI", "APPETITE/EATING CHANGE", "", "", "0", 0, "", "", "", "", "Y", 7.0, "WEEK 6", 42, "TREATMENT", "2013-08-29", 42], ["CDISCPILOT01", "QS", "01-701-1028", 3137, "NPTOT", "NPI-X (9) Total Score", "NPI", "APPETITE/EATING CHANGE", "", "", "0", 0, "", "", "", "", "Y", 8.0, "WEEK 8", 56, "TREATMENT", "2013-09-10", 54], ["CDISCPILOT01", "QS", "01-701-1028", 3164, "NPTOT", "NPI-X (9) Total Score", "NPI", "APPETITE/EATING CHANGE", "", "", "0", 0, "", "", "", "", "Y", 8.1, "WEEK 10 (T)", 70, "TREATMENT", "2013-09-24", 68], ["CDISCPILOT01", "QS", "01-701-1028", 3191, "NPTOT", "NPI-X (9) Total Score", "NPI", "APPETITE/EATING CHANGE", "", "", "0", 0, "", "", "", "", "Y", 9.0, "WEEK 12", 84, "TREATMENT", "2013-10-09", 83], ["CDISCPILOT01", "QS", "01-701-1028", 3218, "NPTOT", "NPI-X (9) Total Score", "NPI", "APPETITE/EATING CHANGE", "", "", "0", 0, "", "", "", "", "Y", 9.1, "WEEK 14 (T)", 98, "TREATMENT", "2013-10-23", 97], ["CDISCPILOT01", "QS", "01-701-1028", 3245, "NPTOT", "NPI-X (9) Total Score", "NPI", "APPETITE/EATING CHANGE", "", "", "0", 0, "", "", "", "", "Y", 10.0, "WEEK 16", 112, "TREATMENT", "2013-11-06", 111], ["CDISCPILOT01", "QS", "01-701-1028", 3272, "NPTOT", "NPI-X (9) Total Score", "NPI", "APPETITE/EATING CHANGE", "", "", "0", 0, "", "", "", "", "Y", 10.1, "WEEK 18 (T)", 126, "TREATMENT", "2013-11-20", 125], ["CDISCPILOT01", "QS", "01-701-1028", 3299, "NPTOT", "NPI-X (9) Total Score", "NPI", "APPETITE/EATING CHANGE", "", "", "0", 0, "", "", "", "", "Y", 11.0, "WEEK 20", 140, "TREATMENT", "2013-12-04", 139], ["CDISCPILOT01", "QS", "01-701-1028", 3326, "NPTOT", "NPI-X (9) Total Score", "NPI", "APPETITE/EATING CHANGE", "", "", "0", 0, "", "", "", "", "Y", 11.1, "WEEK 22 (T)", 154, "TREATMENT", "2013-12-18", 153], ["CDISCPILOT01", "QS", "01-701-1028", 3353, "NPTOT", "NPI-X (9) Total Score", "NPI", "APPETITE/EATING CHANGE", "", "", "0", 0, "", "", "", "", "Y", 12.0, "WEEK 24", 168, "TREATMENT", "2014-01-06", 172], ["CDISCPILOT01", "QS", "01-701-1028", 3380, "NPTOT", "NPI-X (9) Total Score", "NPI", "APPETITE/EATING CHANGE", "", "", "0", 0, "", "", "", "", "Y", 13.0, "WEEK 26", 182, "TREATMENT", "2014-01-14", 180], ["CDISCPILOT01", "QS", "01-701-1033", 3001, "NPITM01", "DELUSIONS PRESENT", "NPI", "DELUSIONS", "ABSENT", "", "0", 0, "", "", "", "Y", "", 3.0, "BASELINE", 1, "TREATMENT", "2014-03-18", 1], ["CDISCPILOT01", "QS", "01-701-1033", 3002, "NPITM01S", "DELUSIONS Score", "NPI", "DELUSIONS", "0", "", "0", 0, "", "", "", "Y", "Y", 3.0, "BASELINE", 1, "TREATMENT", "2014-03-18", 1], ["CDISCPILOT01", "QS", "01-701-1033", 3028, "NPITM01", "DELUSIONS PRESENT", "NPI", "DELUSIONS", "ABSENT", "", "0", 0, "", "", "", "", "", 4.0, "WEEK 2", 14, "TREATMENT", "2014-04-01", 15], ["CDISCPILOT01", "QS", "01-701-1033", 3029, "NPITM01S", "DELUSIONS Score", "NPI", "DELUSIONS", "0", "", "0", 0, "", "", "", "", "Y", 4.0, "WEEK 2", 14, "TREATMENT", "2014-04-01", 15], ["CDISCPILOT01", "QS", "01-701-1033", 3055, "NPITM01", "DELUSIONS PRESENT", "NPI", "DELUSIONS", "ABSENT", "", "0", 0, "", "", "", "", "", 5.0, "WEEK 4", 28, "TREATMENT", "2014-04-14", 28], ["CDISCPILOT01", "QS", "01-701-1033", 3056, "NPITM01S", "DELUSIONS Score", "NPI", "DELUSIONS", "0", "", "0", 0, "", "", "", "", "Y", 5.0, "WEEK 4", 28, "TREATMENT", "2014-04-14", 28], ["CDISCPILOT01", "QS", "01-701-1033", 3080, "NPITM01", "DELUSIONS PRESENT", "NPI", "DELUSIONS", "ABSENT", "", "0", 0, "", "", "", "", "", 201.0, "RETRIEVAL", 168, "TREATMENT", "2014-09-15", 182], ["CDISCPILOT01", "QS", "01-701-1033", 3081, "NPITM01S", "DELUSIONS Score", "NPI", "DELUSIONS", "0", "", "0", 0, "", "", "", "", "Y", 201.0, "RETRIEVAL", 168, "TREATMENT", "2014-09-15", 182], ["CDISCPILOT01", "QS", "01-701-1033", 3003, "NPITM02", "HALLUCINATIONS PRESENT", "NPI", "HALLUCINATIONS", "ABSENT", "", "0", 0, "", "", "", "Y", "", 3.0, "BASELINE", 1, "TREATMENT", "2014-03-18", 1], ["CDISCPILOT01", "QS", "01-701-1033", 3004, "NPITM02S", "HALLUCINATIONS Score", "NPI", "HALLUCINATIONS", "0", "", "0", 0, "", "", "", "Y", "Y", 3.0, "BASELINE", 1, "TREATMENT", "2014-03-18", 1], ["CDISCPILOT01", "QS", "01-701-1033", 3030, "NPITM02", "HALLUCINATIONS PRESENT", "NPI", "HALLUCINATIONS", "ABSENT", "", "0", 0, "", "", "", "", "", 4.0, "WEEK 2", 14, "TREATMENT", "2014-04-01", 15], ["CDISCPILOT01", "QS", "01-701-1033", 3031, "NPITM02S", "HALLUCINATIONS Score", "NPI", "HALLUCINATIONS", "0", "", "0", 0, "", "", "", "", "Y", 4.0, "WEEK 2", 14, "TREATMENT", "2014-04-01", 15], ["CDISCPILOT01", "QS", "01-701-1033", 3057, "NPITM02", "HALLUCINATIONS PRESENT", "NPI", "HALLUCINATIONS", "ABSENT", "", "0", 0, "", "", "", "", "", 5.0, "WEEK 4", 28, "TREATMENT", "2014-04-14", 28], ["CDISCPILOT01", "QS", "01-701-1033", 3058, "NPITM02S", "HALLUCINATIONS Score", "NPI", "HALLUCINATIONS", "0", "", "0", 0, "", "", "", "", "Y", 5.0, "WEEK 4", 28, "TREATMENT", "2014-04-14", 28], ["CDISCPILOT01", "QS", "01-701-1033", 3082, "NPITM02", "HALLUCINATIONS PRESENT", "NPI", "HALLUCINATIONS", "ABSENT", "", "0", 0, "", "", "", "", "", 201.0, "RETRIEVAL", 168, "TREATMENT", "2014-09-15", 182], ["CDISCPILOT01", "QS", "01-701-1033", 3083, "NPITM02S", "HALLUCINATIONS Score", "NPI", "HALLUCINATIONS", "0", "", "0", 0, "", "", "", "", "Y", 201.0, "RETRIEVAL", 168, "TREATMENT", "2014-09-15", 182], ["CDISCPILOT01", "QS", "01-701-1033", 3005, "NPITM03", "AGITATION/AGRESSION PRESENT", "NPI", "AGITATION/AGRESSION", "ABSENT", "", "0", 0, "", "", "", "Y", "", 3.0, "BASELINE", 1, "TREATMENT", "2014-03-18", 1], ["CDISCPILOT01", "QS", "01-701-1033", 3006, "NPITM03S", "AGITATION/AGRESSION Score", "NPI", "AGITATION/AGRESSION", "0", "", "0", 0, "", "", "", "Y", "Y", 3.0, "BASELINE", 1, "TREATMENT", "2014-03-18", 1], ["CDISCPILOT01", "QS", "01-701-1033", 3032, "NPITM03", "AGITATION/AGRESSION PRESENT", "NPI", "AGITATION/AGRESSION", "ABSENT", "", "0", 0, "", "", "", "", "", 4.0, "WEEK 2", 14, "TREATMENT", "2014-04-01", 15], ["CDISCPILOT01", "QS", "01-701-1033", 3033, "NPITM03S", "AGITATION/AGRESSION Score", "NPI", "AGITATION/AGRESSION", "0", "", "0", 0, "", "", "", "", "Y", 4.0, "WEEK 2", 14, "TREATMENT", "2014-04-01", 15], ["CDISCPILOT01", "QS", "01-701-1033", 3059, "NPITM03", "AGITATION/AGRESSION PRESENT", "NPI", "AGITATION/AGRESSION", "ABSENT", "", "0", 0, "", "", "", "", "", 5.0, "WEEK 4", 28, "TREATMENT", "2014-04-14", 28], ["CDISCPILOT01", "QS", "01-701-1033", 3060, "NPITM03S", "AGITATION/AGRESSION Score", "NPI", "AGITATION/AGRESSION", "0", "", "0", 0, "", "", "", "", "Y", 5.0, "WEEK 4", 28, "TREATMENT", "2014-04-14", 28], ["CDISCPILOT01", "QS", "01-701-1033", 3084, "NPITM03", "AGITATION/AGRESSION PRESENT", "NPI", "AGITATION/AGRESSION", "ABSENT", "", "0", 0, "", "", "", "", "", 201.0, "RETRIEVAL", 168, "TREATMENT", "2014-09-15", 182], ["CDISCPILOT01", "QS", "01-701-1033", 3085, "NPITM03S", "AGITATION/AGRESSION Score", "NPI", "AGITATION/AGRESSION", "0", "", "0", 0, "", "", "", "", "Y", 201.0, "RETRIEVAL", 168, "TREATMENT", "2014-09-15", 182], ["CDISCPILOT01", "QS", "01-701-1033", 3007, "NPITM04F", "DEPRESSION/DYSPHORIA FREQUENCY", "NPI", "DEPRESSION/DYSPHORIA", "1", "", "1", 1, "", "", "", "Y", "", 3.0, "BASELINE", 1, "TREATMENT", "2014-03-18", 1], ["CDISCPILOT01", "QS", "01-701-1033", 3008, "NPITM04V", "DEPRESSION/DYSPHORIA SEVERITY", "NPI", "DEPRESSION/DYSPHORIA", "1", "", "1", 1, "", "", "", "Y", "", 3.0, "BASELINE", 1, "TREATMENT", "2014-03-18", 1], ["CDISCPILOT01", "QS", "01-701-1033", 3009, "NPITM04D", "DEPRESSION/DYSPHORIA DISTRESS", "NPI", "DEPRESSION/DYSPHORIA", "1", "", "1", 1, "", "", "", "Y", "", 3.0, "BASELINE", 1, "TREATMENT", "2014-03-18", 1], ["CDISCPILOT01", "QS", "01-701-1033", 3010, "NPITM04S", "DEPRESSION/DYSPHORIA Score", "NPI", "DEPRESSION/DYSPHORIA", "1", "", "1", 1, "", "", "", "Y", "Y", 3.0, "BASELINE", 1, "TREATMENT", "2014-03-18", 1], ["CDISCPILOT01", "QS", "01-701-1033", 3034, "NPITM04", "DEPRESSION/DYSPHORIA PRESENT", "NPI", "DEPRESSION/DYSPHORIA", "ABSENT", "", "0", 0, "", "", "", "", "", 4.0, "WEEK 2", 14, "TREATMENT", "2014-04-01", 15], ["CDISCPILOT01", "QS", "01-701-1033", 3035, "NPITM04S", "DEPRESSION/DYSPHORIA Score", "NPI", "DEPRESSION/DYSPHORIA", "0", "", "0", 0, "", "", "", "", "Y", 4.0, "WEEK 2", 14, "TREATMENT", "2014-04-01", 15], ["CDISCPILOT01", "QS", "01-701-1033", 3061, "NPITM04", "DEPRESSION/DYSPHORIA PRESENT", "NPI", "DEPRESSION/DYSPHORIA", "ABSENT", "", "0", 0, "", "", "", "", "", 5.0, "WEEK 4", 28, "TREATMENT", "2014-04-14", 28], ["CDISCPILOT01", "QS", "01-701-1033", 3062, "NPITM04S", "DEPRESSION/DYSPHORIA Score", "NPI", "DEPRESSION/DYSPHORIA", "0", "", "0", 0, "", "", "", "", "Y", 5.0, "WEEK 4", 28, "TREATMENT", "2014-04-14", 28], ["CDISCPILOT01", "QS", "01-701-1033", 3086, "NPITM04", "DEPRESSION/DYSPHORIA PRESENT", "NPI", "DEPRESSION/DYSPHORIA", "ABSENT", "", "0", 0, "", "", "", "", "", 201.0, "RETRIEVAL", 168, "TREATMENT", "2014-09-15", 182], ["CDISCPILOT01", "QS", "01-701-1033", 3087, "NPITM04S", "DEPRESSION/DYSPHORIA Score", "NPI", "DEPRESSION/DYSPHORIA", "0", "", "0", 0, "", "", "", "", "Y", 201.0, "RETRIEVAL", 168, "TREATMENT", "2014-09-15", 182], ["CDISCPILOT01", "QS", "01-701-1033", 3011, "NPITM05", "ANXIETY PRESENT", "NPI", "ANXIETY", "ABSENT", "", "0", 0, "", "", "", "Y", "", 3.0, "BASELINE", 1, "TREATMENT", "2014-03-18", 1], ["CDISCPILOT01", "QS", "01-701-1033", 3012, "NPITM05S", "ANXIETY Score", "NPI", "ANXIETY", "0", "", "0", 0, "", "", "", "Y", "Y", 3.0, "BASELINE", 1, "TREATMENT", "2014-03-18", 1], ["CDISCPILOT01", "QS", "01-701-1033", 3036, "NPITM05", "ANXIETY PRESENT", "NPI", "ANXIETY", "ABSENT", "", "0", 0, "", "", "", "", "", 4.0, "WEEK 2", 14, "TREATMENT", "2014-04-01", 15], ["CDISCPILOT01", "QS", "01-701-1033", 3037, "NPITM05S", "ANXIETY Score", "NPI", "ANXIETY", "0", "", "0", 0, "", "", "", "", "Y", 4.0, "WEEK 2", 14, "TREATMENT", "2014-04-01", 15], ["CDISCPILOT01", "QS", "01-701-1033", 3063, "NPITM05", "ANXIETY PRESENT", "NPI", "ANXIETY", "ABSENT", "", "0", 0, "", "", "", "", "", 5.0, "WEEK 4", 28, "TREATMENT", "2014-04-14", 28], ["CDISCPILOT01", "QS", "01-701-1033", 3064, "NPITM05S", "ANXIETY Score", "NPI", "ANXIETY", "0", "", "0", 0, "", "", "", "", "Y", 5.0, "WEEK 4", 28, "TREATMENT", "2014-04-14", 28], ["CDISCPILOT01", "QS", "01-701-1033", 3088, "NPITM05", "ANXIETY PRESENT", "NPI", "ANXIETY", "ABSENT", "", "0", 0, "", "", "", "", "", 201.0, "RETRIEVAL", 168, "TREATMENT", "2014-09-15", 182], ["CDISCPILOT01", "QS", "01-701-1033", 3089, "NPITM05S", "ANXIETY Score", "NPI", "ANXIETY", "0", "", "0", 0, "", "", "", "", "Y", 201.0, "RETRIEVAL", 168, "TREATMENT", "2014-09-15", 182], ["CDISCPILOT01", "QS", "01-701-1033", 3013, "NPITM06", "EUPHORIA/ELATION PRESENT", "NPI", "EUPHORIA/ELATION", "ABSENT", "", "0", 0, "", "", "", "Y", "", 3.0, "BASELINE", 1, "TREATMENT", "2014-03-18", 1], ["CDISCPILOT01", "QS", "01-701-1033", 3014, "NPITM06S", "EUPHORIA/ELATION Score", "NPI", "EUPHORIA/ELATION", "0", "", "0", 0, "", "", "", "Y", "Y", 3.0, "BASELINE", 1, "TREATMENT", "2014-03-18", 1], ["CDISCPILOT01", "QS", "01-701-1033", 3038, "NPITM06", "EUPHORIA/ELATION PRESENT", "NPI", "EUPHORIA/ELATION", "ABSENT", "", "0", 0, "", "", "", "", "", 4.0, "WEEK 2", 14, "TREATMENT", "2014-04-01", 15], ["CDISCPILOT01", "QS", "01-701-1033", 3039, "NPITM06S", "EUPHORIA/ELATION Score", "NPI", "EUPHORIA/ELATION", "0", "", "0", 0, "", "", "", "", "Y", 4.0, "WEEK 2", 14, "TREATMENT", "2014-04-01", 15], ["CDISCPILOT01", "QS", "01-701-1033", 3065, "NPITM06", "EUPHORIA/ELATION PRESENT", "NPI", "EUPHORIA/ELATION", "ABSENT", "", "0", 0, "", "", "", "", "", 5.0, "WEEK 4", 28, "TREATMENT", "2014-04-14", 28], ["CDISCPILOT01", "QS", "01-701-1033", 3066, "NPITM06S", "EUPHORIA/ELATION Score", "NPI", "EUPHORIA/ELATION", "0", "", "0", 0, "", "", "", "", "Y", 5.0, "WEEK 4", 28, "TREATMENT", "2014-04-14", 28], ["CDISCPILOT01", "QS", "01-701-1033", 3090, "NPITM06", "EUPHORIA/ELATION PRESENT", "NPI", "EUPHORIA/ELATION", "ABSENT", "", "0", 0, "", "", "", "", "", 201.0, "RETRIEVAL", 168, "TREATMENT", "2014-09-15", 182], ["CDISCPILOT01", "QS", "01-701-1033", 3091, "NPITM06S", "EUPHORIA/ELATION Score", "NPI", "EUPHORIA/ELATION", "0", "", "0", 0, "", "", "", "", "Y", 201.0, "RETRIEVAL", 168, "TREATMENT", "2014-09-15", 182], ["CDISCPILOT01", "QS", "01-701-1033", 3015, "NPITM07", "APATHY/INDIFFERENCE PRESENT", "NPI", "APATHY/INDIFFERENCE", "ABSENT", "", "0", 0, "", "", "", "Y", "", 3.0, "BASELINE", 1, "TREATMENT", "2014-03-18", 1], ["CDISCPILOT01", "QS", "01-701-1033", 3016, "NPITM07S", "APATHY/INDIFFERENCE Score", "NPI", "APATHY/INDIFFERENCE", "0", "", "0", 0, "", "", "", "Y", "Y", 3.0, "BASELINE", 1, "TREATMENT", "2014-03-18", 1], ["CDISCPILOT01", "QS", "01-701-1033", 3040, "NPITM07", "APATHY/INDIFFERENCE PRESENT", "NPI", "APATHY/INDIFFERENCE", "ABSENT", "", "0", 0, "", "", "", "", "", 4.0, "WEEK 2", 14, "TREATMENT", "2014-04-01", 15], ["CDISCPILOT01", "QS", "01-701-1033", 3041, "NPITM07S", "APATHY/INDIFFERENCE Score", "NPI", "APATHY/INDIFFERENCE", "0", "", "0", 0, "", "", "", "", "Y", 4.0, "WEEK 2", 14, "TREATMENT", "2014-04-01", 15], ["CDISCPILOT01", "QS", "01-701-1033", 3067, "NPITM07", "APATHY/INDIFFERENCE PRESENT", "NPI", "APATHY/INDIFFERENCE", "ABSENT", "", "0", 0, "", "", "", "", "", 5.0, "WEEK 4", 28, "TREATMENT", "2014-04-14", 28], ["CDISCPILOT01", "QS", "01-701-1033", 3068, "NPITM07S", "APATHY/INDIFFERENCE Score", "NPI", "APATHY/INDIFFERENCE", "0", "", "0", 0, "", "", "", "", "Y", 5.0, "WEEK 4", 28, "TREATMENT", "2014-04-14", 28], ["CDISCPILOT01", "QS", "01-701-1033", 3092, "NPITM07", "APATHY/INDIFFERENCE PRESENT", "NPI", "APATHY/INDIFFERENCE", "ABSENT", "", "0", 0, "", "", "", "", "", 201.0, "RETRIEVAL", 168, "TREATMENT", "2014-09-15", 182], ["CDISCPILOT01", "QS", "01-701-1033", 3093, "NPITM07S", "APATHY/INDIFFERENCE Score", "NPI", "APATHY/INDIFFERENCE", "0", "", "0", 0, "", "", "", "", "Y", 201.0, "RETRIEVAL", 168, "TREATMENT", "2014-09-15", 182], ["CDISCPILOT01", "QS", "01-701-1033", 3017, "NPITM08", "DISINHIBITION PRESENT", "NPI", "DISINHIBITION", "ABSENT", "", "0", 0, "", "", "", "Y", "", 3.0, "BASELINE", 1, "TREATMENT", "2014-03-18", 1], ["CDISCPILOT01", "QS", "01-701-1033", 3018, "NPITM08S", "DISINHIBITION Score", "NPI", "DISINHIBITION", "0", "", "0", 0, "", "", "", "Y", "Y", 3.0, "BASELINE", 1, "TREATMENT", "2014-03-18", 1], ["CDISCPILOT01", "QS", "01-701-1033", 3042, "NPITM08", "DISINHIBITION PRESENT", "NPI", "DISINHIBITION", "ABSENT", "", "0", 0, "", "", "", "", "", 4.0, "WEEK 2", 14, "TREATMENT", "2014-04-01", 15], ["CDISCPILOT01", "QS", "01-701-1033", 3043, "NPITM08S", "DISINHIBITION Score", "NPI", "DISINHIBITION", "0", "", "0", 0, "", "", "", "", "Y", 4.0, "WEEK 2", 14, "TREATMENT", "2014-04-01", 15], ["CDISCPILOT01", "QS", "01-701-1033", 3069, "NPITM08", "DISINHIBITION PRESENT", "NPI", "DISINHIBITION", "ABSENT", "", "0", 0, "", "", "", "", "", 5.0, "WEEK 4", 28, "TREATMENT", "2014-04-14", 28], ["CDISCPILOT01", "QS", "01-701-1033", 3070, "NPITM08S", "DISINHIBITION Score", "NPI", "DISINHIBITION", "0", "", "0", 0, "", "", "", "", "Y", 5.0, "WEEK 4", 28, "TREATMENT", "2014-04-14", 28], ["CDISCPILOT01", "QS", "01-701-1033", 3094, "NPITM08", "DISINHIBITION PRESENT", "NPI", "DISINHIBITION", "ABSENT", "", "0", 0, "", "", "", "", "", 201.0, "RETRIEVAL", 168, "TREATMENT", "2014-09-15", 182], ["CDISCPILOT01", "QS", "01-701-1033", 3095, "NPITM08S", "DISINHIBITION Score", "NPI", "DISINHIBITION", "0", "", "0", 0, "", "", "", "", "Y", 201.0, "RETRIEVAL", 168, "TREATMENT", "2014-09-15", 182], ["CDISCPILOT01", "QS", "01-701-1033", 3019, "NPITM09", "IRRITABILITY/LABILITY PRESENT", "NPI", "IRRITABILITY/LABILITY", "ABSENT", "", "0", 0, "", "", "", "Y", "", 3.0, "BASELINE", 1, "TREATMENT", "2014-03-18", 1], ["CDISCPILOT01", "QS", "01-701-1033", 3020, "NPITM09S", "IRRITABILITY/LABILITY Score", "NPI", "IRRITABILITY/LABILITY", "0", "", "0", 0, "", "", "", "Y", "Y", 3.0, "BASELINE", 1, "TREATMENT", "2014-03-18", 1], ["CDISCPILOT01", "QS", "01-701-1033", 3044, "NPITM09F", "IRRITABILITY/LABILITY FREQUENCY", "NPI", "IRRITABILITY/LABILITY", "1", "", "1", 1, "", "", "", "", "", 4.0, "WEEK 2", 14, "TREATMENT", "2014-04-01", 15], ["CDISCPILOT01", "QS", "01-701-1033", 3045, "NPITM09V", "IRRITABILITY/LABILITY SEVERITY", "NPI", "IRRITABILITY/LABILITY", "1", "", "1", 1, "", "", "", "", "", 4.0, "WEEK 2", 14, "TREATMENT", "2014-04-01", 15], ["CDISCPILOT01", "QS", "01-701-1033", 3046, "NPITM09D", "IRRITABILITY/LABILITY DISTRESS", "NPI", "IRRITABILITY/LABILITY", "1", "", "1", 1, "", "", "", "", "", 4.0, "WEEK 2", 14, "TREATMENT", "2014-04-01", 15], ["CDISCPILOT01", "QS", "01-701-1033", 3047, "NPITM09S", "IRRITABILITY/LABILITY Score", "NPI", "IRRITABILITY/LABILITY", "1", "", "1", 1, "", "", "", "", "Y", 4.0, "WEEK 2", 14, "TREATMENT", "2014-04-01", 15], ["CDISCPILOT01", "QS", "01-701-1033", 3071, "NPITM09", "IRRITABILITY/LABILITY PRESENT", "NPI", "IRRITABILITY/LABILITY", "ABSENT", "", "0", 0, "", "", "", "", "", 5.0, "WEEK 4", 28, "TREATMENT", "2014-04-14", 28], ["CDISCPILOT01", "QS", "01-701-1033", 3072, "NPITM09S", "IRRITABILITY/LABILITY Score", "NPI", "IRRITABILITY/LABILITY", "0", "", "0", 0, "", "", "", "", "Y", 5.0, "WEEK 4", 28, "TREATMENT", "2014-04-14", 28], ["CDISCPILOT01", "QS", "01-701-1033", 3096, "NPITM09", "IRRITABILITY/LABILITY PRESENT", "NPI", "IRRITABILITY/LABILITY", "ABSENT", "", "0", 0, "", "", "", "", "", 201.0, "RETRIEVAL", 168, "TREATMENT", "2014-09-15", 182], ["CDISCPILOT01", "QS", "01-701-1033", 3097, "NPITM09S", "IRRITABILITY/LABILITY Score", "NPI", "IRRITABILITY/LABILITY", "0", "", "0", 0, "", "", "", "", "Y", 201.0, "RETRIEVAL", 168, "TREATMENT", "2014-09-15", 182], ["CDISCPILOT01", "QS", "01-701-1033", 3021, "NPITM10", "ABERRANT MOTOR BEHAVIOR PRESENT", "NPI", "ABERRANT MOTOR BEHAVIOR", "ABSENT", "", "0", 0, "", "", "", "Y", "", 3.0, "BASELINE", 1, "TREATMENT", "2014-03-18", 1], ["CDISCPILOT01", "QS", "01-701-1033", 3022, "NPITM10S", "ABERRANT MOTOR BEHAVIOR Score", "NPI", "ABERRANT MOTOR BEHAVIOR", "0", "", "0", 0, "", "", "", "Y", "Y", 3.0, "BASELINE", 1, "TREATMENT", "2014-03-18", 1], ["CDISCPILOT01", "QS", "01-701-1033", 3048, "NPITM10", "ABERRANT MOTOR BEHAVIOR PRESENT", "NPI", "ABERRANT MOTOR BEHAVIOR", "ABSENT", "", "0", 0, "", "", "", "", "", 4.0, "WEEK 2", 14, "TREATMENT", "2014-04-01", 15], ["CDISCPILOT01", "QS", "01-701-1033", 3049, "NPITM10S", "ABERRANT MOTOR BEHAVIOR Score", "NPI", "ABERRANT MOTOR BEHAVIOR", "0", "", "0", 0, "", "", "", "", "Y", 4.0, "WEEK 2", 14, "TREATMENT", "2014-04-01", 15], ["CDISCPILOT01", "QS", "01-701-1033", 3073, "NPITM10", "ABERRANT MOTOR BEHAVIOR PRESENT", "NPI", "ABERRANT MOTOR BEHAVIOR", "ABSENT", "", "0", 0, "", "", "", "", "", 5.0, "WEEK 4", 28, "TREATMENT", "2014-04-14", 28], ["CDISCPILOT01", "QS", "01-701-1033", 3074, "NPITM10S", "ABERRANT MOTOR BEHAVIOR Score", "NPI", "ABERRANT MOTOR BEHAVIOR", "0", "", "0", 0, "", "", "", "", "Y", 5.0, "WEEK 4", 28, "TREATMENT", "2014-04-14", 28], ["CDISCPILOT01", "QS", "01-701-1033", 3098, "NPITM10", "ABERRANT MOTOR BEHAVIOR PRESENT", "NPI", "ABERRANT MOTOR BEHAVIOR", "ABSENT", "", "0", 0, "", "", "", "", "", 201.0, "RETRIEVAL", 168, "TREATMENT", "2014-09-15", 182], ["CDISCPILOT01", "QS", "01-701-1033", 3099, "NPITM10S", "ABERRANT MOTOR BEHAVIOR Score", "NPI", "ABERRANT MOTOR BEHAVIOR", "0", "", "0", 0, "", "", "", "", "Y", 201.0, "RETRIEVAL", 168, "TREATMENT", "2014-09-15", 182], ["CDISCPILOT01", "QS", "01-701-1033", 3023, "NPITM11", "NIGHT-TIME BEHAVIOR PRESENT", "NPI", "NIGHT-TIME BEHAVIOR", "ABSENT", "", "0", 0, "", "", "", "Y", "", 3.0, "BASELINE", 1, "TREATMENT", "2014-03-18", 1], ["CDISCPILOT01", "QS", "01-701-1033", 3024, "NPITM11S", "NIGHT-TIME BEHAVIOR Score", "NPI", "NIGHT-TIME BEHAVIOR", "0", "", "0", 0, "", "", "", "Y", "Y", 3.0, "BASELINE", 1, "TREATMENT", "2014-03-18", 1], ["CDISCPILOT01", "QS", "01-701-1033", 3050, "NPITM11", "NIGHT-TIME BEHAVIOR PRESENT", "NPI", "NIGHT-TIME BEHAVIOR", "ABSENT", "", "0", 0, "", "", "", "", "", 4.0, "WEEK 2", 14, "TREATMENT", "2014-04-01", 15], ["CDISCPILOT01", "QS", "01-701-1033", 3051, "NPITM11S", "NIGHT-TIME BEHAVIOR Score", "NPI", "NIGHT-TIME BEHAVIOR", "0", "", "0", 0, "", "", "", "", "Y", 4.0, "WEEK 2", 14, "TREATMENT", "2014-04-01", 15], ["CDISCPILOT01", "QS", "01-701-1033", 3075, "NPITM11", "NIGHT-TIME BEHAVIOR PRESENT", "NPI", "NIGHT-TIME BEHAVIOR", "ABSENT", "", "0", 0, "", "", "", "", "", 5.0, "WEEK 4", 28, "TREATMENT", "2014-04-14", 28], ["CDISCPILOT01", "QS", "01-701-1033", 3076, "NPITM11S", "NIGHT-TIME BEHAVIOR Score", "NPI", "NIGHT-TIME BEHAVIOR", "0", "", "0", 0, "", "", "", "", "Y", 5.0, "WEEK 4", 28, "TREATMENT", "2014-04-14", 28], ["CDISCPILOT01", "QS", "01-701-1033", 3100, "NPITM11", "NIGHT-TIME BEHAVIOR PRESENT", "NPI", "NIGHT-TIME BEHAVIOR", "ABSENT", "", "0", 0, "", "", "", "", "", 201.0, "RETRIEVAL", 168, "TREATMENT", "2014-09-15", 182], ["CDISCPILOT01", "QS", "01-701-1033", 3101, "NPITM11S", "NIGHT-TIME BEHAVIOR Score", "NPI", "NIGHT-TIME BEHAVIOR", "0", "", "0", 0, "", "", "", "", "Y", 201.0, "RETRIEVAL", 168, "TREATMENT", "2014-09-15", 182], ["CDISCPILOT01", "QS", "01-701-1033", 3025, "NPITM12", "APPETITE/EATING CHANGE PRESENT", "NPI", "APPETITE/EATING CHANGE", "ABSENT", "", "0", 0, "", "", "", "Y", "", 3.0, "BASELINE", 1, "TREATMENT", "2014-03-18", 1], ["CDISCPILOT01", "QS", "01-701-1033", 3026, "NPITM12S", "APPETITE/EATING CHANGE Score", "NPI", "APPETITE/EATING CHANGE", "0", "", "0", 0, "", "", "", "Y", "Y", 3.0, "BASELINE", 1, "TREATMENT", "2014-03-18", 1], ["CDISCPILOT01", "QS", "01-701-1033", 3052, "NPITM12", "APPETITE/EATING CHANGE PRESENT", "NPI", "APPETITE/EATING CHANGE", "ABSENT", "", "0", 0, "", "", "", "", "", 4.0, "WEEK 2", 14, "TREATMENT", "2014-04-01", 15], ["CDISCPILOT01", "QS", "01-701-1033", 3053, "NPITM12S", "APPETITE/EATING CHANGE Score", "NPI", "APPETITE/EATING CHANGE", "0", "", "0", 0, "", "", "", "", "Y", 4.0, "WEEK 2", 14, "TREATMENT", "2014-04-01", 15], ["CDISCPILOT01", "QS", "01-701-1033", 3077, "NPITM12", "APPETITE/EATING CHANGE PRESENT", "NPI", "APPETITE/EATING CHANGE", "ABSENT", "", "0", 0, "", "", "", "", "", 5.0, "WEEK 4", 28, "TREATMENT", "2014-04-14", 28], ["CDISCPILOT01", "QS", "01-701-1033", 3078, "NPITM12S", "APPETITE/EATING CHANGE Score", "NPI", "APPETITE/EATING CHANGE", "0", "", "0", 0, "", "", "", "", "Y", 5.0, "WEEK 4", 28, "TREATMENT", "2014-04-14", 28], ["CDISCPILOT01", "QS", "01-701-1033", 3102, "NPITM12", "APPETITE/EATING CHANGE PRESENT", "NPI", "APPETITE/EATING CHANGE", "ABSENT", "", "0", 0, "", "", "", "", "", 201.0, "RETRIEVAL", 168, "TREATMENT", "2014-09-15", 182], ["CDISCPILOT01", "QS", "01-701-1033", 3103, "NPITM12S", "APPETITE/EATING CHANGE Score", "NPI", "APPETITE/EATING CHANGE", "0", "", "0", 0, "", "", "", "", "Y", 201.0, "RETRIEVAL", 168, "TREATMENT", "2014-09-15", 182], ["CDISCPILOT01", "QS", "01-701-1033", 3027, "NPTOT", "NPI-X (9) Total Score", "NPI", "APPETITE/EATING CHANGE", "", "", "1", 1, "", "", "", "Y", "Y", 3.0, "BASELINE", 1, "TREATMENT", "2014-03-18", 1], ["CDISCPILOT01", "QS", "01-701-1033", 3054, "NPTOT", "NPI-X (9) Total Score", "NPI", "APPETITE/EATING CHANGE", "", "", "1", 1, "", "", "", "", "Y", 4.0, "WEEK 2", 14, "TREATMENT", "2014-04-01", 15], ["CDISCPILOT01", "QS", "01-701-1033", 3079, "NPTOT", "NPI-X (9) Total Score", "NPI", "APPETITE/EATING CHANGE", "", "", "0", 0, "", "", "", "", "Y", 5.0, "WEEK 4", 28, "TREATMENT", "2014-04-14", 28], ["CDISCPILOT01", "QS", "01-701-1033", 3104, "NPTOT", "NPI-X (9) Total Score", "NPI", "APPETITE/EATING CHANGE", "", "", "0", 0, "", "", "", "", "Y", 201.0, "RETRIEVAL", 168, "TREATMENT", "2014-09-15", 182], ["CDISCPILOT01", "QS", "01-701-1034", 3001, "NPITM01", "DELUSIONS PRESENT", "NPI", "DELUSIONS", "ABSENT", "", "0", 0, "", "", "", "Y", "", 3.0, "BASELINE", 1, "TREATMENT", "2014-07-01", 1], ["CDISCPILOT01", "QS", "01-701-1034", 3002, "NPITM01S", "DELUSIONS Score", "NPI", "DELUSIONS", "0", "", "0", 0, "", "", "", "Y", "Y", 3.0, "BASELINE", 1, "TREATMENT", "2014-07-01", 1], ["CDISCPILOT01", "QS", "01-701-1034", 3026, "NPITM01", "DELUSIONS PRESENT", "NPI", "DELUSIONS", "ABSENT", "", "0", 0, "", "", "", "", "", 4.0, "WEEK 2", 14, "TREATMENT", "2014-07-15", 15], ["CDISCPILOT01", "QS", "01-701-1034", 3027, "NPITM01S", "DELUSIONS Score", "NPI", "DELUSIONS", "0", "", "0", 0, "", "", "", "", "Y", 4.0, "WEEK 2", 14, "TREATMENT", "2014-07-15", 15], ["CDISCPILOT01", "QS", "01-701-1034", 3051, "NPITM01", "DELUSIONS PRESENT", "NPI", "DELUSIONS", "ABSENT", "", "0", 0, "", "", "", "", "", 5.0, "WEEK 4", 28, "TREATMENT", "2014-07-29", 29], ["CDISCPILOT01", "QS", "01-701-1034", 3052, "NPITM01S", "DELUSIONS Score", "NPI", "DELUSIONS", "0", "", "0", 0, "", "", "", "", "Y", 5.0, "WEEK 4", 28, "TREATMENT", "2014-07-29", 29], ["CDISCPILOT01", "QS", "01-701-1034", 3082, "NPITM01", "DELUSIONS PRESENT", "NPI", "DELUSIONS", "ABSENT", "", "0", 0, "", "", "", "", "", 7.0, "WEEK 6", 42, "TREATMENT", "2014-08-11", 42], ["CDISCPILOT01", "QS", "01-701-1034", 3083, "NPITM01S", "DELUSIONS Score", "NPI", "DELUSIONS", "0", "", "0", 0, "", "", "", "", "Y", 7.0, "WEEK 6", 42, "TREATMENT", "2014-08-11", 42], ["CDISCPILOT01", "QS", "01-701-1034", 3113, "NPITM01", "DELUSIONS PRESENT", "NPI", "DELUSIONS", "ABSENT", "", "0", 0, "", "", "", "", "", 8.0, "WEEK 8", 56, "TREATMENT", "2014-08-26", 57], ["CDISCPILOT01", "QS", "01-701-1034", 3114, "NPITM01S", "DELUSIONS Score", "NPI", "DELUSIONS", "0", "", "0", 0, "", "", "", "", "Y", 8.0, "WEEK 8", 56, "TREATMENT", "2014-08-26", 57], ["CDISCPILOT01", "QS", "01-701-1034", 3138, "NPITM01F", "DELUSIONS FREQUENCY", "NPI", "DELUSIONS", "1", "", "1", 1, "", "", "", "", "", 8.1, "WEEK 10 (T)", 70, "TREATMENT", "2014-09-09", 71], ["CDISCPILOT01", "QS", "01-701-1034", 3139, "NPITM01V", "DELUSIONS SEVERITY", "NPI", "DELUSIONS", "1", "", "1", 1, "", "", "", "", "", 8.1, "WEEK 10 (T)", 70, "TREATMENT", "2014-09-09", 71], ["CDISCPILOT01", "QS", "01-701-1034", 3140, "NPITM01D", "DELUSIONS DISTRESS", "NPI", "DELUSIONS", "1", "", "1", 1, "", "", "", "", "", 8.1, "WEEK 10 (T)", 70, "TREATMENT", "2014-09-09", 71], ["CDISCPILOT01", "QS", "01-701-1034", 3141, "NPITM01S", "DELUSIONS Score", "NPI", "DELUSIONS", "1", "", "1", 1, "", "", "", "", "Y", 8.1, "WEEK 10 (T)", 70, "TREATMENT", "2014-09-09", 71], ["CDISCPILOT01", "QS", "01-701-1034", 3165, "NPITM01", "DELUSIONS PRESENT", "NPI", "DELUSIONS", "ABSENT", "", "0", 0, "", "", "", "", "", 9.0, "WEEK 12", 84, "TREATMENT", "2014-09-25", 87], ["CDISCPILOT01", "QS", "01-701-1034", 3166, "NPITM01S", "DELUSIONS Score", "NPI", "DELUSIONS", "0", "", "0", 0, "", "", "", "", "Y", 9.0, "WEEK 12", 84, "TREATMENT", "2014-09-25", 87], ["CDISCPILOT01", "QS", "01-701-1034", 3190, "NPITM01", "DELUSIONS PRESENT", "NPI", "DELUSIONS", "ABSENT", "", "0", 0, "", "", "", "", "", 9.1, "WEEK 14 (T)", 98, "TREATMENT", "2014-10-07", 99], ["CDISCPILOT01", "QS", "01-701-1034", 3191, "NPITM01S", "DELUSIONS Score", "NPI", "DELUSIONS", "0", "", "0", 0, "", "", "", "", "Y", 9.1, "WEEK 14 (T)", 98, "TREATMENT", "2014-10-07", 99], ["CDISCPILOT01", "QS", "01-701-1034", 3215, "NPITM01", "DELUSIONS PRESENT", "NPI", "DELUSIONS", "ABSENT", "", "0", 0, "", "", "", "", "", 10.0, "WEEK 16", 112, "TREATMENT", "2014-10-21", 113], ["CDISCPILOT01", "QS", "01-701-1034", 3216, "NPITM01S", "DELUSIONS Score", "NPI", "DELUSIONS", "0", "", "0", 0, "", "", "", "", "Y", 10.0, "WEEK 16", 112, "TREATMENT", "2014-10-21", 113], ["CDISCPILOT01", "QS", "01-701-1034", 3240, "NPITM01", "DELUSIONS PRESENT", "NPI", "DELUSIONS", "ABSENT", "", "0", 0, "", "", "", "", "", 10.1, "WEEK 18 (T)", 126, "TREATMENT", "2014-11-04", 127], ["CDISCPILOT01", "QS", "01-701-1034", 3241, "NPITM01S", "DELUSIONS Score", "NPI", "DELUSIONS", "0", "", "0", 0, "", "", "", "", "Y", 10.1, "WEEK 18 (T)", 126, "TREATMENT", "2014-11-04", 127], ["CDISCPILOT01", "QS", "01-701-1034", 3271, "NPITM01", "DELUSIONS PRESENT", "NPI", "DELUSIONS", "ABSENT", "", "0", 0, "", "", "", "", "", 11.0, "WEEK 20", 140, "TREATMENT", "2014-11-18", 141], ["CDISCPILOT01", "QS", "01-701-1034", 3272, "NPITM01S", "DELUSIONS Score", "NPI", "DELUSIONS", "0", "", "0", 0, "", "", "", "", "Y", 11.0, "WEEK 20", 140, "TREATMENT", "2014-11-18", 141], ["CDISCPILOT01", "QS", "01-701-1034", 3298, "NPITM01", "DELUSIONS PRESENT", "NPI", "DELUSIONS", "ABSENT", "", "0", 0, "", "", "", "", "", 11.1, "WEEK 22 (T)", 154, "TREATMENT", "2014-12-02", 155], ["CDISCPILOT01", "QS", "01-701-1034", 3299, "NPITM01S", "DELUSIONS Score", "NPI", "DELUSIONS", "0", "", "0", 0, "", "", "", "", "Y", 11.1, "WEEK 22 (T)", 154, "TREATMENT", "2014-12-02", 155], ["CDISCPILOT01", "QS", "01-701-1034", 3323, "NPITM01", "DELUSIONS PRESENT", "NPI", "DELUSIONS", "ABSENT", "", "0", 0, "", "", "", "", "", 12.0, "WEEK 24", 168, "TREATMENT", "2014-12-17", 170], ["CDISCPILOT01", "QS", "01-701-1034", 3324, "NPITM01S", "DELUSIONS Score", "NPI", "DELUSIONS", "0", "", "0", 0, "", "", "", "", "Y", 12.0, "WEEK 24", 168, "TREATMENT", "2014-12-17", 170], ["CDISCPILOT01", "QS", "01-701-1034", 3350, "NPITM01", "DELUSIONS PRESENT", "NPI", "DELUSIONS", "ABSENT", "", "0", 0, "", "", "", "", "", 13.0, "WEEK 26", 182, "TREATMENT", "2014-12-30", 183], ["CDISCPILOT01", "QS", "01-701-1034", 3351, "NPITM01S", "DELUSIONS Score", "NPI", "DELUSIONS", "0", "", "0", 0, "", "", "", "", "Y", 13.0, "WEEK 26", 182, "TREATMENT", "2014-12-30", 183], ["CDISCPILOT01", "QS", "01-701-1034", 3003, "NPITM02", "HALLUCINATIONS PRESENT", "NPI", "HALLUCINATIONS", "ABSENT", "", "0", 0, "", "", "", "Y", "", 3.0, "BASELINE", 1, "TREATMENT", "2014-07-01", 1], ["CDISCPILOT01", "QS", "01-701-1034", 3004, "NPITM02S", "HALLUCINATIONS Score", "NPI", "HALLUCINATIONS", "0", "", "0", 0, "", "", "", "Y", "Y", 3.0, "BASELINE", 1, "TREATMENT", "2014-07-01", 1], ["CDISCPILOT01", "QS", "01-701-1034", 3028, "NPITM02", "HALLUCINATIONS PRESENT", "NPI", "HALLUCINATIONS", "ABSENT", "", "0", 0, "", "", "", "", "", 4.0, "WEEK 2", 14, "TREATMENT", "2014-07-15", 15], ["CDISCPILOT01", "QS", "01-701-1034", 3029, "NPITM02S", "HALLUCINATIONS Score", "NPI", "HALLUCINATIONS", "0", "", "0", 0, "", "", "", "", "Y", 4.0, "WEEK 2", 14, "TREATMENT", "2014-07-15", 15], ["CDISCPILOT01", "QS", "01-701-1034", 3053, "NPITM02", "HALLUCINATIONS PRESENT", "NPI", "HALLUCINATIONS", "ABSENT", "", "0", 0, "", "", "", "", "", 5.0, "WEEK 4", 28, "TREATMENT", "2014-07-29", 29], ["CDISCPILOT01", "QS", "01-701-1034", 3054, "NPITM02S", "HALLUCINATIONS Score", "NPI", "HALLUCINATIONS", "0", "", "0", 0, "", "", "", "", "Y", 5.0, "WEEK 4", 28, "TREATMENT", "2014-07-29", 29], ["CDISCPILOT01", "QS", "01-701-1034", 3084, "NPITM02", "HALLUCINATIONS PRESENT", "NPI", "HALLUCINATIONS", "ABSENT", "", "0", 0, "", "", "", "", "", 7.0, "WEEK 6", 42, "TREATMENT", "2014-08-11", 42], ["CDISCPILOT01", "QS", "01-701-1034", 3085, "NPITM02S", "HALLUCINATIONS Score", "NPI", "HALLUCINATIONS", "0", "", "0", 0, "", "", "", "", "Y", 7.0, "WEEK 6", 42, "TREATMENT", "2014-08-11", 42], ["CDISCPILOT01", "QS", "01-701-1034", 3115, "NPITM02", "HALLUCINATIONS PRESENT", "NPI", "HALLUCINATIONS", "ABSENT", "", "0", 0, "", "", "", "", "", 8.0, "WEEK 8", 56, "TREATMENT", "2014-08-26", 57], ["CDISCPILOT01", "QS", "01-701-1034", 3116, "NPITM02S", "HALLUCINATIONS Score", "NPI", "HALLUCINATIONS", "0", "", "0", 0, "", "", "", "", "Y", 8.0, "WEEK 8", 56, "TREATMENT", "2014-08-26", 57], ["CDISCPILOT01", "QS", "01-701-1034", 3142, "NPITM02", "HALLUCINATIONS PRESENT", "NPI", "HALLUCINATIONS", "ABSENT", "", "0", 0, "", "", "", "", "", 8.1, "WEEK 10 (T)", 70, "TREATMENT", "2014-09-09", 71], ["CDISCPILOT01", "QS", "01-701-1034", 3143, "NPITM02S", "HALLUCINATIONS Score", "NPI", "HALLUCINATIONS", "0", "", "0", 0, "", "", "", "", "Y", 8.1, "WEEK 10 (T)", 70, "TREATMENT", "2014-09-09", 71], ["CDISCPILOT01", "QS", "01-701-1034", 3167, "NPITM02", "HALLUCINATIONS PRESENT", "NPI", "HALLUCINATIONS", "ABSENT", "", "0", 0, "", "", "", "", "", 9.0, "WEEK 12", 84, "TREATMENT", "2014-09-25", 87], ["CDISCPILOT01", "QS", "01-701-1034", 3168, "NPITM02S", "HALLUCINATIONS Score", "NPI", "HALLUCINATIONS", "0", "", "0", 0, "", "", "", "", "Y", 9.0, "WEEK 12", 84, "TREATMENT", "2014-09-25", 87], ["CDISCPILOT01", "QS", "01-701-1034", 3192, "NPITM02", "HALLUCINATIONS PRESENT", "NPI", "HALLUCINATIONS", "ABSENT", "", "0", 0, "", "", "", "", "", 9.1, "WEEK 14 (T)", 98, "TREATMENT", "2014-10-07", 99], ["CDISCPILOT01", "QS", "01-701-1034", 3193, "NPITM02S", "HALLUCINATIONS Score", "NPI", "HALLUCINATIONS", "0", "", "0", 0, "", "", "", "", "Y", 9.1, "WEEK 14 (T)", 98, "TREATMENT", "2014-10-07", 99], ["CDISCPILOT01", "QS", "01-701-1034", 3217, "NPITM02", "HALLUCINATIONS PRESENT", "NPI", "HALLUCINATIONS", "ABSENT", "", "0", 0, "", "", "", "", "", 10.0, "WEEK 16", 112, "TREATMENT", "2014-10-21", 113], ["CDISCPILOT01", "QS", "01-701-1034", 3218, "NPITM02S", "HALLUCINATIONS Score", "NPI", "HALLUCINATIONS", "0", "", "0", 0, "", "", "", "", "Y", 10.0, "WEEK 16", 112, "TREATMENT", "2014-10-21", 113], ["CDISCPILOT01", "QS", "01-701-1034", 3242, "NPITM02", "HALLUCINATIONS PRESENT", "NPI", "HALLUCINATIONS", "ABSENT", "", "0", 0, "", "", "", "", "", 10.1, "WEEK 18 (T)", 126, "TREATMENT", "2014-11-04", 127], ["CDISCPILOT01", "QS", "01-701-1034", 3243, "NPITM02S", "HALLUCINATIONS Score", "NPI", "HALLUCINATIONS", "0", "", "0", 0, "", "", "", "", "Y", 10.1, "WEEK 18 (T)", 126, "TREATMENT", "2014-11-04", 127], ["CDISCPILOT01", "QS", "01-701-1034", 3273, "NPITM02", "HALLUCINATIONS PRESENT", "NPI", "HALLUCINATIONS", "ABSENT", "", "0", 0, "", "", "", "", "", 11.0, "WEEK 20", 140, "TREATMENT", "2014-11-18", 141], ["CDISCPILOT01", "QS", "01-701-1034", 3274, "NPITM02S", "HALLUCINATIONS Score", "NPI", "HALLUCINATIONS", "0", "", "0", 0, "", "", "", "", "Y", 11.0, "WEEK 20", 140, "TREATMENT", "2014-11-18", 141], ["CDISCPILOT01", "QS", "01-701-1034", 3300, "NPITM02", "HALLUCINATIONS PRESENT", "NPI", "HALLUCINATIONS", "ABSENT", "", "0", 0, "", "", "", "", ""