{"datasetJSONCreationDateTime": "2025-01-04T16:24:10", "datasetJSONVersion": "1.1.0", "fileOID": "UpdatedCDISCPILOT.CDISC SDTM.3.2.SUPPLBHE", "studyOID": "UpdatedCDISCPILOT.CDISC SDTM.3.2", "metaDataVersionOID": "MDV.UpdatedCDISCPILOT.CDISC SDTM.3.2", "itemGroupOID": "{SUPPLBHE", "records": 24558, "name": "SUPPLBHE", "label": "Supplemental Qualifiers for LB", "columns": [{"itemOID": "IT.SUPPLBHE.STUDYID", "name": "STUDYID", "label": "Study Identifier", "dataType": "string", "length": 12, "keySequence": 1}, {"itemOID": "IT.SUPPLBHE.RDOMAIN", "name": "RDOMAIN", "label": "Related Domain Abbreviation", "dataType": "string", "length": 2, "keySequence": 2}, {"itemOID": "IT.SUPPLBHE.USUBJID", "name": "USUBJID", "label": "Unique Subject Identifier", "dataType": "string", "length": 11, "keySequence": 3}, {"itemOID": "IT.SUPPLBHE.IDVAR", "name": "IDVAR", "label": "Identifying Variable", "dataType": "string", "length": 8, "keySequence": 4}, {"itemOID": "IT.SUPPLBHE.IDVARVAL", "name": "IDVARVAL", "label": "Identifying Variable Value", "dataType": "string", "length": 200, "keySequence": 5}, {"itemOID": "IT.SUPPLBHE.QNAM", "name": "QNAM", "label": "Qualifier Variable Name", "dataType": "string", "length": 8, "keySequence": 6}, {"itemOID": "IT.SUPPLBHE.QLABEL", "name": "QLABEL", "label": "Qualifier Variable Label", "dataType": "string", "length": 40}, {"itemOID": "IT.SUPPLBHE.QVAL", "name": "QVAL", "label": "Data Value", "dataType": "string", "length": 200}, {"itemOID": "IT.SUPPLBHE.QORIG", "name": "QORIG", "label": "Origin", "dataType": "string", "length": 200}, {"itemOID": "IT.SUPPLBHE.QEVAL", "name": "QEVAL", "label": "Evaluator", "dataType": "string", "length": 200}], "rows": [["CDISCPILOT01", "LB", "01-701-1015", "LBSEQ", "6", "LBTMSHI", "LAB RESULT/UPPER LIMIT OF NORMAL", "0.3", "DERIVED", "CLINICAL STUDY SPONSOR"], ["CDISCPILOT01", "LB", "01-701-1015", "LBSEQ", "15", "LBTMSHI", "LAB RESULT/UPPER LIMIT OF NORMAL", "0.2", "DERIVED", "CLINICAL STUDY SPONSOR"], ["CDISCPILOT01", "LB", "01-701-1015", "LBSEQ", "18", "LBTMSHI", "LAB RESULT/UPPER LIMIT OF NORMAL", "0.9", "DERIVED", "CLINICAL STUDY SPONSOR"], ["CDISCPILOT01", "LB", "01-701-1015", "LBSEQ", "19", "LBTMSHI", "LAB RESULT/UPPER LIMIT OF NORMAL", "0.9", "DERIVED", "CLINICAL STUDY SPONSOR"], ["CDISCPILOT01", "LB", "01-701-1015", "LBSEQ", "22", "LBTMSHI", "LAB RESULT/UPPER LIMIT OF NORMAL", "0.7", "DERIVED", "CLINICAL STUDY SPONSOR"], ["CDISCPILOT01", "LB", "01-701-1015", "LBSEQ", "23", "LBTMSHI", "LAB RESULT/UPPER LIMIT OF NORMAL", "0.8", "DERIVED", "CLINICAL STUDY SPONSOR"], ["CDISCPILOT01", "LB", "01-701-1015", "LBSEQ", "24", "LBTMSHI", "LAB RESULT/UPPER LIMIT OF NORMAL", "0.9", "DERIVED", "CLINICAL STUDY SPONSOR"], ["CDISCPILOT01", "LB", "01-701-1015", "LBSEQ", "25", "LBTMSHI", "LAB RESULT/UPPER LIMIT OF NORMAL", "0.8", "DERIVED", "CLINICAL STUDY SPONSOR"], ["CDISCPILOT01", "LB", "01-701-1015", "LBSEQ", "26", "LBTMSHI", "LAB RESULT/UPPER LIMIT OF NORMAL", "0.2", "DERIVED", "CLINICAL STUDY SPONSOR"], ["CDISCPILOT01", "LB", "01-701-1015", "LBSEQ", "30", "LBTMSHI", "LAB RESULT/UPPER LIMIT OF NORMAL", "0.7", "DERIVED", "CLINICAL STUDY SPONSOR"], ["CDISCPILOT01", "LB", "01-701-1015", "LBSEQ", "32", "LBTMSHI", "LAB RESULT/UPPER LIMIT OF NORMAL", "1.0", "DERIVED", "CLINICAL STUDY SPONSOR"], ["CDISCPILOT01", "LB", "01-701-1015", "LBSEQ", "38", "LBTMSHI", "LAB RESULT/UPPER LIMIT OF NORMAL", "0.5", "DERIVED", "CLINICAL STUDY SPONSOR"], ["CDISCPILOT01", "LB", "01-701-1015", "LBSEQ", "43", "LBTMSHI", "LAB RESULT/UPPER LIMIT OF NORMAL", "0.2", "DERIVED", "CLINICAL STUDY SPONSOR"], ["CDISCPILOT01", "LB", "01-701-1015", "LBSEQ", "52", "LBTMSHI", "LAB RESULT/UPPER LIMIT OF NORMAL", "0.1", "DERIVED", "CLINICAL STUDY SPONSOR"], ["CDISCPILOT01", "LB", "01-701-1015", "LBSEQ", "55", "LBTMSHI", "LAB RESULT/UPPER LIMIT OF NORMAL", "0.9", "DERIVED", "CLINICAL STUDY SPONSOR"], ["CDISCPILOT01", "LB", "01-701-1015", "LBSEQ", "56", "LBTMSHI", "LAB RESULT/UPPER LIMIT OF NORMAL", "0.9", "DERIVED", "CLINICAL STUDY SPONSOR"], ["CDISCPILOT01", "LB", "01-701-1015", "LBSEQ", "59", "LBTMSHI", "LAB RESULT/UPPER LIMIT OF NORMAL", "0.7", "DERIVED", "CLINICAL STUDY SPONSOR"], ["CDISCPILOT01", "LB", "01-701-1015", "LBSEQ", "60", "LBTMSHI", "LAB RESULT/UPPER LIMIT OF NORMAL", "0.8", "DERIVED", "CLINICAL STUDY SPONSOR"], ["CDISCPILOT01", "LB", "01-701-1015", "LBSEQ", "61", "LBTMSHI", "LAB RESULT/UPPER LIMIT OF NORMAL", "0.9", "DERIVED", "CLINICAL STUDY SPONSOR"], ["CDISCPILOT01", "LB", "01-701-1015", "LBSEQ", "62", "LBTMSHI", "LAB RESULT/UPPER LIMIT OF NORMAL", "0.8", "DERIVED", "CLINICAL STUDY SPONSOR"], ["CDISCPILOT01", "LB", "01-701-1015", "LBSEQ", "63", "LBTMSHI", "LAB RESULT/UPPER LIMIT OF NORMAL", "0.3", "DERIVED", "CLINICAL STUDY SPONSOR"], ["CDISCPILOT01", "LB", "01-701-1015", "LBSEQ", "67", "LBTMSHI", "LAB RESULT/UPPER LIMIT OF NORMAL", "0.8", "DERIVED", "CLINICAL STUDY SPONSOR"], ["CDISCPILOT01", "LB", "01-701-1015", "LBSEQ", "69", "LBTMSHI", "LAB RESULT/UPPER LIMIT OF NORMAL", "1.0", "DERIVED", "CLINICAL STUDY SPONSOR"], ["CDISCPILOT01", "LB", "01-701-1015", "LBSEQ", "73", "LBTMSHI", "LAB RESULT/UPPER LIMIT OF NORMAL", "0.5", "DERIVED", "CLINICAL STUDY SPONSOR"], ["CDISCPILOT01", "LB", "01-701-1015", "LBSEQ", "78", "LBTMSHI", "LAB RESULT/UPPER LIMIT OF NORMAL", "0.1", "DERIVED", "CLINICAL STUDY SPONSOR"], ["CDISCPILOT01", "LB", "01-701-1015", "LBSEQ", "86", "LBTMSHI", "LAB RESULT/UPPER LIMIT OF NORMAL", "0.1", "DERIVED", "CLINICAL STUDY SPONSOR"], ["CDISCPILOT01", "LB", "01-701-1015", "LBSEQ", "89", "LBTMSHI", "LAB RESULT/UPPER LIMIT OF NORMAL", "0.8", "DERIVED", "CLINICAL STUDY SPONSOR"], ["CDISCPILOT01", "LB", "01-701-1015", "LBSEQ", "90", "LBTMSHI", "LAB RESULT/UPPER LIMIT OF NORMAL", "0.8", "DERIVED", "CLINICAL STUDY SPONSOR"], ["CDISCPILOT01", "LB", "01-701-1015", "LBSEQ", "92", "LBTMSHI", "LAB RESULT/UPPER LIMIT OF NORMAL", "0.6", "DERIVED", "CLINICAL STUDY SPONSOR"], ["CDISCPILOT01", "LB", "01-701-1015", "LBSEQ", "93", "LBTMSHI", "LAB RESULT/UPPER LIMIT OF NORMAL", "0.8", "DERIVED", "CLINICAL STUDY SPONSOR"], ["CDISCPILOT01", "LB", "01-701-1015", "LBSEQ", "94", "LBTMSHI", "LAB RESULT/UPPER LIMIT OF NORMAL", "0.9", "DERIVED", "CLINICAL STUDY SPONSOR"], ["CDISCPILOT01", "LB", "01-701-1015", "LBSEQ", "95", "LBTMSHI", "LAB RESULT/UPPER LIMIT OF NORMAL", "0.8", "DERIVED", "CLINICAL STUDY SPONSOR"], ["CDISCPILOT01", "LB", "01-701-1015", "LBSEQ", "96", "LBTMSHI", "LAB RESULT/UPPER LIMIT OF NORMAL", "0.3", "DERIVED", "CLINICAL STUDY SPONSOR"], ["CDISCPILOT01", "LB", "01-701-1015", "LBSEQ", "99", "LBTMSHI", "LAB RESULT/UPPER LIMIT OF NORMAL", "0.6", "DERIVED", "CLINICAL STUDY SPONSOR"], ["CDISCPILOT01", "LB", "01-701-1015", "LBSEQ", "101", "LBTMSHI", "LAB RESULT/UPPER LIMIT OF NORMAL", "0.9", "DERIVED", "CLINICAL STUDY SPONSOR"], ["CDISCPILOT01", "LB", "01-701-1015", "LBSEQ", "103", "LBTMSHI", "LAB RESULT/UPPER LIMIT OF NORMAL", "0.4", "DERIVED", "CLINICAL STUDY SPONSOR"], ["CDISCPILOT01", "LB", "01-701-1015", "LBSEQ", "108", "LBTMSHI", "LAB RESULT/UPPER LIMIT OF NORMAL", "0.2", "DERIVED", "CLINICAL STUDY SPONSOR"], ["CDISCPILOT01", "LB", "01-701-1015", "LBSEQ", "116", "LBTMSHI", "LAB RESULT/UPPER LIMIT OF NORMAL", "0.1", "DERIVED", "CLINICAL STUDY SPONSOR"], ["CDISCPILOT01", "LB", "01-701-1015", "LBSEQ", "119", "LBTMSHI", "LAB RESULT/UPPER LIMIT OF NORMAL", "0.8", "DERIVED", "CLINICAL STUDY SPONSOR"], ["CDISCPILOT01", "LB", "01-701-1015", "LBSEQ", "120", "LBTMSHI", "LAB RESULT/UPPER LIMIT OF NORMAL", "0.9", "DERIVED", "CLINICAL STUDY SPONSOR"], ["CDISCPILOT01", "LB", "01-701-1015", "LBSEQ", "122", "LBTMSHI", "LAB RESULT/UPPER LIMIT OF NORMAL", "0.5", "DERIVED", "CLINICAL STUDY SPONSOR"], ["CDISCPILOT01", "LB", "01-701-1015", "LBSEQ", "123", "LBTMSHI", "LAB RESULT/UPPER LIMIT OF NORMAL", "0.8", "DERIVED", "CLINICAL STUDY SPONSOR"], ["CDISCPILOT01", "LB", "01-701-1015", "LBSEQ", "124", "LBTMSHI", "LAB RESULT/UPPER LIMIT OF NORMAL", "0.9", "DERIVED", "CLINICAL STUDY SPONSOR"], ["CDISCPILOT01", "LB", "01-701-1015", "LBSEQ", "125", "LBTMSHI", "LAB RESULT/UPPER LIMIT OF NORMAL", "0.8", "DERIVED", "CLINICAL STUDY SPONSOR"], ["CDISCPILOT01", "LB", "01-701-1015", "LBSEQ", "126", "LBTMSHI", "LAB RESULT/UPPER LIMIT OF NORMAL", "0.3", "DERIVED", "CLINICAL STUDY SPONSOR"], ["CDISCPILOT01", "LB", "01-701-1015", "LBSEQ", "129", "LBTMSHI", "LAB RESULT/UPPER LIMIT OF NORMAL", "0.6", "DERIVED", "CLINICAL STUDY SPONSOR"], ["CDISCPILOT01", "LB", "01-701-1015", "LBSEQ", "131", "LBTMSHI", "LAB RESULT/UPPER LIMIT OF NORMAL", "0.9", "DERIVED", "CLINICAL STUDY SPONSOR"], ["CDISCPILOT01", "LB", "01-701-1015", "LBSEQ", "133", "LBTMSHI", "LAB RESULT/UPPER LIMIT OF NORMAL", "0.4", "DERIVED", "CLINICAL STUDY SPONSOR"], ["CDISCPILOT01", "LB", "01-701-1015", "LBSEQ", "138", "LBTMSHI", "LAB RESULT/UPPER LIMIT OF NORMAL", "0.3", "DERIVED", "CLINICAL STUDY SPONSOR"], ["CDISCPILOT01", "LB", "01-701-1015", "LBSEQ", "146", "LBTMSHI", "LAB RESULT/UPPER LIMIT OF NORMAL", "0.2", "DERIVED", "CLINICAL STUDY SPONSOR"], ["CDISCPILOT01", "LB", "01-701-1015", "LBSEQ", "149", "LBTMSHI", "LAB RESULT/UPPER LIMIT OF NORMAL", "0.9", "DERIVED", "CLINICAL STUDY SPONSOR"], ["CDISCPILOT01", "LB", "01-701-1015", "LBSEQ", "150", "LBTMSHI", "LAB RESULT/UPPER LIMIT OF NORMAL", "0.9", "DERIVED", "CLINICAL STUDY SPONSOR"], ["CDISCPILOT01", "LB", "01-701-1015", "LBSEQ", "152", "LBTMSHI", "LAB RESULT/UPPER LIMIT OF NORMAL", "0.7", "DERIVED", "CLINICAL STUDY SPONSOR"], ["CDISCPILOT01", "LB", "01-701-1015", "LBSEQ", "153", "LBTMSHI", "LAB RESULT/UPPER LIMIT OF NORMAL", "0.8", "DERIVED", "CLINICAL STUDY SPONSOR"], ["CDISCPILOT01", "LB", "01-701-1015", "LBSEQ", "154", "LBTMSHI", "LAB RESULT/UPPER LIMIT OF NORMAL", "0.9", "DERIVED", "CLINICAL STUDY SPONSOR"], ["CDISCPILOT01", "LB", "01-701-1015", "LBSEQ", "155", "LBTMSHI", "LAB RESULT/UPPER LIMIT OF NORMAL", "0.8", "DERIVED", "CLINICAL STUDY SPONSOR"], ["CDISCPILOT01", "LB", "01-701-1015", "LBSEQ", "156", "LBTMSHI", "LAB RESULT/UPPER LIMIT OF NORMAL", "0.3", "DERIVED", "CLINICAL STUDY SPONSOR"], ["CDISCPILOT01", "LB", "01-701-1015", "LBSEQ", "159", "LBTMSHI", "LAB RESULT/UPPER LIMIT OF NORMAL", "0.7", "DERIVED", "CLINICAL STUDY SPONSOR"], ["CDISCPILOT01", "LB", "01-701-1015", "LBSEQ", "161", "LBTMSHI", "LAB RESULT/UPPER LIMIT OF NORMAL", "0.9", "DERIVED", "CLINICAL STUDY SPONSOR"], ["CDISCPILOT01", "LB", "01-701-1015", "LBSEQ", "163", "LBTMSHI", "LAB RESULT/UPPER LIMIT OF NORMAL", "0.5", "DERIVED", "CLINICAL STUDY SPONSOR"], ["CDISCPILOT01", "LB", "01-701-1015", "LBSEQ", "168", "LBTMSHI", "LAB RESULT/UPPER LIMIT OF NORMAL", "0.2", "DERIVED", "CLINICAL STUDY SPONSOR"], ["CDISCPILOT01", "LB", "01-701-1015", "LBSEQ", "177", "LBTMSHI", "LAB RESULT/UPPER LIMIT OF NORMAL", "0.2", "DERIVED", "CLINICAL STUDY SPONSOR"], ["CDISCPILOT01", "LB", "01-701-1015", "LBSEQ", "180", "LBTMSHI", "LAB RESULT/UPPER LIMIT OF NORMAL", "0.9", "DERIVED", "CLINICAL STUDY SPONSOR"], ["CDISCPILOT01", "LB", "01-701-1015", "LBSEQ", "181", "LBTMSHI", "LAB RESULT/UPPER LIMIT OF NORMAL", "0.8", "DERIVED", "CLINICAL STUDY SPONSOR"], ["CDISCPILOT01", "LB", "01-701-1015", "LBSEQ", "184", "LBTMSHI", "LAB RESULT/UPPER LIMIT OF NORMAL", "0.7", "DERIVED", "CLINICAL STUDY SPONSOR"], ["CDISCPILOT01", "LB", "01-701-1015", "LBSEQ", "185", "LBTMSHI", "LAB RESULT/UPPER LIMIT OF NORMAL", "0.8", "DERIVED", "CLINICAL STUDY SPONSOR"], ["CDISCPILOT01", "LB", "01-701-1015", "LBSEQ", "186", "LBTMSHI", "LAB RESULT/UPPER LIMIT OF NORMAL", "0.9", "DERIVED", "CLINICAL STUDY SPONSOR"], ["CDISCPILOT01", "LB", "01-701-1015", "LBSEQ", "187", "LBTMSHI", "LAB RESULT/UPPER LIMIT OF NORMAL", "0.8", "DERIVED", "CLINICAL STUDY SPONSOR"], ["CDISCPILOT01", "LB", "01-701-1015", "LBSEQ", "188", "LBTMSHI", "LAB RESULT/UPPER LIMIT OF NORMAL", "0.3", "DERIVED", "CLINICAL STUDY SPONSOR"], ["CDISCPILOT01", "LB", "01-701-1015", "LBSEQ", "192", "LBTMSHI", "LAB RESULT/UPPER LIMIT OF NORMAL", "0.7", "DERIVED", "CLINICAL STUDY SPONSOR"], ["CDISCPILOT01", "LB", "01-701-1015", "LBSEQ", "194", "LBTMSHI", "LAB RESULT/UPPER LIMIT OF NORMAL", "0.9", "DERIVED", "CLINICAL STUDY SPONSOR"], ["CDISCPILOT01", "LB", "01-701-1015", "LBSEQ", "198", "LBTMSHI", "LAB RESULT/UPPER LIMIT OF NORMAL", "0.5", "DERIVED", "CLINICAL STUDY SPONSOR"], ["CDISCPILOT01", "LB", "01-701-1015", "LBSEQ", "203", "LBTMSHI", "LAB RESULT/UPPER LIMIT OF NORMAL", "0.2", "DERIVED", "CLINICAL STUDY SPONSOR"], ["CDISCPILOT01", "LB", "01-701-1015", "LBSEQ", "211", "LBTMSHI", "LAB RESULT/UPPER LIMIT OF NORMAL", "0.2", "DERIVED", "CLINICAL STUDY SPONSOR"], ["CDISCPILOT01", "LB", "01-701-1015", "LBSEQ", "214", "LBTMSHI", "LAB RESULT/UPPER LIMIT OF NORMAL", "0.9", "DERIVED", "CLINICAL STUDY SPONSOR"], ["CDISCPILOT01", "LB", "01-701-1015", "LBSEQ", "215", "LBTMSHI", "LAB RESULT/UPPER LIMIT OF NORMAL", "0.9", "DERIVED", "CLINICAL STUDY SPONSOR"], ["CDISCPILOT01", "LB", "01-701-1015", "LBSEQ", "217", "LBTMSHI", "LAB RESULT/UPPER LIMIT OF NORMAL", "0.7", "DERIVED", "CLINICAL STUDY SPONSOR"], ["CDISCPILOT01", "LB", "01-701-1015", "LBSEQ", "218", "LBTMSHI", "LAB RESULT/UPPER LIMIT OF NORMAL", "0.8", "DERIVED", "CLINICAL STUDY SPONSOR"], ["CDISCPILOT01", "LB", "01-701-1015", "LBSEQ", "219", "LBTMSHI", "LAB RESULT/UPPER LIMIT OF NORMAL", "0.9", "DERIVED", "CLINICAL STUDY SPONSOR"], ["CDISCPILOT01", "LB", "01-701-1015", "LBSEQ", "220", "LBTMSHI", "LAB RESULT/UPPER LIMIT OF NORMAL", "0.8", "DERIVED", "CLINICAL STUDY SPONSOR"], ["CDISCPILOT01", "LB", "01-701-1015", "LBSEQ", "221", "LBTMSHI", "LAB RESULT/UPPER LIMIT OF NORMAL", "0.4", "DERIVED", "CLINICAL STUDY SPONSOR"], ["CDISCPILOT01", "LB", "01-701-1015", "LBSEQ", "224", "LBTMSHI", "LAB RESULT/UPPER LIMIT OF NORMAL", "0.7", "DERIVED", "CLINICAL STUDY SPONSOR"], ["CDISCPILOT01", "LB", "01-701-1015", "LBSEQ", "226", "LBTMSHI", "LAB RESULT/UPPER LIMIT OF NORMAL", "0.9", "DERIVED", "CLINICAL STUDY SPONSOR"], ["CDISCPILOT01", "LB", "01-701-1015", "LBSEQ", "228", "LBTMSHI", "LAB RESULT/UPPER LIMIT OF NORMAL", "0.5", "DERIVED", "CLINICAL STUDY SPONSOR"], ["CDISCPILOT01", "LB", "01-701-1015", "LBSEQ", "233", "LBTMSHI", "LAB RESULT/UPPER LIMIT OF NORMAL", "0.2", "DERIVED", "CLINICAL STUDY SPONSOR"], ["CDISCPILOT01", "LB", "01-701-1015", "LBSEQ", "241", "LBTMSHI", "LAB RESULT/UPPER LIMIT OF NORMAL", "0.1", "DERIVED", "CLINICAL STUDY SPONSOR"], ["CDISCPILOT01", "LB", "01-701-1015", "LBSEQ", "244", "LBTMSHI", "LAB RESULT/UPPER LIMIT OF NORMAL", "0.8", "DERIVED", "CLINICAL STUDY SPONSOR"], ["CDISCPILOT01", "LB", "01-701-1015", "LBSEQ", "245", "LBTMSHI", "LAB RESULT/UPPER LIMIT OF NORMAL", "0.9", "DERIVED", "CLINICAL STUDY SPONSOR"], ["CDISCPILOT01", "LB", "01-701-1015", "LBSEQ", "247", "LBTMSHI", "LAB RESULT/UPPER LIMIT OF NORMAL", "0.6", "DERIVED", "CLINICAL STUDY SPONSOR"], ["CDISCPILOT01", "LB", "01-701-1015", "LBSEQ", "248", "LBTMSHI", "LAB RESULT/UPPER LIMIT OF NORMAL", "0.8", "DERIVED", "CLINICAL STUDY SPONSOR"], ["CDISCPILOT01", "LB", "01-701-1015", "LBSEQ", "249", "LBTMSHI", "LAB RESULT/UPPER LIMIT OF NORMAL", "0.9", "DERIVED", "CLINICAL STUDY SPONSOR"], ["CDISCPILOT01", "LB", "01-701-1015", "LBSEQ", "250", "LBTMSHI", "LAB RESULT/UPPER LIMIT OF NORMAL", "0.8", "DERIVED", "CLINICAL STUDY SPONSOR"], ["CDISCPILOT01", "LB", "01-701-1015", "LBSEQ", "251", "LBTMSHI", "LAB RESULT/UPPER LIMIT OF NORMAL", "0.3", "DERIVED", "CLINICAL STUDY SPONSOR"], ["CDISCPILOT01", "LB", "01-701-1015", "LBSEQ", "254", "LBTMSHI", "LAB RESULT/UPPER LIMIT OF NORMAL", "0.6", "DERIVED", "CLINICAL STUDY SPONSOR"], ["CDISCPILOT01", "LB", "01-701-1015", "LBSEQ", "256", "LBTMSHI", "LAB RESULT/UPPER LIMIT OF NORMAL", "0.9", "DERIVED", "CLINICAL STUDY SPONSOR"], ["CDISCPILOT01", "LB", "01-701-1015", "LBSEQ", "258", "LBTMSHI", "LAB RESULT/UPPER LIMIT OF NORMAL", "0.4", "DERIVED", "CLINICAL STUDY SPONSOR"], ["CDISCPILOT01", "LB", "01-701-1015", "LBSEQ", "263", "ENDPOINT", "ENDPOINT VALUE FLAG", "Y", "DERIVED", "CLINICAL STUDY SPONSOR"], ["CDISCPILOT01", "LB", "01-701-1015", "LBSEQ", "263", "LBTMSHI", "LAB RESULT/UPPER LIMIT OF NORMAL", "0.2", "DERIVED", "CLINICAL STUDY SPONSOR"], ["CDISCPILOT01", "LB", "01-701-1015", "LBSEQ", "272", "ENDPOINT", "ENDPOINT VALUE FLAG", "Y", "DERIVED", "CLINICAL STUDY SPONSOR"], ["CDISCPILOT01", "LB", "01-701-1015", "LBSEQ", "272", "LBTMSHI", "LAB RESULT/UPPER LIMIT OF NORMAL", "0.2", "DERIVED", "CLINICAL STUDY SPONSOR"], ["CDISCPILOT01", "LB", "01-701-1015", "LBSEQ", "275", "ENDPOINT", "ENDPOINT VALUE FLAG", "Y", "DERIVED", "CLINICAL STUDY SPONSOR"], ["CDISCPILOT01", "LB", "01-701-1015", "LBSEQ", "275", "LBTMSHI", "LAB RESULT/UPPER LIMIT OF NORMAL", "0.9", "DERIVED", "CLINICAL STUDY SPONSOR"], ["CDISCPILOT01", "LB", "01-701-1015", "LBSEQ", "276", "ENDPOINT", "ENDPOINT VALUE FLAG", "Y", "DERIVED", "CLINICAL STUDY SPONSOR"], ["CDISCPILOT01", "LB", "01-701-1015", "LBSEQ", "276", "LBTMSHI", "LAB RESULT/UPPER LIMIT OF NORMAL", "0.9", "DERIVED", "CLINICAL STUDY SPONSOR"], ["CDISCPILOT01", "LB", "01-701-1015", "LBSEQ", "279", "ENDPOINT", "ENDPOINT VALUE FLAG", "Y", "DERIVED", "CLINICAL STUDY SPONSOR"], ["CDISCPILOT01", "LB", "01-701-1015", "LBSEQ", "279", "LBTMSHI", "LAB RESULT/UPPER LIMIT OF NORMAL", "0.9", "DERIVED", "CLINICAL STUDY SPONSOR"], ["CDISCPILOT01", "LB", "01-701-1015", "LBSEQ", "280", "ENDPOINT", "ENDPOINT VALUE FLAG", "Y", "DERIVED", "CLINICAL STUDY SPONSOR"], ["CDISCPILOT01", "LB", "01-701-1015", "LBSEQ", "280", "LBTMSHI", "LAB RESULT/UPPER LIMIT OF NORMAL", "0.8", "DERIVED", "CLINICAL STUDY SPONSOR"], ["CDISCPILOT01", "LB", "01-701-1015", "LBSEQ", "281", "ENDPOINT", "ENDPOINT VALUE FLAG", "Y", "DERIVED", "CLINICAL STUDY SPONSOR"], ["CDISCPILOT01", "LB", "01-701-1015", "LBSEQ", "281", "LBTMSHI", "LAB RESULT/UPPER LIMIT OF NORMAL", "0.8", "DERIVED", "CLINICAL STUDY SPONSOR"], ["CDISCPILOT01", "LB", "01-701-1015", "LBSEQ", "282", "ENDPOINT", "ENDPOINT VALUE FLAG", "Y", "DERIVED", "CLINICAL STUDY SPONSOR"], ["CDISCPILOT01", "LB", "01-701-1015", "LBSEQ", "282", "LBTMSHI", "LAB RESULT/UPPER LIMIT OF NORMAL", "0.8", "DERIVED", "CLINICAL STUDY SPONSOR"], ["CDISCPILOT01", "LB", "01-701-1015", "LBSEQ", "283", "ENDPOINT", "ENDPOINT VALUE FLAG", "Y", "DERIVED", "CLINICAL STUDY SPONSOR"], ["CDISCPILOT01", "LB", "01-701-1015", "LBSEQ", "283", "LBTMSHI", "LAB RESULT/UPPER LIMIT OF NORMAL", "0.3", "DERIVED", "CLINICAL STUDY SPONSOR"], ["CDISCPILOT01", "LB", "01-701-1015", "LBSEQ", "287", "ENDPOINT", "ENDPOINT VALUE FLAG", "Y", "DERIVED", "CLINICAL STUDY SPONSOR"], ["CDISCPILOT01", "LB", "01-701-1015", "LBSEQ", "287", "LBTMSHI", "LAB RESULT/UPPER LIMIT OF NORMAL", "0.7", "DERIVED", "CLINICAL STUDY SPONSOR"], ["CDISCPILOT01", "LB", "01-701-1015", "LBSEQ", "289", "ENDPOINT", "ENDPOINT VALUE FLAG", "Y", "DERIVED", "CLINICAL STUDY SPONSOR"], ["CDISCPILOT01", "LB", "01-701-1015", "LBSEQ", "289", "LBTMSHI", "LAB RESULT/UPPER LIMIT OF NORMAL", "1.0", "DERIVED", "CLINICAL STUDY SPONSOR"], ["CDISCPILOT01", "LB", "01-701-1015", "LBSEQ", "293", "ENDPOINT", "ENDPOINT VALUE FLAG", "Y", "DERIVED", "CLINICAL STUDY SPONSOR"], ["CDISCPILOT01", "LB", "01-701-1015", "LBSEQ", "293", "LBTMSHI", "LAB RESULT/UPPER LIMIT OF NORMAL", "0.7", "DERIVED", "CLINICAL STUDY SPONSOR"], ["CDISCPILOT01", "LB", "01-701-1015", "LBSEQ", "298", "LBTMSHI", "LAB RESULT/UPPER LIMIT OF NORMAL", "0.2", "DERIVED", "CLINICAL STUDY SPONSOR"], ["CDISCPILOT01", "LB", "01-701-1015", "LBSEQ", "306", "LBTMSHI", "LAB RESULT/UPPER LIMIT OF NORMAL", "0.1", "DERIVED", "CLINICAL STUDY SPONSOR"], ["CDISCPILOT01", "LB", "01-701-1015", "LBSEQ", "309", "LBTMSHI", "LAB RESULT/UPPER LIMIT OF NORMAL", "0.9", "DERIVED", "CLINICAL STUDY SPONSOR"], ["CDISCPILOT01", "LB", "01-701-1015", "LBSEQ", "310", "LBTMSHI", "LAB RESULT/UPPER LIMIT OF NORMAL", "0.9", "DERIVED", "CLINICAL STUDY SPONSOR"], ["CDISCPILOT01", "LB", "01-701-1015", "LBSEQ", "312", "LBTMSHI", "LAB RESULT/UPPER LIMIT OF NORMAL", "0.7", "DERIVED", "CLINICAL STUDY SPONSOR"], ["CDISCPILOT01", "LB", "01-701-1015", "LBSEQ", "313", "LBTMSHI", "LAB RESULT/UPPER LIMIT OF NORMAL", "0.8", "DERIVED", "CLINICAL STUDY SPONSOR"], ["CDISCPILOT01", "LB", "01-701-1015", "LBSEQ", "314", "LBTMSHI", "LAB RESULT/UPPER LIMIT OF NORMAL", "0.8", "DERIVED", "CLINICAL STUDY SPONSOR"], ["CDISCPILOT01", "LB", "01-701-1015", "LBSEQ", "315", "LBTMSHI", "LAB RESULT/UPPER LIMIT OF NORMAL", "0.8", "DERIVED", "CLINICAL STUDY SPONSOR"], ["CDISCPILOT01", "LB", "01-701-1015", "LBSEQ", "316", "LBTMSHI", "LAB RESULT/UPPER LIMIT OF NORMAL", "0.3", "DERIVED", "CLINICAL STUDY SPONSOR"], ["CDISCPILOT01", "LB", "01-701-1015", "LBSEQ", "319", "LBTMSHI", "LAB RESULT/UPPER LIMIT OF NORMAL", "0.8", "DERIVED", "CLINICAL STUDY SPONSOR"], ["CDISCPILOT01", "LB", "01-701-1015", "LBSEQ", "321", "LBTMSHI", "LAB RESULT/UPPER LIMIT OF NORMAL", "1.0", "DERIVED", "CLINICAL STUDY SPONSOR"], ["CDISCPILOT01", "LB", "01-701-1015", "LBSEQ", "323", "LBTMSHI", "LAB RESULT/UPPER LIMIT OF NORMAL", "0.5", "DERIVED", "CLINICAL STUDY SPONSOR"], ["CDISCPILOT01", "LB", "01-701-1023", "LBSEQ", "5", "LBTMSHI", "LAB RESULT/UPPER LIMIT OF NORMAL", "0.3", "DERIVED", "CLINICAL STUDY SPONSOR"], ["CDISCPILOT01", "LB", "01-701-1023", "LBSEQ", "14", "LBTMSHI", "LAB RESULT/UPPER LIMIT OF NORMAL", "0.2", "DERIVED", "CLINICAL STUDY SPONSOR"], ["CDISCPILOT01", "LB", "01-701-1023", "LBSEQ", "17", "LBTMSHI", "LAB RESULT/UPPER LIMIT OF NORMAL", "1.0", "DERIVED", "CLINICAL STUDY SPONSOR"], ["CDISCPILOT01", "LB", "01-701-1023", "LBSEQ", "18", "LBTMSHI", "LAB RESULT/UPPER LIMIT OF NORMAL", "1.0", "DERIVED", "CLINICAL STUDY SPONSOR"], ["CDISCPILOT01", "LB", "01-701-1023", "LBSEQ", "21", "LBTMSHI", "LAB RESULT/UPPER LIMIT OF NORMAL", "0.6", "DERIVED", "CLINICAL STUDY SPONSOR"], ["CDISCPILOT01", "LB", "01-701-1023", "LBSEQ", "22", "LBTMSHI", "LAB RESULT/UPPER LIMIT OF NORMAL", "0.9", "DERIVED", "CLINICAL STUDY SPONSOR"], ["CDISCPILOT01", "LB", "01-701-1023", "LBSEQ", "23", "LBTMSHI", "LAB RESULT/UPPER LIMIT OF NORMAL", "0.9", "DERIVED", "CLINICAL STUDY SPONSOR"], ["CDISCPILOT01", "LB", "01-701-1023", "LBSEQ", "24", "LBTMSHI", "LAB RESULT/UPPER LIMIT OF NORMAL", "0.9", "DERIVED", "CLINICAL STUDY SPONSOR"], ["CDISCPILOT01", "LB", "01-701-1023", "LBSEQ", "25", "LBTMSHI", "LAB RESULT/UPPER LIMIT OF NORMAL", "0.7", "DERIVED", "CLINICAL STUDY SPONSOR"], ["CDISCPILOT01", "LB", "01-701-1023", "LBSEQ", "29", "LBTMSHI", "LAB RESULT/UPPER LIMIT OF NORMAL", "0.6", "DERIVED", "CLINICAL STUDY SPONSOR"], ["CDISCPILOT01", "LB", "01-701-1023", "LBSEQ", "31", "LBTMSHI", "LAB RESULT/UPPER LIMIT OF NORMAL", "0.9", "DERIVED", "CLINICAL STUDY SPONSOR"], ["CDISCPILOT01", "LB", "01-701-1023", "LBSEQ", "37", "LBTMSHI", "LAB RESULT/UPPER LIMIT OF NORMAL", "0.8", "DERIVED", "CLINICAL STUDY SPONSOR"], ["CDISCPILOT01", "LB", "01-701-1023", "LBSEQ", "42", "LBTMSHI", "LAB RESULT/UPPER LIMIT OF NORMAL", "0.2", "DERIVED", "CLINICAL STUDY SPONSOR"], ["CDISCPILOT01", "LB", "01-701-1023", "LBSEQ", "51", "LBTMSHI", "LAB RESULT/UPPER LIMIT OF NORMAL", "0.1", "DERIVED", "CLINICAL STUDY SPONSOR"], ["CDISCPILOT01", "LB", "01-701-1023", "LBSEQ", "54", "LBTMSHI", "LAB RESULT/UPPER LIMIT OF NORMAL", "0.9", "DERIVED", "CLINICAL STUDY SPONSOR"], ["CDISCPILOT01", "LB", "01-701-1023", "LBSEQ", "55", "LBTMSHI", "LAB RESULT/UPPER LIMIT OF NORMAL", "0.9", "DERIVED", "CLINICAL STUDY SPONSOR"], ["CDISCPILOT01", "LB", "01-701-1023", "LBSEQ", "58", "LBTMSHI", "LAB RESULT/UPPER LIMIT OF NORMAL", "0.8", "DERIVED", "CLINICAL STUDY SPONSOR"], ["CDISCPILOT01", "LB", "01-701-1023", "LBSEQ", "59", "LBTMSHI", "LAB RESULT/UPPER LIMIT OF NORMAL", "0.9", "DERIVED", "CLINICAL STUDY SPONSOR"], ["CDISCPILOT01", "LB", "01-701-1023", "LBSEQ", "60", "LBTMSHI", "LAB RESULT/UPPER LIMIT OF NORMAL", "0.9", "DERIVED", "CLINICAL STUDY SPONSOR"], ["CDISCPILOT01", "LB", "01-701-1023", "LBSEQ", "61", "LBTMSHI", "LAB RESULT/UPPER LIMIT OF NORMAL", "1.0", "DERIVED", "CLINICAL STUDY SPONSOR"], ["CDISCPILOT01", "LB", "01-701-1023", "LBSEQ", "62", "LBTMSHI", "LAB RESULT/UPPER LIMIT OF NORMAL", "0.7", "DERIVED", "CLINICAL STUDY SPONSOR"], ["CDISCPILOT01", "LB", "01-701-1023", "LBSEQ", "66", "LBTMSHI", "LAB RESULT/UPPER LIMIT OF NORMAL", "0.6", "DERIVED", "CLINICAL STUDY SPONSOR"], ["CDISCPILOT01", "LB", "01-701-1023", "LBSEQ", "68", "LBTMSHI", "LAB RESULT/UPPER LIMIT OF NORMAL", "0.8", "DERIVED", "CLINICAL STUDY SPONSOR"], ["CDISCPILOT01", "LB", "01-701-1023", "LBSEQ", "72", "LBTMSHI", "LAB RESULT/UPPER LIMIT OF NORMAL", "0.8", "DERIVED", "CLINICAL STUDY SPONSOR"], ["CDISCPILOT01", "LB", "01-701-1023", "LBSEQ", "77", "ENDPOINT", "ENDPOINT VALUE FLAG", "Y", "DERIVED", "CLINICAL STUDY SPONSOR"], ["CDISCPILOT01", "LB", "01-701-1023", "LBSEQ", "77", "LBTMSHI", "LAB RESULT/UPPER LIMIT OF NORMAL", "0.2", "DERIVED", "CLINICAL STUDY SPONSOR"], ["CDISCPILOT01", "LB", "01-701-1023", "LBSEQ", "86", "ENDPOINT", "ENDPOINT VALUE FLAG", "Y", "DERIVED", "CLINICAL STUDY SPONSOR"], ["CDISCPILOT01", "LB", "01-701-1023", "LBSEQ", "86", "LBTMSHI", "LAB RESULT/UPPER LIMIT OF NORMAL", "0.1", "DERIVED", "CLINICAL STUDY SPONSOR"], ["CDISCPILOT01", "LB", "01-701-1023", "LBSEQ", "89", "ENDPOINT", "ENDPOINT VALUE FLAG", "Y", "DERIVED", "CLINICAL STUDY SPONSOR"], ["CDISCPILOT01", "LB", "01-701-1023", "LBSEQ", "89", "LBTMSHI", "LAB RESULT/UPPER LIMIT OF NORMAL", "0.9", "DERIVED", "CLINICAL STUDY SPONSOR"], ["CDISCPILOT01", "LB", "01-701-1023", "LBSEQ", "90", "ENDPOINT", "ENDPOINT VALUE FLAG", "Y", "DERIVED", "CLINICAL STUDY SPONSOR"], ["CDISCPILOT01", "LB", "01-701-1023", "LBSEQ", "90", "LBTMSHI", "LAB RESULT/UPPER LIMIT OF NORMAL", "0.9", "DERIVED", "CLINICAL STUDY SPONSOR"], ["CDISCPILOT01", "LB", "01-701-1023", "LBSEQ", "93", "ENDPOINT", "ENDPOINT VALUE FLAG", "Y", "DERIVED", "CLINICAL STUDY SPONSOR"], ["CDISCPILOT01", "LB", "01-701-1023", "LBSEQ", "93", "LBTMSHI", "LAB RESULT/UPPER LIMIT OF NORMAL", "0.5", "DERIVED", "CLINICAL STUDY SPONSOR"], ["CDISCPILOT01", "LB", "01-701-1023", "LBSEQ", "94", "ENDPOINT", "ENDPOINT VALUE FLAG", "Y", "DERIVED", "CLINICAL STUDY SPONSOR"], ["CDISCPILOT01", "LB", "01-701-1023", "LBSEQ", "94", "LBTMSHI", "LAB RESULT/UPPER LIMIT OF NORMAL", "0.9", "DERIVED", "CLINICAL STUDY SPONSOR"], ["CDISCPILOT01", "LB", "01-701-1023", "LBSEQ", "95", "ENDPOINT", "ENDPOINT VALUE FLAG", "Y", "DERIVED", "CLINICAL STUDY SPONSOR"], ["CDISCPILOT01", "LB", "01-701-1023", "LBSEQ", "95", "LBTMSHI", "LAB RESULT/UPPER LIMIT OF NORMAL", "0.8", "DERIVED", "CLINICAL STUDY SPONSOR"], ["CDISCPILOT01", "LB", "01-701-1023", "LBSEQ", "96", "ENDPOINT", "ENDPOINT VALUE FLAG", "Y", "DERIVED", "CLINICAL STUDY SPONSOR"], ["CDISCPILOT01", "LB", "01-701-1023", "LBSEQ", "96", "LBTMSHI", "LAB RESULT/UPPER LIMIT OF NORMAL", "0.9", "DERIVED", "CLINICAL STUDY SPONSOR"], ["CDISCPILOT01", "LB", "01-701-1023", "LBSEQ", "97", "ENDPOINT", "ENDPOINT VALUE FLAG", "Y", "DERIVED", "CLINICAL STUDY SPONSOR"], ["CDISCPILOT01", "LB", "01-701-1023", "LBSEQ", "97", "LBTMSHI", "LAB RESULT/UPPER LIMIT OF NORMAL", "0.6", "DERIVED", "CLINICAL STUDY SPONSOR"], ["CDISCPILOT01", "LB", "01-701-1023", "LBSEQ", "101", "ENDPOINT", "ENDPOINT VALUE FLAG", "Y", "DERIVED", "CLINICAL STUDY SPONSOR"], ["CDISCPILOT01", "LB", "01-701-1023", "LBSEQ", "101", "LBTMSHI", "LAB RESULT/UPPER LIMIT OF NORMAL", "0.5", "DERIVED", "CLINICAL STUDY SPONSOR"], ["CDISCPILOT01", "LB", "01-701-1023", "LBSEQ", "103", "ENDPOINT", "ENDPOINT VALUE FLAG", "Y", "DERIVED", "CLINICAL STUDY SPONSOR"], ["CDISCPILOT01", "LB", "01-701-1023", "LBSEQ", "103", "LBTMSHI", "LAB RESULT/UPPER LIMIT OF NORMAL", "0.9", "DERIVED", "CLINICAL STUDY SPONSOR"], ["CDISCPILOT01", "LB", "01-701-1023", "LBSEQ", "107", "ENDPOINT", "ENDPOINT VALUE FLAG", "Y", "DERIVED", "CLINICAL STUDY SPONSOR"], ["CDISCPILOT01", "LB", "01-701-1023", "LBSEQ", "107", "LBTMSHI", "LAB RESULT/UPPER LIMIT OF NORMAL", "0.7", "DERIVED", "CLINICAL STUDY SPONSOR"], ["CDISCPILOT01", "LB", "01-701-1028", "LBSEQ", "5", "LBTMSHI", "LAB RESULT/UPPER LIMIT OF NORMAL", "0.3", "DERIVED", "CLINICAL STUDY SPONSOR"], ["CDISCPILOT01", "LB", "01-701-1028", "LBSEQ", "14", "LBTMSHI", "LAB RESULT/UPPER LIMIT OF NORMAL", "0.2", "DERIVED", "CLINICAL STUDY SPONSOR"], ["CDISCPILOT01", "LB", "01-701-1028", "LBSEQ", "17", "LBTMSHI", "LAB RESULT/UPPER LIMIT OF NORMAL", "0.9", "DERIVED", "CLINICAL STUDY SPONSOR"], ["CDISCPILOT01", "LB", "01-701-1028", "LBSEQ", "18", "LBTMSHI", "LAB RESULT/UPPER LIMIT OF NORMAL", "1.0", "DERIVED", "CLINICAL STUDY SPONSOR"], ["CDISCPILOT01", "LB", "01-701-1028", "LBSEQ", "21", "LBTMSHI", "LAB RESULT/UPPER LIMIT OF NORMAL", "0.7", "DERIVED", "CLINICAL STUDY SPONSOR"], ["CDISCPILOT01", "LB", "01-701-1028", "LBSEQ", "22", "LBTMSHI", "LAB RESULT/UPPER LIMIT OF NORMAL", "1.1", "DERIVED", "CLINICAL STUDY SPONSOR"], ["CDISCPILOT01", "LB", "01-701-1028", "LBSEQ", "23", "LBTMSHI", "LAB RESULT/UPPER LIMIT OF NORMAL", "0.9", "DERIVED", "CLINICAL STUDY SPONSOR"], ["CDISCPILOT01", "LB", "01-701-1028", "LBSEQ", "24", "LBTMSHI", "LAB RESULT/UPPER LIMIT OF NORMAL", "1.0", "DERIVED", "CLINICAL STUDY SPONSOR"], ["CDISCPILOT01", "LB", "01-701-1028", "LBSEQ", "25", "LBTMSHI", "LAB RESULT/UPPER LIMIT OF NORMAL", "0.5", "DERIVED", "CLINICAL STUDY SPONSOR"], ["CDISCPILOT01", "LB", "01-701-1028", "LBSEQ", "29", "LBTMSHI", "LAB RESULT/UPPER LIMIT OF NORMAL", "0.4", "DERIVED", "CLINICAL STUDY SPONSOR"], ["CDISCPILOT01", "LB", "01-701-1028", "LBSEQ", "31", "LBTMSHI", "LAB RESULT/UPPER LIMIT OF NORMAL", "0.8", "DERIVED", "CLINICAL STUDY SPONSOR"], ["CDISCPILOT01", "LB", "01-701-1028", "LBSEQ", "37", "LBTMSHI", "LAB RESULT/UPPER LIMIT OF NORMAL", "0.5", "DERIVED", "CLINICAL STUDY SPONSOR"], ["CDISCPILOT01", "LB", "01-701-1028", "LBSEQ", "42", "LBTMSHI", "LAB RESULT/UPPER LIMIT OF NORMAL", "0.3", "DERIVED", "CLINICAL STUDY SPONSOR"], ["CDISCPILOT01", "LB", "01-701-1028", "LBSEQ", "51", "LBTMSHI", "LAB RESULT/UPPER LIMIT OF NORMAL", "0.5", "DERIVED", "CLINICAL STUDY SPONSOR"], ["CDISCPILOT01", "LB", "01-701-1028", "LBSEQ", "54", "LBTMSHI", "LAB RESULT/UPPER LIMIT OF NORMAL", "0.9", "DERIVED", "CLINICAL STUDY SPONSOR"], ["CDISCPILOT01", "LB", "01-701-1028", "LBSEQ", "55", "LBTMSHI", "LAB RESULT/UPPER LIMIT OF NORMAL", "0.9", "DERIVED", "CLINICAL STUDY SPONSOR"], ["CDISCPILOT01", "LB", "01-701-1028", "LBSEQ", "58", "LBTMSHI", "LAB RESULT/UPPER LIMIT OF NORMAL", "0.6", "DERIVED", "CLINICAL STUDY SPONSOR"], ["CDISCPILOT01", "LB", "01-701-1028", "LBSEQ", "59", "LBTMSHI", "LAB RESULT/UPPER LIMIT OF NORMAL", "1.0", "DERIVED", "CLINICAL STUDY SPONSOR"], ["CDISCPILOT01", "LB", "01-701-1028", "LBSEQ", "60", "LBTMSHI", "LAB RESULT/UPPER LIMIT OF NORMAL", "0.9", "DERIVED", "CLINICAL STUDY SPONSOR"], ["CDISCPILOT01", "LB", "01-701-1028", "LBSEQ", "61", "LBTMSHI", "LAB RESULT/UPPER LIMIT OF NORMAL", "1.0", "DERIVED", "CLINICAL STUDY SPONSOR"], ["CDISCPILOT01", "LB", "01-701-1028", "LBSEQ", "62", "LBTMSHI", "LAB RESULT/UPPER LIMIT OF NORMAL", "0.5", "DERIVED", "CLINICAL STUDY SPONSOR"], ["CDISCPILOT01", "LB", "01-701-1028", "LBSEQ", "66", "LBTMSHI", "LAB RESULT/UPPER LIMIT OF NORMAL", "0.4", "DERIVED", "CLINICAL STUDY SPONSOR"], ["CDISCPILOT01", "LB", "01-701-1028", "LBSEQ", "68", "LBTMSHI", "LAB RESULT/UPPER LIMIT OF NORMAL", "0.8", "DERIVED", "CLINICAL STUDY SPONSOR"], ["CDISCPILOT01", "LB", "01-701-1028", "LBSEQ", "72", "LBTMSHI", "LAB RESULT/UPPER LIMIT OF NORMAL", "0.5", "DERIVED", "CLINICAL STUDY SPONSOR"], ["CDISCPILOT01", "LB", "01-701-1028", "LBSEQ", "77", "LBTMSHI", "LAB RESULT/UPPER LIMIT OF NORMAL", "0.2", "DERIVED", "CLINICAL STUDY SPONSOR"], ["CDISCPILOT01", "LB", "01-701-1028", "LBSEQ", "85", "LBTMSHI", "LAB RESULT/UPPER LIMIT OF NORMAL", "0.4", "DERIVED", "CLINICAL STUDY SPONSOR"], ["CDISCPILOT01", "LB", "01-701-1028", "LBSEQ", "88", "LBTMSHI", "LAB RESULT/UPPER LIMIT OF NORMAL", "0.9", "DERIVED", "CLINICAL STUDY SPONSOR"], ["CDISCPILOT01", "LB", "01-701-1028", "LBSEQ", "89", "LBTMSHI", "LAB RESULT/UPPER LIMIT OF NORMAL", "0.9", "DERIVED", "CLINICAL STUDY SPONSOR"], ["CDISCPILOT01", "LB", "01-701-1028", "LBSEQ", "91", "LBTMSHI", "LAB RESULT/UPPER LIMIT OF NORMAL", "0.6", "DERIVED", "CLINICAL STUDY SPONSOR"], ["CDISCPILOT01", "LB", "01-701-1028", "LBSEQ", "92", "LBTMSHI", "LAB RESULT/UPPER LIMIT OF NORMAL", "1.0", "DERIVED", "CLINICAL STUDY SPONSOR"], ["CDISCPILOT01", "LB", "01-701-1028", "LBSEQ", "93", "LBTMSHI", "LAB RESULT/UPPER LIMIT OF NORMAL", "0.9", "DERIVED", "CLINICAL STUDY SPONSOR"], ["CDISCPILOT01", "LB", "01-701-1028", "LBSEQ", "94", "LBTMSHI", "LAB RESULT/UPPER LIMIT OF NORMAL", "1.0", "DERIVED", "CLINICAL STUDY SPONSOR"], ["CDISCPILOT01", "LB", "01-701-1028", "LBSEQ", "95", "LBTMSHI", "LAB RESULT/UPPER LIMIT OF NORMAL", "0.7", "DERIVED", "CLINICAL STUDY SPONSOR"], ["CDISCPILOT01", "LB", "01-701-1028", "LBSEQ", "98", "LBTMSHI", "LAB RESULT/UPPER LIMIT OF NORMAL", "0.4", "DERIVED", "CLINICAL STUDY SPONSOR"], ["CDISCPILOT01", "LB", "01-701-1028", "LBSEQ", "100", "LBTMSHI", "LAB RESULT/UPPER LIMIT OF NORMAL", "0.8", "DERIVED", "CLINICAL STUDY SPONSOR"], ["CDISCPILOT01", "LB", "01-701-1028", "LBSEQ", "102", "LBTMSHI", "LAB RESULT/UPPER LIMIT OF NORMAL", "0.5", "DERIVED", "CLINICAL STUDY SPONSOR"], ["CDISCPILOT01", "LB", "01-701-1028", "LBSEQ", "107", "LBTMSHI", "LAB RESULT/UPPER LIMIT OF NORMAL", "0.2", "DERIVED", "CLINICAL STUDY SPONSOR"], ["CDISCPILOT01", "LB", "01-701-1028", "LBSEQ", "115", "LBTMSHI", "LAB RESULT/UPPER LIMIT OF NORMAL", "0.3", "DERIVED", "CLINICAL STUDY SPONSOR"], ["CDISCPILOT01", "LB", "01-701-1028", "LBSEQ", "118", "LBTMSHI", "LAB RESULT/UPPER LIMIT OF NORMAL", "0.9", "DERIVED", "CLINICAL STUDY SPONSOR"], ["CDISCPILOT01", "LB", "01-701-1028", "LBSEQ", "119", "LBTMSHI", "LAB RESULT/UPPER LIMIT OF NORMAL", "0.9", "DERIVED", "CLINICAL STUDY SPONSOR"], ["CDISCPILOT01", "LB", "01-701-1028", "LBSEQ", "121", "LBTMSHI", "LAB RESULT/UPPER LIMIT OF NORMAL", "0.7", "DERIVED", "CLINICAL STUDY SPONSOR"], ["CDISCPILOT01", "LB", "01-701-1028", "LBSEQ", "122", "LBTMSHI", "LAB RESULT/UPPER LIMIT OF NORMAL", "1.0", "DERIVED", "CLINICAL STUDY SPONSOR"], ["CDISCPILOT01", "LB", "01-701-1028", "LBSEQ", "123", "LBTMSHI", "LAB RESULT/UPPER LIMIT OF NORMAL", "0.9", "DERIVED", "CLINICAL STUDY SPONSOR"], ["CDISCPILOT01", "LB", "01-701-1028", "LBSEQ", "124", "LBTMSHI", "LAB RESULT/UPPER LIMIT OF NORMAL", "1.0", "DERIVED", "CLINICAL STUDY SPONSOR"], ["CDISCPILOT01", "LB", "01-701-1028", "LBSEQ", "125", "LBTMSHI", "LAB RESULT/UPPER LIMIT OF NORMAL", "0.5", "DERIVED", "CLINICAL STUDY SPONSOR"], ["CDISCPILOT01", "LB", "01-701-1028", "LBSEQ", "128", "LBTMSHI", "LAB RESULT/UPPER LIMIT OF NORMAL", "0.5", "DERIVED", "CLINICAL STUDY SPONSOR"], ["CDISCPILOT01", "LB", "01-701-1028", "LBSEQ", "130", "LBTMSHI", "LAB RESULT/UPPER LIMIT OF NORMAL", "0.8", "DERIVED", "CLINICAL STUDY SPONSOR"], ["CDISCPILOT01", "LB", "01-701-1028", "LBSEQ", "132", "LBTMSHI", "LAB RESULT/UPPER LIMIT OF NORMAL", "0.5", "DERIVED", "CLINICAL STUDY SPONSOR"], ["CDISCPILOT01", "LB", "01-701-1028", "LBSEQ", "137", "LBTMSHI", "LAB RESULT/UPPER LIMIT OF NORMAL", "0.2", "DERIVED", "CLINICAL STUDY SPONSOR"], ["CDISCPILOT01", "LB", "01-701-1028", "LBSEQ", "145", "LBTMSHI", "LAB RESULT/UPPER LIMIT OF NORMAL", "0.5", "DERIVED", "CLINICAL STUDY SPONSOR"], ["CDISCPILOT01", "LB", "01-701-1028", "LBSEQ", "148", "LBTMSHI", "LAB RESULT/UPPER LIMIT OF NORMAL", "0.9", "DERIVED", "CLINICAL STUDY SPONSOR"], ["CDISCPILOT01", "LB", "01-701-1028", "LBSEQ", "149", "LBTMSHI", "LAB RESULT/UPPER LIMIT OF NORMAL", "0.9", "DERIVED", "CLINICAL STUDY SPONSOR"], ["CDISCPILOT01", "LB", "01-701-1028", "LBSEQ", "151", "LBTMSHI", "LAB RESULT/UPPER LIMIT OF NORMAL", "0.7", "DERIVED", "CLINICAL STUDY SPONSOR"], ["CDISCPILOT01", "LB", "01-701-1028", "LBSEQ", "152", "LBTMSHI", "LAB RESULT/UPPER LIMIT OF NORMAL", "1.0", "DERIVED", "CLINICAL STUDY SPONSOR"], ["CDISCPILOT01", "LB", "01-701-1028", "LBSEQ", "153", "LBTMSHI", "LAB RESULT/UPPER LIMIT OF NORMAL", "0.9", "DERIVED", "CLINICAL STUDY SPONSOR"], ["CDISCPILOT01", "LB", "01-701-1028", "LBSEQ", "154", "LBTMSHI", "LAB RESULT/UPPER LIMIT OF NORMAL", "1.0", "DERIVED", "CLINICAL STUDY SPONSOR"], ["CDISCPILOT01", "LB", "01-701-1028", "LBSEQ", "155", "LBTMSHI", "LAB RESULT/UPPER LIMIT OF NORMAL", "0.7", "DERIVED", "CLINICAL STUDY SPONSOR"], ["CDISCPILOT01", "LB", "01-701-1028", "LBSEQ", "158", "LBTMSHI", "LAB RESULT/UPPER LIMIT OF NORMAL", "0.4", "DERIVED", "CLINICAL STUDY SPONSOR"], ["CDISCPILOT01", "LB", "01-701-1028", "LBSEQ", "160", "LBTMSHI", "LAB RESULT/UPPER LIMIT OF NORMAL", "0.8", "DERIVED", "CLINICAL STUDY SPONSOR"], ["CDISCPILOT01", "LB", "01-701-1028", "LBSEQ", "162", "LBTMSHI", "LAB RESULT/UPPER LIMIT OF NORMAL", "0.5", "DERIVED", "CLINICAL STUDY SPONSOR"], ["CDISCPILOT01", "LB", "01-701-1028", "LBSEQ", "167", "LBTMSHI", "LAB RESULT/UPPER LIMIT OF NORMAL", "0.4", "DERIVED", "CLINICAL STUDY SPONSOR"], ["CDISCPILOT01", "LB", "01-701-1028", "LBSEQ", "176", "LBTMSHI", "LAB RESULT/UPPER LIMIT OF NORMAL", "0.3", "DERIVED", "CLINICAL STUDY SPONSOR"], ["CDISCPILOT01", "LB", "01-701-1028", "LBSEQ", "179", "LBTMSHI", "LAB RESULT/UPPER LIMIT OF NORMAL", "1.0", "DERIVED", "CLINICAL STUDY SPONSOR"], ["CDISCPILOT01", "LB", "01-701-1028", "LBSEQ", "180", "LBTMSHI", "LAB RESULT/UPPER LIMIT OF NORMAL", "1.0", "DERIVED", "CLINICAL STUDY SPONSOR"], ["CDISCPILOT01", "LB", "01-701-1028", "LBSEQ", "183", "LBTMSHI", "LAB RESULT/UPPER LIMIT OF NORMAL", "0.6", "DERIVED", "CLINICAL STUDY SPONSOR"], ["CDISCPILOT01", "LB", "01-701-1028", "LBSEQ", "184", "LBTMSHI", "LAB RESULT/UPPER LIMIT OF NORMAL", "1.0", "DERIVED", "CLINICAL STUDY SPONSOR"], ["CDISCPILOT01", "LB", "01-701-1028", "LBSEQ", "185", "LBTMSHI", "LAB RESULT/UPPER LIMIT OF NORMAL", "0.9", "DERIVED", "CLINICAL STUDY SPONSOR"], ["CDISCPILOT01", "LB", "01-701-1028", "LBSEQ", "186", "LBTMSHI", "LAB RESULT/UPPER LIMIT OF NORMAL", "1.0", "DERIVED", "CLINICAL STUDY SPONSOR"], ["CDISCPILOT01", "LB", "01-701-1028", "LBSEQ", "187", "LBTMSHI", "LAB RESULT/UPPER LIMIT OF NORMAL", "0.5", "DERIVED", "CLINICAL STUDY SPONSOR"], ["CDISCPILOT01", "LB", "01-701-1028", "LBSEQ", "191", "LBTMSHI", "LAB RESULT/UPPER LIMIT OF NORMAL", "0.4", "DERIVED", "CLINICAL STUDY SPONSOR"], ["CDISCPILOT01", "LB", "01-701-1028", "LBSEQ", "193", "LBTMSHI", "LAB RESULT/UPPER LIMIT OF NORMAL", "0.8", "DERIVED", "CLINICAL STUDY SPONSOR"], ["CDISCPILOT01", "LB", "01-701-1028", "LBSEQ", "197", "LBTMSHI", "LAB RESULT/UPPER LIMIT OF NORMAL", "0.5", "DERIVED", "CLINICAL STUDY SPONSOR"], ["CDISCPILOT01", "LB", "01-701-1028", "LBSEQ", "203", "LBTMSHI", "LAB RESULT/UPPER LIMIT OF NORMAL", "0.3", "DERIVED", "CLINICAL STUDY SPONSOR"], ["CDISCPILOT01", "LB", "01-701-1028", "LBSEQ", "211", "LBTMSHI", "LAB RESULT/UPPER LIMIT OF NORMAL", "0.3", "DERIVED", "CLINICAL STUDY SPONSOR"], ["CDISCPILOT01", "LB", "01-701-1028", "LBSEQ", "214", "LBTMSHI", "LAB RESULT/UPPER LIMIT OF NORMAL", "0.8", "DERIVED", "CLINICAL STUDY SPONSOR"], ["CDISCPILOT01", "LB", "01-701-1028", "LBSEQ", "215", "LBTMSHI", "LAB RESULT/UPPER LIMIT OF NORMAL", "0.9", "DERIVED", "CLINICAL STUDY SPONSOR"], ["CDISCPILOT01", "LB", "01-701-1028", "LBSEQ", "217", "LBTMSHI", "LAB RESULT/UPPER LIMIT OF NORMAL", "0.5", "DERIVED", "CLINICAL STUDY SPONSOR"], ["CDISCPILOT01", "LB", "01-701-1028", "LBSEQ", "219", "LBTMSHI", "LAB RESULT/UPPER LIMIT OF NORMAL", "1.0", "DERIVED", "CLINICAL STUDY SPONSOR"], ["CDISCPILOT01", "LB", "01-701-1028", "LBSEQ", "220", "LBTMSHI", "LAB RESULT/UPPER LIMIT OF NORMAL", "0.9", "DERIVED", "CLINICAL STUDY SPONSOR"], ["CDISCPILOT01", "LB", "01-701-1028", "LBSEQ", "221", "LBTMSHI", "LAB RESULT/UPPER LIMIT OF NORMAL", "1.0", "DERIVED", "CLINICAL STUDY SPONSOR"], ["CDISCPILOT01", "LB", "01-701-1028", "LBSEQ", "222", "LBTMSHI", "LAB RESULT/UPPER LIMIT OF NORMAL", "0.5", "DERIVED", "CLINICAL STUDY SPONSOR"], ["CDISCPILOT01", "LB", "01-701-1028", "LBSEQ", "225", "LBTMSHI", "LAB RESULT/UPPER LIMIT OF NORMAL", "0.4", "DERIVED", "CLINICAL STUDY SPONSOR"], ["CDISCPILOT01", "LB", "01-701-1028", "LBSEQ", "227", "LBTMSHI", "LAB RESULT/UPPER LIMIT OF NORMAL", "0.7", "DERIVED", "CLINICAL STUDY SPONSOR"], ["CDISCPILOT01", "LB", "01-701-1028", "LBSEQ", "229", "LBTMSHI", "LAB RESULT/UPPER LIMIT OF NORMAL", "0.4", "DERIVED", "CLINICAL STUDY SPONSOR"], ["CDISCPILOT01", "LB", "01-701-1028", "LBSEQ", "235", "LBTMSHI", "LAB RESULT/UPPER LIMIT OF NORMAL", "0.3", "DERIVED", "CLINICAL STUDY SPONSOR"], ["CDISCPILOT01", "LB", "01-701-1028", "LBSEQ", "243", "LBTMSHI", "LAB RESULT/UPPER LIMIT OF NORMAL", "0.3", "DERIVED", "CLINICAL STUDY SPONSOR"], ["CDISCPILOT01", "LB", "01-701-1028", "LBSEQ", "246", "LBTMSHI", "LAB RESULT/UPPER LIMIT OF NORMAL", "0.8", "DERIVED", "CLINICAL STUDY SPONSOR"], ["CDISCPILOT01", "LB", "01-701-1028", "LBSEQ", "247", "LBTMSHI", "LAB RESULT/UPPER LIMIT OF NORMAL", "0.9", "DERIVED", "CLINICAL STUDY SPONSOR"], ["CDISCPILOT01", "LB", "01-701-1028", "LBSEQ", "249", "LBTMSHI", "LAB RESULT/UPPER LIMIT OF NORMAL", "0.8", "DERIVED", "CLINICAL STUDY SPONSOR"], ["CDISCPILOT01", "LB", "01-701-1028", "LBSEQ", "250", "LBTMSHI", "LAB RESULT/UPPER LIMIT OF NORMAL", "1.0", "DERIVED", "CLINICAL STUDY SPONSOR"], ["CDISCPILOT01", "LB", "01-701-1028", "LBSEQ", "251", "LBTMSHI", "LAB RESULT/UPPER LIMIT OF NORMAL", "0.9", "DERIVED", "CLINICAL STUDY SPONSOR"], ["CDISCPILOT01", "LB", "01-701-1028", "LBSEQ", "252", "LBTMSHI", "LAB RESULT/UPPER LIMIT OF NORMAL", "1.0", "DERIVED", "CLINICAL STUDY SPONSOR"], ["CDISCPILOT01", "LB", "01-701-1028", "LBSEQ", "253", "LBTMSHI", "LAB RESULT/UPPER LIMIT OF NORMAL", "0.5", "DERIVED", "CLINICAL STUDY SPONSOR"], ["CDISCPILOT01", "LB", "01-701-1028", "LBSEQ", "256", "LBTMSHI", "LAB RESULT/UPPER LIMIT OF NORMAL", "0.4", "DERIVED", "CLINICAL STUDY SPONSOR"], ["CDISCPILOT01", "LB", "01-701-1028", "LBSEQ", "258", "LBTMSHI", "LAB RESULT/UPPER LIMIT OF NORMAL", "0.7", "DERIVED", "CLINICAL STUDY SPONSOR"], ["CDISCPILOT01", "LB", "01-701-1028", "LBSEQ", "260", "LBTMSHI", "LAB RESULT/UPPER LIMIT OF NORMAL", "0.5", "DERIVED", "CLINICAL STUDY SPONSOR"], ["CDISCPILOT01", "LB", "01-701-1028", "LBSEQ", "265", "ENDPOINT", "ENDPOINT VALUE FLAG", "Y", "DERIVED", "CLINICAL STUDY SPONSOR"], ["CDISCPILOT01", "LB", "01-701-1028", "LBSEQ", "265", "LBTMSHI", "LAB RESULT/UPPER LIMIT OF NORMAL", "0.2", "DERIVED", "CLINICAL STUDY SPONSOR"], ["CDISCPILOT01", "LB", "01-701-1028", "LBSEQ", "274", "ENDPOINT", "ENDPOINT VALUE FLAG", "Y", "DERIVED", "CLINICAL STUDY SPONSOR"], ["CDISCPILOT01", "LB", "01-701-1028", "LBSEQ", "274", "LBTMSHI", "LAB RESULT/UPPER LIMIT OF NORMAL", "0.2", "DERIVED", "CLINICAL STUDY SPONSOR"], ["CDISCPILOT01", "LB", "01-701-1028", "LBSEQ", "277", "ENDPOINT", "ENDPOINT VALUE FLAG", "Y", "DERIVED", "CLINICAL STUDY SPONSOR"], ["CDISCPILOT01", "LB", "01-701-1028", "LBSEQ", "277", "LBTMSHI", "LAB RESULT/UPPER LIMIT OF NORMAL", "0.9", "DERIVED", "CLINICAL STUDY SPONSOR"], ["CDISCPILOT01", "LB", "01-701-1028", "LBSEQ", "278", "ENDPOINT", "ENDPOINT VALUE FLAG", "Y", "DERIVED", "CLINICAL STUDY SPONSOR"], ["CDISCPILOT01", "LB", "01-701-1028", "LBSEQ", "278", "LBTMSHI", "LAB RESULT/UPPER LIMIT OF NORMAL", "0.9", "DERIVED", "CLINICAL STUDY SPONSOR"], ["CDISCPILOT01", "LB", "01-701-1028", "LBSEQ", "281", "ENDPOINT", "ENDPOINT VALUE FLAG", "Y", "DERIVED", "CLINICAL STUDY SPONSOR"], ["CDISCPILOT01", "LB", "01-701-1028", "LBSEQ", "281", "LBTMSHI", "LAB RESULT/UPPER LIMIT OF NORMAL", "0.6", "DERIVED", "CLINICAL STUDY SPONSOR"], ["CDISCPILOT01", "LB", "01-701-1028", "LBSEQ", "283", "ENDPOINT", "ENDPOINT VALUE FLAG", "Y", "DERIVED", "CLINICAL STUDY SPONSOR"], ["CDISCPILOT01", "LB", "01-701-1028", "LBSEQ", "283", "LBTMSHI", "LAB RESULT/UPPER LIMIT OF NORMAL", "1.0", "DERIVED", "CLINICAL STUDY SPONSOR"], ["CDISCPILOT01", "LB", "01-701-1028", "LBSEQ", "284", "ENDPOINT", "ENDPOINT VALUE FLAG", "Y", "DERIVED", "CLINICAL STUDY SPONSOR"], ["CDISCPILOT01", "LB", "01-701-1028", "LBSEQ", "284", "LBTMSHI", "LAB RESULT/UPPER LIMIT OF NORMAL", "0.9", "DERIVED", "CLINICAL STUDY SPONSOR"], ["CDISCPILOT01", "LB", "01-701-1028", "LBSEQ", "285", "ENDPOINT", "ENDPOINT VALUE FLAG", "Y", "DERIVED", "CLINICAL STUDY SPONSOR"], ["CDISCPILOT01", "LB", "01-701-1028", "LBSEQ", "285", "LBTMSHI", "LAB RESULT/UPPER LIMIT OF NORMAL", "1.0", "DERIVED", "CLINICAL STUDY SPONSOR"], ["CDISCPILOT01", "LB", "01-701-1028", "LBSEQ", "286", "ENDPOINT", "ENDPOINT VALUE FLAG", "Y", "DERIVED", "CLINICAL STUDY SPONSOR"], ["CDISCPILOT01", "LB", "01-701-1028", "LBSEQ", "286", "LBTMSHI", "LAB RESULT/UPPER LIMIT OF NORMAL", "0.3", "DERIVED", "CLINICAL STUDY SPONSOR"], ["CDISCPILOT01", "LB", "01-701-1028", "LBSEQ", "290", "ENDPOINT", "ENDPOINT VALUE FLAG", "Y", "DERIVED", "CLINICAL STUDY SPONSOR"], ["CDISCPILOT01", "LB", "01-701-1028", "LBSEQ", "290", "LBTMSHI", "LAB RESULT/UPPER LIMIT OF NORMAL", "0.5", "DERIVED", "CLINICAL STUDY SPONSOR"], ["CDISCPILOT01", "LB", "01-701-1028", "LBSEQ", "293", "ENDPOINT", "ENDPOINT VALUE FLAG", "Y", "DERIVED", "CLINICAL STUDY SPONSOR"], ["CDISCPILOT01", "LB", "01-701-1028", "LBSEQ", "293", "LBTMSHI", "LAB RESULT/UPPER LIMIT OF NORMAL", "0.8", "DERIVED", "CLINICAL STUDY SPONSOR"], ["CDISCPILOT01", "LB", "01-701-1028", "LBSEQ", "297", "ENDPOINT", "ENDPOINT VALUE FLAG", "Y", "DERIVED", "CLINICAL STUDY SPONSOR"], ["CDISCPILOT01", "LB", "01-701-1028", "LBSEQ", "297", "LBTMSHI", "LAB RESULT/UPPER LIMIT OF NORMAL", "0.4", "DERIVED", "CLINICAL STUDY SPONSOR"], ["CDISCPILOT01", "LB", "01-701-1028", "LBSEQ", "302", "LBTMSHI", "LAB RESULT/UPPER LIMIT OF NORMAL", "0.3", "DERIVED", "CLINICAL STUDY SPONSOR"], ["CDISCPILOT01", "LB", "01-701-1028", "LBSEQ", "310", "LBTMSHI", "LAB RESULT/UPPER LIMIT OF NORMAL", "0.1", "DERIVED", "CLINICAL STUDY SPONSOR"], ["CDISCPILOT01", "LB", "01-701-1028", "LBSEQ", "313", "LBTMSHI", "LAB RESULT/UPPER LIMIT OF NORMAL", "0.9", "DERIVED", "CLINICAL STUDY SPONSOR"], ["CDISCPILOT01", "LB", "01-701-1028", "LBSEQ", "314", "LBTMSHI", "LAB RESULT/UPPER LIMIT OF NORMAL", "0.9", "DERIVED", "CLINICAL STUDY SPONSOR"], ["CDISCPILOT01", "LB", "01-701-1028", "LBSEQ", "316", "LBTMSHI", "LAB RESULT/UPPER LIMIT OF NORMAL", "0.7", "DERIVED", "CLINICAL STUDY SPONSOR"], ["CDISCPILOT01", "LB", "01-701-1028", "LBSEQ", "318", "LBTMSHI", "LAB RESULT/UPPER LIMIT OF NORMAL", "1.0", "DERIVED", "CLINICAL STUDY SPONSOR"], ["CDISCPILOT01", "LB", "01-701-1028", "LBSEQ", "319", "LBTMSHI", "LAB RESULT/UPPER LIMIT OF NORMAL", "0.9", "DERIVED", "CLINICAL STUDY SPONSOR"], ["CDISCPILOT01", "LB", "01-701-1028", "LBSEQ", "320", "LBTMSHI", "LAB RESULT/UPPER LIMIT OF NORMAL", "1.1", "DERIVED", "CLINICAL STUDY SPONSOR"], ["CDISCPILOT01", "LB", "01-701-1028", "LBSEQ", "321", "LBTMSHI", "LAB RESULT/UPPER LIMIT OF NORMAL", "0.4", "DERIVED", "CLINICAL STUDY SPONSOR"], ["CDISCPILOT01", "LB", "01-701-1028", "LBSEQ", "324", "LBTMSHI", "LAB RESULT/UPPER LIMIT OF NORMAL", "0.4", "DERIVED", "CLINICAL STUDY SPONSOR"], ["CDISCPILOT01", "LB", "01-701-1028", "LBSEQ", "326", "LBTMSHI", "LAB RESULT/UPPER LIMIT OF NORMAL", "0.8", "DERIVED", "CLINICAL STUDY SPONSOR"], ["CDISCPILOT01", "LB", "01-701-1028", "LBSEQ", "328", "LBTMSHI", "LAB RESULT/UPPER LIMIT OF NORMAL", "0.5", "DERIVED", "CLINICAL STUDY SPONSOR"], ["CDISCPILOT01", "LB", "01-701-1033", "LBSEQ", "5", "LBTMSHI", "LAB RESULT/UPPER LIMIT OF NORMAL", "0.5", "DERIVED", "CLINICAL STUDY SPONSOR"], ["CDISCPILOT01", "LB", "01-701-1033", "LBSEQ", "14", "LBTMSHI", "LAB RESULT/UPPER LIMIT OF NORMAL", "0.1", "DERIVED", "CLINICAL STUDY SPONSOR"], ["CDISCPILOT01", "LB", "01-701-1033", "LBSEQ", "17", "LBTMSHI", "LAB RESULT/UPPER LIMIT OF NORMAL", "1.0", "DERIVED", "CLINICAL STUDY SPONSOR"], ["CDISCPILOT01", "LB", "01-701-1033", "LBSEQ", "18", "LBTMSHI", "LAB RESULT/UPPER LIMIT OF NORMAL", "0.9", "DERIVED", "CLINICAL STUDY SPONSOR"], ["CDISCPILOT01", "LB", "01-701-1033", "LBSEQ", "21", "LBTMSHI", "LAB RESULT/UPPER LIMIT OF NORMAL", "1.0", "DERIVED", "CLINICAL STUDY SPONSOR"], ["CDISCPILOT01", "LB", "01-701-1033", "LBSEQ", "22", "LBTMSHI", "LAB RESULT/UPPER LIMIT OF NORMAL", "0.9", "DERIVED", "CLINICAL STUDY SPONSOR"], ["CDISCPILOT01", "LB", "01-701-1033", "LBSEQ", "23", "LBTMSHI", "LAB RESULT/UPPER LIMIT OF NORMAL", "0.8", "DERIVED", "CLINICAL STUDY SPONSOR"], ["CDISCPILOT01", "LB", "01-701-1033", "LBSEQ", "24", "LBTMSHI", "LAB RESULT/UPPER LIMIT OF NORMAL", "1.0", "DERIVED", "CLINICAL STUDY SPONSOR"], ["CDISCPILOT01", "LB", "01-701-1033", "LBSEQ", "25", "LBTMSHI", "LAB RESULT/UPPER LIMIT OF NORMAL", "0.7", "DERIVED", "CLINICAL STUDY SPONSOR"], ["CDISCPILOT01", "LB", "01-701-1033", "LBSEQ", "29", "LBTMSHI", "LAB RESULT/UPPER LIMIT OF NORMAL", "0.5", "DERIVED", "CLINICAL STUDY SPONSOR"], ["CDISCPILOT01", "LB", "01-701-1033", "LBSEQ", "31", "LBTMSHI", "LAB RESULT/UPPER LIMIT OF NORMAL", "0.9", "DERIVED", "CLINICAL STUDY SPONSOR"], ["CDISCPILOT01", "LB", "01-701-1033", "LBSEQ", "37", "LBTMSHI", "LAB RESULT/UPPER LIMIT OF NORMAL", "0.9", "DERIVED", "CLINICAL STUDY SPONSOR"], ["CDISCPILOT01", "LB", "01-701-1033", "LBSEQ", "42", "LBTMSHI", "LAB RESULT/UPPER LIMIT OF NORMAL", "0.5", "DERIVED", "CLINICAL STUDY SPONSOR"], ["CDISCPILOT01", "LB", "01-701-1033", "LBSEQ", "51", "LBTMSHI", "LAB RESULT/UPPER LIMIT OF NORMAL", "0.2", "DERIVED", "CLINICAL STUDY SPONSOR"], ["CDISCPILOT01", "LB", "01-701-1033", "LBSEQ", "54", "LBTMSHI", "LAB RESULT/UPPER LIMIT OF NORMAL", "1.0", "DERIVED", "CLINICAL STUDY SPONSOR"], ["CDISCPILOT01", "LB", "01-701-1033", "LBSEQ", "55", "LBTMSHI", "LAB RESULT/UPPER LIMIT OF NORMAL", "1.0", "DERIVED", "CLINICAL STUDY SPONSOR"], ["CDISCPILOT01", "LB", "01-701-1033", "LBSEQ", "58", "LBTMSHI", "LAB RESULT/UPPER LIMIT OF NORMAL", "0.8", "DERIVED", "CLINICAL STUDY SPONSOR"], ["CDISCPILOT01", "LB", "01-701-1033", "LBSEQ", "59", "LBTMSHI", "LAB RESULT/UPPER LIMIT OF NORMAL", "0.9", "DERIVED", "CLINICAL STUDY SPONSOR"], ["CDISCPILOT01", "LB", "01-701-1033", "LBSEQ", "60", "LBTMSHI", "LAB RESULT/UPPER LIMIT OF NORMAL", "0.9", "DERIVED", "CLINICAL STUDY SPONSOR"], ["CDISCPILOT01", "LB", "01-701-1033", "LBSEQ", "61", "LBTMSHI", "LAB RESULT/UPPER LIMIT OF NORMAL", "1.0", "DERIVED", "CLINICAL STUDY SPONSOR"], ["CDISCPILOT01", "LB", "01-701-1033", "LBSEQ", "62", "LBTMSHI", "LAB RESULT/UPPER LIMIT OF NORMAL", "0.5", "DERIVED", "CLINICAL STUDY SPONSOR"], ["CDISCPILOT01", "LB", "01-701-1033", "LBSEQ", "66", "LBTMSHI", "LAB RESULT/UPPER LIMIT OF NORMAL", "0.5", "DERIVED", "CLINICAL STUDY SPONSOR"], ["CDISCPILOT01", "LB", "01-701-1033", "LBSEQ", "68", "LBTMSHI", "LAB RESULT/UPPER LIMIT OF NORMAL", "0.9", "DERIVED", "CLINICAL STUDY SPONSOR"], ["CDISCPILOT01", "LB", "01-701-1033", "LBSEQ", "72", "LBTMSHI", "LAB RESULT/UPPER LIMIT OF NORMAL", "0.8", "DERIVED", "CLINICAL STUDY SPONSOR"], ["CDISCPILOT01", "LB", "01-701-1033", "LBSEQ", "77", "ENDPOINT", "ENDPOINT VALUE FLAG", "Y", "DERIVED", "CLINICAL STUDY SPONSOR"], ["CDISCPILOT01", "LB", "01-701-1033", "LBSEQ", "77", "LBTMSHI", "LAB RESULT/UPPER LIMIT OF NORMAL", "0.5", "DERIVED", "CLINICAL STUDY SPONSOR"], ["CDISCPILOT01", "LB", "01-701-1033", "LBSEQ", "86", "ENDPOINT", "ENDPOINT VALUE FLAG", "Y", "DERIVED", "CLINICAL STUDY SPONSOR"], ["CDISCPILOT01", "LB", "01-701-1033", "LBSEQ", "86", "LBTMSHI", "LAB RESULT/UPPER LIMIT OF NORMAL", "0.3", "DERIVED", "CLINICAL STUDY SPONSOR"], ["CDISCPILOT01", "LB", "01-701-1033", "LBSEQ", "89", "ENDPOINT", "ENDPOINT VALUE FLAG", "Y", "DERIVED", "CLINICAL STUDY SPONSOR"], ["CDISCPILOT01", "LB", "01-701-1033", "LBSEQ", "89", "LBTMSHI", "LAB RESULT/UPPER LIMIT OF NORMAL", "0.9", "DERIVED", "CLINICAL STUDY SPONSOR"], ["CDISCPILOT01", "LB", "01-701-1033", "LBSEQ", "90", "ENDPOINT", "ENDPOINT VALUE FLAG", "Y", "DERIVED", "CLINICAL STUDY SPONSOR"], ["CDISCPILOT01", "LB", "01-701-1033", "LBSEQ", "90", "LBTMSHI", "LAB RESULT/UPPER LIMIT OF NORMAL", "1.0", "DERIVED", "CLINICAL STUDY SPONSOR"], ["CDISCPILOT01", "LB", "01-701-1033", "LBSEQ", "93", "ENDPOINT", "ENDPOINT VALUE FLAG", "Y", "DERIVED", "CLINICAL STUDY SPONSOR"], ["CDISCPILOT01", "LB", "01-701-1033", "LBSEQ", "93", "LBTMSHI", "LAB RESULT/UPPER LIMIT OF NORMAL", "1.0", "DERIVED", "CLINICAL STUDY SPONSOR"], ["CDISCPILOT01", "LB", "01-701-1033", "LBSEQ", "94", "ENDPOINT", "ENDPOINT VALUE FLAG", "Y", "DERIVED", "CLINICAL STUDY SPONSOR"], ["CDISCPILOT01", "LB", "01-701-1033", "LBSEQ", "94", "LBTMSHI", "LAB RESULT/UPPER LIMIT OF NORMAL", "0.9", "DERIVED", "CLINICAL STUDY SPONSOR"], ["CDISCPILOT01", "LB", "01-701-1033", "LBSEQ", "95", "ENDPOINT", "ENDPOINT VALUE FLAG", "Y", "DERIVED", "CLINICAL STUDY SPONSOR"], ["CDISCPILOT01", "LB", "01-701-1033", "LBSEQ", "95", "LBTMSHI", "LAB RESULT/UPPER LIMIT OF NORMAL", "0.9", "DERIVED", "CLINICAL STUDY SPONSOR"], ["CDISCPILOT01", "LB", "01-701-1033", "LBSEQ", "96", "ENDPOINT", "ENDPOINT VALUE FLAG", "Y", "DERIVED", "CLINICAL STUDY SPONSOR"], ["CDISCPILOT01", "LB", "01-701-1033", "LBSEQ", "96", "LBTMSHI", "LAB RESULT/UPPER LIMIT OF NORMAL", "0.9", "DERIVED", "CLINICAL STUDY SPONSOR"], ["CDISCPILOT01", "LB", "01-701-1033", "LBSEQ", "97", "ENDPOINT", "ENDPOINT VALUE FLAG", "Y", "DERIVED", "CLINICAL STUDY SPONSOR"], ["CDISCPILOT01", "LB", "01-701-1033", "LBSEQ", "97", "LBTMSHI", "LAB RESULT/UPPER LIMIT OF NORMAL", "0.5", "DERIVED", "CLINICAL STUDY SPONSOR"], ["CDISCPILOT01", "LB", "01-701-1033", "LBSEQ", "101", "ENDPOINT", "ENDPOINT VALUE FLAG", "Y", "DERIVED", "CLINICAL STUDY SPONSOR"], ["CDISCPILOT01", "LB", "01-701-1033", "LBSEQ", "101", "LBTMSHI", "LAB RESULT/UPPER LIMIT OF NORMAL", "0.4", "DERIVED", "CLINICAL STUDY SPONSOR"], ["CDISCPILOT01", "LB", "01-701-1033", "LBSEQ", "103", "ENDPOINT", "ENDPOINT VALUE FLAG", "Y", "DERIVED", "CLINICAL STUDY SPONSOR"], ["CDISCPILOT01", "LB", "01-701-1033", "LBSEQ", "103", "LBTMSHI", "LAB RESULT/UPPER LIMIT OF NORMAL", "0.9", "DERIVED", "CLINICAL STUDY SPONSOR"], ["CDISCPILOT01", "LB", "01-701-1033", "LBSEQ", "107", "ENDPOINT", "ENDPOINT VALUE FLAG", "Y", "DERIVED", "CLINICAL STUDY SPONSOR"], ["CDISCPILOT01", "LB", "01-701-1033", "LBSEQ", "107", "LBTMSHI", "LAB RESULT/UPPER LIMIT OF NORMAL", "0.8", "DERIVED", "CLINICAL STUDY SPONSOR"], ["CDISCPILOT01", "LB", "01-701-1034", "LBSEQ", "6", "LBTMSHI", "LAB RESULT/UPPER LIMIT OF NORMAL", "0.2", "DERIVED", "CLINICAL STUDY SPONSOR"], ["CDISCPILOT01", "LB", "01-701-1034", "LBSEQ", "15", "LBTMSHI", "LAB RESULT/UPPER LIMIT OF NORMAL", "0.2", "DERIVED", "CLINICAL STUDY SPONSOR"], ["CDISCPILOT01", "LB", "01-701-1034", "LBSEQ", "18", "LBTMSHI", "LAB RESULT/UPPER LIMIT OF NORMAL", "0.8", "DERIVED", "CLINICAL STUDY SPONSOR"], ["CDISCPILOT01", "LB", "01-701-1034", "LBSEQ", "19", "LBTMSHI", "LAB RESULT/UPPER LIMIT OF NORMAL", "0.8", "DERIVED", "CLINICAL STUDY SPONSOR"], ["CDISCPILOT01", "LB", "01-701-1034", "LBSEQ", "22", "LBTMSHI", "LAB RESULT/UPPER LIMIT OF NORMAL", "0.8", "DERIVED", "CLINICAL STUDY SPONSOR"], ["CDISCPILOT01", "LB", "01-701-1034", "LBSEQ", "23", "LBTMSHI", "LAB RESULT/UPPER LIMIT OF NORMAL", "1.0", "DERIVED", "CLINICAL STUDY SPONSOR"], ["CDISCPILOT01", "LB", "01-701-1034", "LBSEQ", "24", "LBTMSHI", "LAB RESULT/UPPER LIMIT OF NORMAL", "0.9", "DERIVED", "CLINICAL STUDY SPONSOR"], ["CDISCPILOT01", "LB", "01-701-1034", "LBSEQ", "25", "LBTMSHI", "LAB RESULT/UPPER LIMIT OF NORMAL", "1.0", "DERIVED", "CLINICAL STUDY SPONSOR"], ["CDISCPILOT01", "LB", "01-701-1034", "LBSEQ", "26", "LBTMSHI", "LAB RESULT/UPPER LIMIT OF NORMAL", "0.7", "DERIVED", "CLINICAL STUDY SPONSOR"], ["CDISCPILOT01", "LB", "01-701-1034", "LBSEQ", "30", "LBTMSHI", "LAB RESULT/UPPER LIMIT OF NORMAL", "0.6", "DERIVED", "CLINICAL STUDY SPONSOR"], ["CDISCPILOT01", "LB", "01-701-1034", "LBSEQ", "32", "LBTMSHI", "LAB RESULT/UPPER LIMIT OF NORMAL", "0.7", "DERIVED", "CLINICAL STUDY SPONSOR"], ["CDISCPILOT01", "LB", "01-701-1034", "LBSEQ", "38", "LBTMSHI", "LAB RESULT/UPPER LIMIT OF NORMAL", "0.7", "DERIVED", "CLINICAL STUDY SPONSOR"], ["CDISCPILOT01", "LB", "01-701-1034", "LBSEQ", "43", "LBTMSHI", "LAB RESULT/UPPER LIMIT OF NORMAL", "0.3", "DERIVED", "CLINICAL STUDY SPONSOR"], ["CDISCPILOT01", "LB", "01-701-1034", "LBSEQ", "52", "LBTMSHI", "LAB RESULT/UPPER LIMIT OF NORMAL", "0.2", "DERIVED", "CLINICAL STUDY SPONSOR"], ["CDISCPILOT01", "LB", "01-701-1034", "LBSEQ", "55", "LBTMSHI", "LAB RESULT/UPPER LIMIT OF NORMAL", "0.9", "DERIVED", "CLINICAL STUDY SPONSOR"], ["CDISCPILOT01", "LB", "01-701-1034", "LBSEQ", "56", "LBTMSHI", "LAB RESULT/UPPER LIMIT OF NORMAL", "0.9", "DERIVED", "CLINICAL STUDY SPONSOR"], ["CDISCPILOT01", "LB", "01-701-1034", "LBSEQ", "59", "LBTMSHI", "LAB RESULT/UPPER LIMIT OF NORMAL", "0.7", "DERIVED", "CLINICAL STUDY SPONSOR"], ["CDISCPILOT01", "LB", "01-701-1034", "LBSEQ", "61", "LBTMSHI", "LAB RESULT/UPPER LIMIT OF NORMAL", "1.0", "DERIVED", "CLINICAL STUDY SPONSOR"], ["CDISCPILOT01", "LB", "01-701-1034", "LBSEQ", "62", "LBTMSHI", "LAB RESULT/UPPER LIMIT OF NORMAL", "0.9", "DERIVED", "CLINICAL STUDY SPONSOR"], ["CDISCPILOT01", "LB", "01-701-1034", "LBSEQ", "63", "LBTMSHI", "LAB RESULT/UPPER LIMIT OF NORMAL", "1.1", "DERIVED", "CLINICAL STUDY SPONSOR"], ["CDISCPILOT01", "LB", "01-701-1034", "LBSEQ", "64", "LBTMSHI", "LAB RESULT/UPPER LIMIT OF NORMAL", "0.7", "DERIVED", "CLINICAL STUDY SPONSOR"], ["CDISCPILOT01", "LB", "01-701-1034", "LBSEQ", "68", "LBTMSHI", "LAB RESULT/UPPER LIMIT OF NORMAL", "0.6", "DERIVED", "CLINICAL STUDY SPONSOR"], ["CDISCPILOT01", "LB", "01-701-1034", "LBSEQ", "70", "LBTMSHI", "LAB RESULT/UPPER LIMIT OF NORMAL", "0.7", "DERIVED", "CLINICAL STUDY SPONSOR"], ["CDISCPILOT01", "LB", "01-701-1034", "LBSEQ", "74", "LBTMSHI", "LAB RESULT/UPPER LIMIT OF NORMAL", "0.8", "DERIVED", "CLINICAL STUDY SPONSOR"], ["CDISCPILOT01", "LB", "01-701-1034", "LBSEQ", "80", "LBTMSHI", "LAB RESULT/UPPER LIMIT OF NORMAL", "0.2", "DERIVED", "CLINICAL STUDY SPONSOR"], ["CDISCPILOT01", "LB", "01-701-1034", "LBSEQ", "88", "LBTMSHI", "LAB RESULT/UPPER LIMIT OF NORMAL", "0.1", "DERIVED", "CLINICAL STUDY SPONSOR"], ["CDISCPILOT01", "LB", "01-701-1034", "LBSEQ", "91", "LBTMSHI", "LAB RESULT/UPPER LIMIT OF NORMAL", "0.8", "DERIVED", "CLINICAL STUDY SPONSOR"], ["CDISCPILOT01", "LB", "01-701-1034", "LBSEQ", "92", "LBTMSHI", "LAB RESULT/UPPER LIMIT OF NORMAL", "0.8", "DERIVED", "CLINICAL STUDY SPONSOR"], ["CDISCPILOT01", "LB", "01-701-1034", "LBSEQ", "94", "LBTMSHI", "LAB RESULT/UPPER LIMIT OF NORMAL", "0.7", "DERIVED", "CLINICAL STUDY SPONSOR"], ["CDISCPILOT01", "LB", "01-701-1034", "LBSEQ", "95", "LBTMSHI", "LAB RESULT/UPPER LIMIT OF NORMAL", "1.0", "DERIVED", "CLINICAL STUDY SPONSOR"], ["CDISCPILOT01", "LB", "01-701-1034", "LBSEQ", "96", "LBTMSHI", "LAB RESULT/UPPER LIMIT OF NORMAL", "0.9", "DERIVED", "CLINICAL STUDY SPONSOR"], ["CDISCPILOT01", "LB", "01-701-1034", "LBSEQ", "97", "LBTMSHI", "LAB RESULT/UPPER LIMIT OF NORMAL", "1.0", "DERIVED", "CLINICAL STUDY SPONSOR"], ["CDISCPILOT01", "LB", "01-701-1034", "LBSEQ", "98", "LBTMSHI", "LAB RESULT/UPPER LIMIT OF NORMAL", "0.7", "DERIVED", "CLINICAL STUDY SPONSOR"], ["CDISCPILOT01", "LB", "01-701-1034", "LBSEQ", "101", "LBTMSHI", "LAB RESULT/UPPER LIMIT OF NORMAL", "0.6", "DERIVED", "CLINICAL STUDY SPONSOR"], ["CDISCPILOT01", "LB", "01-701-1034", "LBSEQ", "103", "LBTMSHI", "LAB RESULT/UPPER LIMIT OF NORMAL", "0.7", "DERIVED", "CLINICAL STUDY SPONSOR"], ["CDISCPILOT01", "LB", "01-701-1034", "LBSEQ", "105", "LBTMSHI", "LAB RESULT/UPPER LIMIT OF NORMAL", "0.5", "DERIVED", "CLINICAL STUDY SPONSOR"], ["CDISCPILOT01", "LB", "01-701-1034", "LBSEQ", "111", "LBTMSHI", "LAB RESULT/UPPER LIMIT OF NORMAL", "0.2", "DERIVED", "CLINICAL STUDY SPONSOR"], ["CDISCPILOT01", "LB", "01-701-1034", "LBSEQ", "119", "LBTMSHI", "LAB RESULT/UPPER LIMIT OF NORMAL", "0.1", "DERIVED", "CLINICAL STUDY SPONSOR"], ["CDISCPILOT01", "LB", "01-701-1034", "LBSEQ", "122", "LBTMSHI", "LAB RESULT/UPPER LIMIT OF NORMAL", "0.8", "DERIVED", "CLINICAL STUDY SPONSOR"], ["CDISCPILOT01", "LB", "01-701-1034", "LBSEQ", "123", "LBTMSHI", "LAB RESULT/UPPER LIMIT OF NORMAL", "0.8", "DERIVED", "CLINICAL STUDY SPONSOR"], ["CDISCPILOT01", "LB", "01-701-1034", "LBSEQ", "125", "LBTMSHI", "LAB RESULT/UPPER LIMIT OF NORMAL", "0.7", "DERIVED", "CLINICAL STUDY SPONSOR"], ["CDISCPILOT01", "LB", "01-701-1034", "LBSEQ", "126", "LBTMSHI", "LAB RESULT/UPPER LIMIT OF NORMAL", "1.0", "DERIVED", "CLINICAL STUDY SPONSOR"], ["CDISCPILOT01", "LB", "01-701-1034", "LBSEQ", "127", "LBTMSHI", "LAB RESULT/UPPER LIMIT OF NORMAL", "0.9", "DERIVED", "CLINICAL STUDY SPONSOR"], ["CDISCPILOT01", "LB", "01-701-1034", "LBSEQ", "128", "LBTMSHI", "LAB RESULT/UPPER LIMIT OF NORMAL", "1.0", "DERIVED", "CLINICAL STUDY SPONSOR"], ["CDISCPILOT01", "LB", "01-701-1034", "LBSEQ", "129", "LBTMSHI", "LAB RESULT/UPPER LIMIT OF NORMAL", "0.7", "DERIVED", "CLINICAL STUDY SPONSOR"], ["CDISCPILOT01", "LB", "01-701-1034", "LBSEQ", "132", "LBTMSHI", "LAB RESULT/UPPER LIMIT OF NORMAL", "0.5", "DERIVED", "CLINICAL STUDY SPONSOR"], ["CDISCPILOT01", "LB", "01-701-1034", "LBSEQ", "134", "LBTMSHI", "LAB RESULT/UPPER LIMIT OF NORMAL", "0.7", "DERIVED", "CLINICAL STUDY SPONSOR"], ["CDISCPILOT01", "LB", "01-701-1034", "LBSEQ", "136", "LBTMSHI", "LAB RESULT/UPPER LIMIT OF NORMAL", "1.0", "DERIVED", "CLINICAL STUDY SPONSOR"], ["CDISCPILOT01", "LB", "01-701-1034", "LBSEQ", "141", "LBTMSHI", "LAB RESULT/UPPER LIMIT OF NORMAL", "0.2", "DERIVED", "CLINICAL STUDY SPONSOR"], ["CDISCPILOT01", "LB", "01-701-1034", "LBSEQ", "149", "LBTMSHI", "LAB RESULT/UPPER LIMIT OF NORMAL", "0.2", "DERIVED", "CLINICAL STUDY SPONSOR"], ["CDISCPILOT01", "LB", "01-701-1034", "LBSEQ", "152", "LBTMSHI", "LAB RESULT/UPPER LIMIT OF NORMAL", "0.8", "DERIVED", "CLINICAL STUDY SPONSOR"], ["CDISCPILOT01", "LB", "01-701-1034", "LBSEQ", "153", "LBTMSHI", "LAB RESULT/UPPER LIMIT OF NORMAL", "0.8", "DERIVED", "CLINICAL STUDY SPONSOR"], ["CDISCPILOT01", "LB", "01-701-1034", "LBSEQ", "155", "LBTMSHI", "LAB RESULT/UPPER LIMIT OF NORMAL", "0.8", "DERIVED", "CLINICAL STUDY SPONSOR"], ["CDISCPILOT01", "LB", "01-701-1034", "LBSEQ", "156", "LBTMSHI", "LAB RESULT/UPPER LIMIT OF NORMAL", "1.0", "DERIVED", "CLINICAL STUDY SPONSOR"], ["CDISCPILOT01", "LB", "01-701-1034", "LBSEQ", "157", "LBTMSHI", "LAB RESULT/UPPER LIMIT OF NORMAL", "0.9", "DERIVED", "CLINICAL STUDY SPONSOR"], ["CDISCPILOT01", "LB", "01-701-1034", "LBSEQ", "158", "LBTMSHI", "LAB RESULT/UPPER LIMIT OF NORMAL", "1.0", "DERIVED", "CLINICAL STUDY SPONSOR"], ["CDISCPILOT01", "LB", "01-701-1034", "LBSEQ", "159", "LBTMSHI", "LAB RESULT/UPPER LIMIT OF NORMAL", "0.7", "DERIVED", "CLINICAL STUDY SPONSOR"], ["CDISCPILOT01", "LB", "01-701-1034", "LBSEQ", "162", "LBTMSHI", "LAB RESULT/UPPER LIMIT OF NORMAL", "0.7", "DERIVED", "CLINICAL STUDY SPONSOR"], ["CDISCPILOT01", "LB", "01-701-1034", "LBSEQ", "164", "LBTMSHI", "LAB RESULT/UPPER LIMIT OF NORMAL", "0.7", "DERIVED", "CLINICAL STUDY SPONSOR"], ["CDISCPILOT01", "LB", "01-701-1034", "LBSEQ", "166", "LBTMSHI", "LAB RESULT/UPPER LIMIT OF NORMAL", "0.6", "DERIVED", "CLINICAL STUDY SPONSOR"], ["CDISCPILOT01", "LB", "01-701-1034", "LBSEQ", "171", "LBTMSHI", "LAB RESULT/UPPER LIMIT OF NORMAL", "0.1", "DERIVED", "CLINICAL STUDY SPONSOR"], ["CDISCPILOT01", "LB", "01-701-1034", "LBSEQ", "180", "LBTMSHI", "LAB RESULT/UPPER LIMIT OF NORMAL", "0.2", "DERIVED", "CLINICAL STUDY SPONSOR"], ["CDISCPILOT01", "LB", "01-701-1034", "LBSEQ", "183", "LBTMSHI", "LAB RESULT/UPPER LIMIT OF NORMAL", "0.8", "DERIVED", "CLINICAL STUDY SPONSOR"], ["CDISCPILOT01", "LB", "01-701-1034", "LBSEQ", "184", "LBTMSHI", "LAB RESULT/UPPER LIMIT OF NORMAL", "0.8", "DERIVED", "CLINICAL STUDY SPONSOR"], ["CDISCPILOT01", "LB", "01-701-1034", "LBSEQ", "187", "LBTMSHI", "LAB RESULT/UPPER LIMIT OF NORMAL", "0.9", "DERIVED", "CLINICAL STUDY SPONSOR"], ["CDISCPILOT01", "LB", "01-701-1034", "LBSEQ", "188", "LBTMSHI", "LAB RESULT/UPPER LIMIT OF NORMAL", "1.0", "DERIVED", "CLINICAL STUDY SPONSOR"], ["CDISCPILOT01", "LB", "01-701-1034", "LBSEQ", "189", "LBTMSHI", "LAB RESULT/UPPER LIMIT OF NORMAL", "0.9", "DERIVED", "CLINICAL STUDY SPONSOR"], ["CDISCPILOT01", "LB", "01-701-1034", "LBSEQ", "190", "LBTMSHI", "LAB RESULT/UPPER LIMIT OF NORMAL", "1.0", "DERIVED", "CLINICAL STUDY SPONSOR"], ["CDISCPILOT01", "LB", "01-701-1034", "LBSEQ", "191", "LBTMSHI", "LAB RESULT/UPPER LIMIT OF NORMAL", "0.4", "DERIVED", "CLINICAL STUDY SPONSOR"], ["CDISCPILOT01", "LB", "01-701-1034", "LBSEQ", "195", "LBTMSHI", "LAB RESULT/UPPER LIMIT OF NORMAL", "0.7", "DERIVED", "CLINICAL STUDY SPONSOR"], ["CDISCPILOT01", "LB", "01-701-1034", "LBSEQ", "197", "LBTMSHI", "LAB RESULT/UPPER LIMIT OF NORMAL", "0.7", "DERIVED", "CLINICAL STUDY SPONSOR"], ["CDISCPILOT01", "LB", "01-701-1034", "LBSEQ", "201", "LBTMSHI", "LAB RESULT/UPPER LIMIT OF NORMAL", "0.7", "DERIVED", "CLINICAL STUDY SPONSOR"], ["CDISCPILOT01", "LB", "01-701-1034", "LBSEQ", "206", "LBTMSHI", "LAB RESULT/UPPER LIMIT OF NORMAL", "0.2", "DERIVED", "CLINICAL STUDY SPONSOR"], ["CDISCPILOT01", "LB", "01-701-1034", "LBSEQ", "214", "LBTMSHI", "LAB RESULT/UPPER LIMIT OF NORMAL", "0.2", "DERIVED", "CLINICAL STUDY SPONSOR"], ["CDISCPILOT01", "LB", "01-701-1034", "LBSEQ", "217", "LBTMSHI", "LAB RESULT/UPPER LIMIT OF NORMAL", "0.8", "DERIVED", "CLINICAL STUDY SPONSOR"], ["CDISCPILOT01", "LB", "01-701-1034", "LBSEQ", "218", "LBTMSHI", "LAB RESULT/UPPER LIMIT OF NORMAL", "0.8", "DERIVED", "CLINICAL STUDY SPONSOR"], ["CDISCPILOT01", "LB", "01-701-1034", "LBSEQ", "220", "LBTMSHI", "LAB RESULT/UPPER LIMIT OF NORMAL", "0.6", "DERIVED", "CLINICAL STUDY SPONSOR"], ["CDISCPILOT01", "LB", "01-701-1034", "LBSEQ", "222", "LBTMSHI", "LAB RESULT/UPPER LIMIT OF NORMAL", "1.0", "DERIVED", "CLINICAL STUDY SPONSOR"], ["CDISCPILOT01", "LB", "01-701-1034", "LBSEQ", "223", "LBTMSHI", "LAB RESULT/UPPER LIMIT OF NORMAL", "0.9", "DERIVED", "CLINICAL STUDY SPONSOR"], ["CDISCPILOT01", "LB", "01-701-1034", "LBSEQ", "224", "LBTMSHI", "LAB RESULT/UPPER LIMIT OF NORMAL", "1.0", "DERIVED", "CLINICAL STUDY SPONSOR"], ["CDISCPILOT01", "LB", "01-701-1034", "LBSEQ", "225", "LBTMSHI", "LAB RESULT/UPPER LIMIT OF NORMAL", "0.6", "DERIVED", "CLINICAL STUDY SPONSOR"], ["CDISCPILOT01", "LB", "01-701-1034", "LBSEQ", "228", "LBTMSHI", "LAB RESULT/UPPER LIMIT OF NORMAL", "0.6", "DERIVED", "CLINICAL STUDY SPONSOR"], ["CDISCPILOT01", "LB", "01-701-1034", "LBSEQ", "230", "LBTMSHI", "LAB RESULT/UPPER LIMIT OF NORMAL", "0.7", "DERIVED", "CLINICAL STUDY SPONSOR"], ["CDISCPILOT01", "LB", "01-701-1034", "LBSEQ", "232", "LBTMSHI", "LAB RESULT/UPPER LIMIT OF NORMAL", "0.6", "DERIVED", "CLINICAL STUDY SPONSOR"], ["CDISCPILOT01", "LB", "01-701-1034", "LBSEQ", "237", "LBTMSHI", "LAB RESULT/UPPER LIMIT OF NORMAL", "0.2", "DERIVED", "CLINICAL STUDY SPONSOR"], ["CDISCPILOT01", "LB", "01-701-1034", "LBSEQ", "245", "LBTMSHI", "LAB RESULT/UPPER LIMIT OF NORMAL", "0.2", "DERIVED", "CLINICAL STUDY SPONSOR"], ["CDISCPILOT01", "LB", "01-701-1034", "LBSEQ", "248", "LBTMSHI", "LAB RESULT/UPPER LIMIT OF NORMAL", "0.8", "DERIVED", "CLINICAL STUDY SPONSOR"], ["CDISCPILOT01", "LB", "01-701-1034", "LBSEQ", "249", "LBTMSHI", "LAB RESULT/UPPER LIMIT OF NORMAL", "0.8", "DERIVED", "CLINICAL STUDY SPONSOR"], ["CDISCPILOT01", "LB", "01-701-1034", "LBSEQ", "251", "LBTMSHI", "LAB RESULT/UPPER LIMIT OF NORMAL", "0.7", "DERIVED", "CLINICAL STUDY SPONSOR"], ["CDISCPILOT01", "LB", "01-701-1034", "LBSEQ", "253", "LBTMSHI", "LAB RESULT/UPPER LIMIT OF NORMAL", "1.0", "DERIVED", "CLINICAL STUDY SPONSOR"], ["CDISCPILOT01", "LB", "01-701-1034", "LBSEQ", "254", "LBTMSHI", "LAB RESULT/UPPER LIMIT OF NORMAL", "0.8", "DERIVED", "CLINICAL STUDY SPONSOR"], ["CDISCPILOT01", "LB", "01-701-1034", "LBSEQ", "255", "LBTMSHI", "LAB RESULT/UPPER LIMIT OF NORMAL", "1.0", "DERIVED", "CLINICAL STUDY SPONSOR"], ["CDISCPILOT01", "LB", "01-701-1034", "LBSEQ", "256", "LBTMSHI", "LAB RESULT/UPPER LIMIT OF NORMAL", "0.7", "DERIVED", "CLINICAL STUDY SPONSOR"], ["CDISCPILOT01", "LB", "01-701-1034", "LBSEQ", "259", "LBTMSHI", "LAB RESULT/UPPER LIMIT OF NORMAL", "0.7", "DERIVED", "CLINICAL STUDY SPONSOR"], ["CDISCPILOT01", "LB", "01-701-1034", "LBSEQ", "261", "LBTMSHI", "LAB RESULT/UPPER LIMIT OF NORMAL", "0.7", "DERIVED", "CLINICAL STUDY SPONSOR"], ["CDISCPILOT01", "LB", "01-701-1034", "LBSEQ", "263", "LBTMSHI", "LAB RESULT/UPPER LIMIT OF NORMAL", "0.8", "DERIVED", "CLINICAL STUDY SPONSOR"], ["CDISCPILOT01", "LB", "01-701-1034", "LBSEQ", "268", "ENDPOINT", "ENDPOINT VALUE FLAG", "Y", "DERIVED", "CLINICAL STUDY SPONSOR"], ["CDISCPILOT01", "LB", "01-701-1034", "LBSEQ", "268", "LBTMSHI", "LAB RESULT/UPPER LIMIT OF NORMAL", "0.2", "DERIVED", "CLINICAL STUDY SPONSOR"], ["CDISCPILOT01", "LB", "01-701-1034", "LBSEQ", "277", "ENDPOINT", "ENDPOINT VALUE FLAG", "Y", "DERIVED", "CLINICAL STUDY SPONSOR"], ["CDISCPILOT01", "LB", "01-701-1034", "LBSEQ", "277", "LBTMSHI", "LAB RESULT/UPPER LIMIT OF NORMAL", "0.3", "DERIVED", "CLINICAL STUDY SPONSOR"], ["CDISCPILOT01", "LB", "01-701-1034", "LBSEQ", "280", "ENDPOINT", "ENDPOINT VALUE FLAG", "Y", "DERIVED", "CLINICAL STUDY SPONSOR"], ["CDISCPILOT01", "LB", "01-701-1034", "LBSEQ", "280", "LBTMSHI", "LAB RESULT/UPPER LIMIT OF NORMAL", "0.8", "DERIVED", "CLINICAL STUDY SPONSOR"], ["CDISCPILOT01", "LB", "01-701-1034", "LBSEQ", "281", "ENDPOINT", "ENDPOINT VALUE FLAG", "Y", "DERIVED", "CLINICAL STUDY SPONSOR"], ["CDISCPILOT01", "LB", "01-701-1034", "LBSEQ", "281", "LBTMSHI", "LAB RESULT/UPPER LIMIT OF NORMAL", "0.8", "DERIVED", "CLINICAL STUDY SPONSOR"], ["CDISCPILOT01", "LB", "01-701-1034", "LBSEQ", "284", "ENDPOINT", "ENDPOINT VALUE FLAG", "Y", "DERIVED", "CLINICAL STUDY SPONSOR"], ["CDISCPILOT01", "LB", "01-701-1034", "LBSEQ", "284", "LBTMSHI", "LAB RESULT/UPPER LIMIT OF NORMAL", "0.9", "DERIVED", "CLINICAL STUDY SPONSOR"], ["CDISCPILOT01", "LB", "01-701-1034", "LBSEQ", "286", "ENDPOINT", "ENDPOINT VALUE FLAG", "Y", "DERIVED", "CLINICAL STUDY SPONSOR"], ["CDISCPILOT01", "LB", "01-701-1034", "LBSEQ", "286", "LBTMSHI", "LAB RESULT/UPPER LIMIT OF NORMAL", "1.1", "DERIVED", "CLINICAL STUDY SPONSOR"], ["CDISCPILOT01", "LB", "01-701-1034", "LBSEQ", "287", "ENDPOINT", "ENDPOINT VALUE FLAG", "Y", "DERIVED", "CLINICAL STUDY SPONSOR"], ["CDISCPILOT01", "LB", "01-701-1034", "LBSEQ", "287", "LBTMSHI", "LAB RESULT/UPPER LIMIT OF NORMAL", "0.9", "DERIVED", "CLINICAL STUDY SPONSOR"], ["CDISCPILOT01", "LB", "01-701-1034", "LBSEQ", "288", "ENDPOINT", "ENDPOINT VALUE FLAG", "Y", "DERIVED", "CLINICAL STUDY SPONSOR"], ["CDISCPILOT01", "LB", "01-701-1034", "LBSEQ", "288", "LBTMSHI", "LAB RESULT/UPPER LIMIT OF NORMAL", "1.0", "DERIVED", "CLINICAL STUDY SPONSOR"], ["CDISCPILOT01", "LB", "01-701-1034", "LBSEQ", "289", "ENDPOINT", "ENDPOINT VALUE FLAG", "Y", "DERIVED", "CLINICAL STUDY SPONSOR"], ["CDISCPILOT01", "LB", "01-701-1034", "LBSEQ", "289", "LBTMSHI", "LAB RESULT/UPPER LIMIT OF NORMAL", "0.6", "DERIVED", "CLINICAL STUDY SPONSOR"], ["CDISCPILOT01", "LB", "01-701-1034", "LBSEQ", "293", "ENDPOINT", "ENDPOINT VALUE FLAG", "Y", "DERIVED", "CLINICAL STUDY SPONSOR"], ["CDISCPILOT01", "LB", "01-701-1034", "LBSEQ", "293", "LBTMSHI", "LAB RESULT/UPPER LIMIT OF NORMAL", "0.6", "DERIVED", "CLINICAL STUDY SPONSOR"], ["CDISCPILOT01", "LB", "01-701-1034", "LBSEQ", "295", "ENDPOINT", "ENDPOINT VALUE FLAG", "Y", "DERIVED", "CLINICAL STUDY SPONSOR"], ["CDISCPILOT01", "LB", "01-701-1034", "LBSEQ", "295", "LBTMSHI", "LAB RESULT/UPPER LIMIT OF NORMAL", "0.6", "DERIVED", "CLINICAL STUDY SPONSOR"], ["CDISCPILOT01", "LB", "01-701-1034", "LBSEQ", "299", "ENDPOINT", "ENDPOINT VALUE FLAG", "Y", "DERIVED", "CLINICAL STUDY SPONSOR"], ["CDISCPILOT01", "LB", "01-701-1034", "LBSEQ", "299", "LBTMSHI", "LAB RESULT/UPPER LIMIT OF NORMAL", "0.9", "DERIVED", "CLINICAL STUDY SPONSOR"], ["CDISCPILOT01", "LB", "01-701-1034", "LBSEQ", "305", "LBTMSHI", "LAB RESULT/UPPER LIMIT OF NORMAL", "0.2", "DERIVED", "CLINICAL STUDY SPONSOR"], ["CDISCPILOT01", "LB", "01-701-1034", "LBSEQ", "313", "LBTMSHI", "LAB RESULT/UPPER LIMIT OF NORMAL", "0.2", "DERIVED", "CLINICAL STUDY SPONSOR"], ["CDISCPILOT01", "LB", "01-701-1034", "LBSEQ", "316", "LBTMSHI", "LAB RESULT/UPPER LIMIT OF NORMAL", "0.8", "DERIVED", "CLINICAL STUDY SPONSOR"], ["CDISCPILOT01", "LB", "01-701-1034", "LBSEQ", "317", "LBTMSHI", "LAB RESULT/UPPER LIMIT OF NORMAL", "0.8", "DERIVED", "CLINICAL STUDY SPONSOR"], ["CDISCPILOT01", "LB", "01-701-1034", "LBSEQ", "319", "LBTMSHI", "LAB RESULT/UPPER LIMIT OF NORMAL", "0.7", "DERIVED", "CLINICAL STUDY SPONSOR"], ["CDISCPILOT01", "LB", "01-701-1034", "LBSEQ", "320", "LBTMSHI", "LAB RESULT/UPPER LIMIT OF NORMAL", "1.0", "DERIVED", "CLINICAL STUDY SPONSOR"], ["CDISCPILOT01", "LB", "01-701-1034", "LBSEQ", "321", "LBTMSHI", "LAB RESULT/UPPER LIMIT OF NORMAL", "0.9", "DERIVED", "CLINICAL STUDY SPONSOR"], ["CDISCPILOT01", "LB", "01-701-1034", "LBSEQ", "322", "LBTMSHI", "LAB RESULT/UPPER LIMIT OF NORMAL", "1.0", "DERIVED", "CLINICAL STUDY SPONSOR"], ["CDISCPILOT01", "LB", "01-701-1034", "LBSEQ", "323", "LBTMSHI", "LAB RESULT/UPPER LIMIT OF NORMAL", "0.6", "DERIVED", "CLINICAL STUDY SPONSOR"], ["CDISCPILOT01", "LB", "01-701-1034", "LBSEQ", "326", "LBTMSHI", "LAB RESULT/UPPER LIMIT OF NORMAL", "0.7", "DERIVED", "CLINICAL STUDY SPONSOR"], ["CDISCPILOT01", "LB", "01-701-1034", "LBSEQ", "328", "LBTMSHI", "LAB RESULT/UPPER LIMIT OF NORMAL", "0.7", "DERIVED", "CLINICAL STUDY SPONSOR"], ["CDISCPILOT01", "LB", "01-701-1034", "LBSEQ", "330", "LBTMSHI", "LAB RESULT/UPPER LIMIT OF NORMAL", "0.8", "DERIVED", "CLINICAL STUDY SPONSOR"], ["CDISCPILOT01", "LB", "01-701-1047", "LBSEQ", "5", "LBTMSHI", "LAB RESULT/UPPER LIMIT OF NORMAL", "0.3", "DERIVED", "CLINICAL STUDY SPONSOR"], ["CDISCPILOT01", "LB", "01-701-1047", "LBSEQ", "14", "LBTMSHI", "LAB RESULT/UPPER LIMIT OF NORMAL", "0.2", "DERIVED", "CLINICAL STUDY SPONSOR"], ["CDISCPILOT01", "LB", "01-701-1047", "LBSEQ", "17", "LBTMSHI", "LAB RESULT/UPPER LIMIT OF NORMAL", "1.0", "DERIVED", "CLINICAL STUDY SPONSOR"], ["CDISCPILOT01", "LB", "01-701-1047", "LBSEQ", "18", "LBTMSHI", "LAB RESULT/UPPER LIMIT OF NORMAL", "1.0", "DERIVED", "CLINICAL STUDY SPONSOR"], ["CDISCPILOT01", "LB", "01-701-1047", "LBSEQ", "21", "LBTMSHI", "LAB RESULT/UPPER LIMIT OF NORMAL", "0.8", "DERIVED", "CLINICAL STUDY SPONSOR"], ["CDISCPILOT01", "LB", "01-701-1047", "LBSEQ", "22", "LBTMSHI", "LAB RESULT/UPPER LIMIT OF NORMAL", "1.0", "DERIVED", "CLINICAL STUDY SPONSOR"], ["CDISCPILOT01", "LB", "01-701-1047", "LBSEQ", "23", "LBTMSHI", "LAB RESULT/UPPER LIMIT OF NORMAL", "0.9", "DERIVED", "CLINICAL STUDY SPONSOR"], ["CDISCPILOT01", "LB", "01-701-1047", "LBSEQ", "24", "LBTMSHI", "LAB RESULT/UPPER LIMIT OF NORMAL", "1.0", "DERIVED", "CLINICAL STUDY SPONSOR"], ["CDISCPILOT01", "LB", "01-701-1047", "LBSEQ", "25", "LBTMSHI", "LAB RESULT/UPPER LIMIT OF NORMAL", "0.4", "DERIVED", "CLINICAL STUDY SPONSOR"], ["CDISCPILOT01", "LB", "01-701-1047", "LBSEQ", "29", "LBTMSHI", "LAB RESULT/UPPER LIMIT OF NORMAL", "0.6", "DERIVED", "CLINICAL STUDY SPONSOR"], ["CDISCPILOT01", "LB", "01-701-1047", "LBSEQ", "31", "LBTMSHI", "LAB RESULT/UPPER LIMIT OF NORMAL", "0.9", "DERIVED", "CLINICAL STUDY SPONSOR"], ["CDISCPILOT01", "LB", "01-701-1047", "LBSEQ", "37", "LBTMSHI", "LAB RESULT/UPPER LIMIT OF NORMAL", "0.7", "DERIVED", "CLINICAL STUDY SPONSOR"], ["CDISCPILOT01", "LB", "01-701-1047", "LBSEQ", "42", "LBTMSHI", "LAB RESULT/UPPER LIMIT OF NORMAL", "0.3", "DERIVED", "CLINICAL STUDY SPONSOR"], ["CDISCPILOT01", "LB", "01-701-1047", "LBSEQ", "51", "LBTMSHI", "LAB RESULT/UPPER LIMIT OF NORMAL", "0.3", "DERIVED", "CLINICAL STUDY SPONSOR"], ["CDISCPILOT01", "LB", "01-701-1047", "LBSEQ", "54", "LBTMSHI", "LAB RESULT/UPPER LIMIT OF NORMAL", "0.9", "DERIVED", "CLINICAL STUDY SPONSOR"], ["CDISCPILOT01", "LB", "01-701-1047", "LBSEQ", "55", "LBTMSHI", "LAB RESULT/UPPER LIMIT OF NORMAL", "0.9", "DERIVED", "CLINICAL STUDY SPONSOR"], ["CDISCPILOT01", "LB", "01-701-1047", "LBSEQ", "58", "LBTMSHI", "LAB RESULT/UPPER LIMIT OF NORMAL", "0.7", "DERIVED", "CLINICAL STUDY SPONSOR"], ["CDISCPILOT01", "LB", "01-701-1047", "LBSEQ", "59", "LBTMSHI", "LAB RESULT/UPPER LIMIT OF NORMAL", "0.9", "DERIVED", "CLINICAL STUDY SPONSOR"], ["CDISCPILOT01", "LB", "01-701-1047", "LBSEQ", "60", "LBTMSHI", "LAB RESULT/UPPER LIMIT OF NORMAL", "0.9", "DERIVED", "CLINICAL STUDY SPONSOR"], ["CDISCPILOT01", "LB", "01-701-1047", "LBSEQ", "61", "LBTMSHI", "LAB RESULT/UPPER LIMIT OF NORMAL", "1.0", "DERIVED", "CLINICAL STUDY SPONSOR"], ["CDISCPILOT01", "LB", "01-701-1047", "LBSEQ", "62", "LBTMSHI", "LAB RESULT/UPPER LIMIT OF NORMAL", "0.4", "DERIVED", "CLINICAL STUDY SPONSOR"], ["CDISCPILOT01", "LB", "01-701-1047", "LBSEQ", "66", "LBTMSHI", "LAB RESULT/UPPER LIMIT OF NORMAL", "0.6", "DERIVED", "CLINICAL STUDY SPONSOR"], ["CDISCPILOT01", "LB", "01-701-1047", "LBSEQ", "68", "LBTMSHI", "LAB RESULT/UPPER LIMIT OF NORMAL", "0.8", "DERIVED", "CLINICAL STUDY SPONSOR"], ["CDISCPILOT01", "LB", "01-701-1047", "LBSEQ", "72", "LBTMSHI", "LAB RESULT/UPPER LIMIT OF NORMAL", "0.5", "DERIVED", "CLINICAL STUDY SPONSOR"], ["CDISCPILOT01", "LB", "01-701-1047", "LBSEQ", "77", "ENDPOINT", "ENDPOINT VALUE FLAG", "Y", "DERIVED", "CLINICAL STUDY SPONSOR"], ["CDISCPILOT01", "LB", "01-701-1047", "LBSEQ", "77", "LBTMSHI", "LAB RESULT/UPPER LIMIT OF NORMAL", "0.2", "DERIVED", "CLINICAL STUDY SPONSOR"], ["CDISCPILOT01", "LB", "01-701-1047", "LBSEQ", "85", "ENDPOINT", "ENDPOINT VALUE FLAG", "Y", "DERIVED", "CLINICAL STUDY SPONSOR"], ["CDISCPILOT01", "LB", "01-701-1047", "LBSEQ", "85", "LBTMSHI", "LAB RESULT/UPPER LIMIT OF NORMAL", "0.4", "DERIVED", "CLINICAL STUDY SPONSOR"], ["CDISCPILOT01", "LB", "01-701-1047", "LBSEQ", "88", "ENDPOINT", "ENDPOINT VALUE FLAG", "Y", "DERIVED", "CLINICAL STUDY SPONSOR"], ["CDISCPILOT01", "LB", "01-701-1047", "LBSEQ", "88", "LBTMSHI", "LAB RESULT/UPPER LIMIT OF NORMAL", "0.8", "DERIVED", "CLINICAL STUDY SPONSOR"], ["CDISCPILOT01", "LB", "01-701-1047", "LBSEQ", "89", "ENDPOINT", "ENDPOINT VALUE FLAG", "Y", "DERIVED", "CLINICAL STUDY SPONSOR"], ["CDISCPILOT01", "LB", "01-701-1047", "LBSEQ", "89", "LBTMSHI", "LAB RESULT/UPPER LIMIT OF NORMAL", "0.9", "DERIVED", "CLINICAL STUDY SPONSOR"], ["CDISCPILOT01", "LB", "01-701-1047", "LBSEQ", "91", "ENDPOINT", "ENDPOINT VALUE FLAG", "Y", "DERIVED", "CLINICAL STUDY SPONSOR"], ["CDISCPILOT01", "LB", "01-701-1047", "LBSEQ", "91", "LBTMSHI", "LAB RESULT/UPPER LIMIT OF NORMAL", "0.7", "DERIVED", "CLINICAL STUDY SPONSOR"], ["CDISCPILOT01", "LB", "01-701-1047", "LBSEQ", "92", "ENDPOINT", "ENDPOINT VALUE FLAG", "Y", "DERIVED", "CLINICAL STUDY SPONSOR"], ["CDISCPILOT01", "LB", "01-701-1047", "LBSEQ", "92", "LBTMSHI", "LAB RESULT/UPPER LIMIT OF NORMAL", "0.9", "DERIVED", "CLINICAL STUDY SPONSOR"], ["CDISCPILOT01", "LB", "01-701-1047", "LBSEQ", "93", "ENDPOINT", "ENDPOINT VALUE FLAG", "Y", "DERIVED", "CLINICAL STUDY SPONSOR"], ["CDISCPILOT01", "LB", "01-701-1047", "LBSEQ", "93", "LBTMSHI", "LAB RESULT/UPPER LIMIT OF NORMAL", "0.9", "DERIVED", "CLINICAL STUDY SPONSOR"], ["CDISCPILOT01", "LB", "01-701-1047", "LBSEQ", "94", "ENDPOINT", "ENDPOINT VALUE FLAG", "Y", "DERIVED", "CLINICAL STUDY SPONSOR"], ["CDISCPILOT01", "LB", "01-701-1047", "LBSEQ", "94", "LBTMSHI", "LAB RESULT/UPPER LIMIT OF NORMAL", "0.9", "DERIVED", "CLINICAL STUDY SPONSOR"], ["CDISCPILOT01", "LB", "01-701-1047", "LBSEQ", "95", "ENDPOINT", "ENDPOINT VALUE FLAG", "Y", "DERIVED", "CLINICAL STUDY SPONSOR"], ["CDISCPILOT01", "LB", "01-701-1047", "LBSEQ", "95", "LBTMSHI", "LAB RESULT/UPPER LIMIT OF NORMAL", "0.4", "DERIVED", "CLINICAL STUDY SPONSOR"], ["CDISCPILOT01", "LB", "01-701-1047", "LBSEQ", "98", "ENDPOINT", "ENDPOINT VALUE FLAG", "Y", "DERIVED", "CLINICAL STUDY SPONSOR"], ["CDISCPILOT01", "LB", "01-701-1047", "LBSEQ", "98", "LBTMSHI", "LAB RESULT/UPPER LIMIT OF NORMAL", "0.6", "DERIVED", "CLINICAL STUDY SPONSOR"], ["CDISCPILOT01", "LB", "01-701-1047", "LBSEQ", "100", "ENDPOINT", "ENDPOINT VALUE FLAG", "Y", "DERIVED", "CLINICAL STUDY SPONSOR"], ["CDISCPILOT01", "LB", "01-701-1047", "LBSEQ", "100", "LBTMSHI", "LAB RESULT/UPPER LIMIT OF NORMAL", "0.8", "DERIVED", "CLINICAL STUDY SPONSOR"], ["CDISCPILOT01", "LB", "01-701-1047", "LBSEQ", "102", "ENDPOINT", "ENDPOINT VALUE FLAG", "Y", "DERIVED", "CLINICAL STUDY SPONSOR"], ["CDISCPILOT01", "LB", "01-701-1047", "LBSEQ", "102", "LBTMSHI", "LAB RESULT/UPPER LIMIT OF NORMAL", "0.5", "DERIVED", "CLINICAL STUDY SPONSOR"], ["CDISCPILOT01", "LB", "01-701-1047", "LBSEQ", "103", "LBTMSHI", "LAB RESULT/UPPER LIMIT OF NORMAL", "0.2", "DERIVED", "CLINICAL STUDY SPONSOR"], ["CDISCPILOT01", "LB", "01-701-1047", "LBSEQ", "105", "LBTMSHI", "LAB RESULT/UPPER LIMIT OF NORMAL", "0.4", "DERIVED", "CLINICAL STUDY SPONSOR"], ["CDISCPILOT01", "LB", "01-701-1047", "LBSEQ", "106", "LBTMSHI", "LAB RESULT/UPPER LIMIT OF NORMAL", "0.8", "DERIVED", "CLINICAL STUDY SPONSOR"], ["CDISCPILOT01", "LB", "01-701-1047", "LBSEQ", "107", "LBTMSHI", "LAB RESULT/UPPER LIMIT OF NORMAL", "0.8", "DERIVED", "CLINICAL STUDY SPONSOR"], ["CDISCPILOT01", "LB", "01-701-1047", "LBSEQ", "109", "LBTMSHI", "LAB RESULT/UPPER LIMIT OF NORMAL", "0.6", "DERIVED", "CLINICAL STUDY SPONSOR"], ["CDISCPILOT01", "LB", "01-701-1047", "LBSEQ", "110", "LBTMSHI", "LAB RESULT/UPPER LIMIT OF NORMAL", "0.9", "DERIVED", "CLINICAL STUDY SPONSOR"], ["CDISCPILOT01", "LB", "01-701-1047", "LBSEQ", "111", "LBTMSHI", "LAB RESULT/UPPER LIMIT OF NORMAL", "0.9", "DERIVED", "CLINICAL STUDY SPONSOR"], ["CDISCPILOT01", "LB", "01-701-1047", "LBSEQ", "112", "LBTMSHI", "LAB RESULT/UPPER LIMIT OF NORMAL", "1.0", "DERIVED", "CLINICAL STUDY SPONSOR"], ["CDISCPILOT01", "LB", "01-701-1047", "LBSEQ", "113", "LBTMSHI", "LAB RESULT/UPPER LIMIT OF NORMAL", "0.5", "DERIVED", "CLINICAL STUDY SPONSOR"], ["CDISCPILOT01", "LB", "01-701-1047", "LBSEQ", "115", "LBTMSHI", "LAB RESULT/UPPER LIMIT OF NORMAL", "0.5", "DERIVED", "CLINICAL STUDY SPONSOR"], ["CDISCPILOT01", "LB", "01-701-1047", "LBSEQ", "116", "LBTMSHI", "LAB RESULT/UPPER LIMIT OF NORMAL", "0.8", "DERIVED", "CLINICAL STUDY SPONSOR"], ["CDISCPILOT01", "LB", "01-701-1047", "LBSEQ", "119", "LBTMSHI", "LAB RESULT/UPPER LIMIT OF NORMAL", "0.7", "DERIVED", "CLINICAL STUDY SPONSOR"], ["CDISCPILOT01", "LB", "01-701-1097", "LBSEQ", "5", "LBTMSHI", "LAB RESULT/UPPER LIMIT OF NORMAL", "0.3", "DERIVED", "CLINICAL STUDY SPONSOR"], ["CDISCPILOT01", "LB", "01-701-1097", "LBSEQ", "14", "LBTMSHI", "LAB RESULT/UPPER LIMIT OF NORMAL", "0.1", "DERIVED", "CLINICAL STUDY SPONSOR"], ["CDISCPILOT01", "LB", "01-701-1097", "LBSEQ", "17", "LBTMSHI", "LAB RESULT/UPPER LIMIT OF NORMAL", "0.8", "DERIVED", "CLINICAL STUDY SPONSOR"], ["CDISCPILOT01", "LB", "01-701-1097", "LBSEQ", "18", "LBTMSHI", "LAB RESULT/UPPER LIMIT OF NORMAL", "0.9", "DERIVED", "CLINICAL STUDY SPONSOR"], ["CDISCPILOT01", "LB", "01-701-1097", "LBSEQ", "21", "LBTMSHI", "LAB RESULT/UPPER LIMIT OF NORMAL", "0.7", "DERIVED", "CLINICAL STUDY SPONSOR"], ["CDISCPILOT01", "LB", "01-701-1097", "LBSEQ", "22", "LBTMSHI", "LAB RESULT/UPPER LIMIT OF NORMAL", "1.0", "DERIVED", "CLINICAL STUDY SPONSOR"], ["CDISCPILOT01", "LB", "01-701-1097", "LBSEQ", "23", "LBTMSHI", "LAB RESULT/UPPER LIMIT OF NORMAL", "0.9", "DERIVED", "CLINICAL STUDY SPONSOR"], ["CDISCPILOT01", "LB", "01-701-1097", "LBSEQ", "24", "LBTMSHI", "LAB RESULT/UPPER LIMIT OF NORMAL", "0.9", "DERIVED", "CLINICAL STUDY SPONSOR"], ["CDISCPILOT01", "LB", "01-701-1097", "LBSEQ", "25", "LBTMSHI", "LAB RESULT/UPPER LIMIT OF NORMAL", "0.5", "DERIVED", "CLINICAL STUDY SPONSOR"], ["CDISCPILOT01", "LB", "01-701-1097", "LBSEQ", "29", "LBTMSHI", "LAB RESULT/UPPER LIMIT OF NORMAL", "0.7", "DERIVED", "CLINICAL STUDY SPONSOR"], ["CDISCPILOT01", "LB", "01-701-1097", "LBSEQ", "31", "LBTMSHI", "LAB RESULT/UPPER LIMIT OF NORMAL", "0.8", "DERIVED", "CLINICAL STUDY SPONSOR"], ["CDISCPILOT01", "LB", "01-701-1097", "LBSEQ", "37", "LBTMSHI", "LAB RESULT/UPPER LIMIT OF NORMAL", "0.8", "DERIVED", "CLINICAL STUDY SPONSOR"], ["CDISCPILOT01", "LB", "01-701-1097", "LBSEQ", "42", "LBTMSHI", "LAB RESULT/UPPER LIMIT OF NORMAL", "0.3", "DERIVED", "CLINICAL STUDY SPONSOR"], ["CDISCPILOT01", "LB", "01-701-1097", "LBSEQ", "51", "LBTMSHI", "LAB RESULT/UPPER LIMIT OF NORMAL", "0.1", "DERIVED", "CLINICAL STUDY SPONSOR"], ["CDISCPILOT01", "LB", "01-701-1097", "LBSEQ", "54", "LBTMSHI", "LAB RESULT/UPPER LIMIT OF NORMAL", "0.7", "DERIVED", "CLINICAL STUDY SPONSOR"], ["CDISCPILOT01", "LB", "01-701-1097", "LBSEQ", "55", "LBTMSHI", "LAB RESULT/UPPER LIMIT OF NORMAL", "0.8", "DERIVED", "CLINICAL STUDY SPONSOR"], ["CDISCPILOT01", "LB", "01-701-1097", "LBSEQ", "58", "LBTMSHI", "LAB RESULT/UPPER LIMIT OF NORMAL", "0.9", "DERIVED", "CLINICAL STUDY SPONSOR"], ["CDISCPILOT01", "LB", "01-701-1097", "LBSEQ", "59", "LBTMSHI", "LAB RESULT/UPPER LIMIT OF NORMAL", "1.0", "DERIVED", "CLINICAL STUDY SPONSOR"], ["CDISCPILOT01", "LB", "01-701-1097", "LBSEQ", "60", "LBTMSHI", "LAB RESULT/UPPER LIMIT OF NORMAL", "0.9", "DERIVED", "CLINICAL STUDY SPONSOR"], ["CDISCPILOT01", "LB", "01-701-1097", "LBSEQ", "61", "LBTMSHI", "LAB RESULT/UPPER LIMIT OF NORMAL", "0.9", "DERIVED", "CLINICAL STUDY SPONSOR"], ["CDISCPILOT01", "LB", "01-701-1097", "LBSEQ", "62", "LBTMSHI", "LAB RESULT/UPPER LIMIT OF NORMAL", "0.7", "DERIVED", "CLINICAL STUDY SPONSOR"], ["CDISCPILOT01", "LB", "01-701-1097", "LBSEQ", "66", "LBTMSHI", "LAB RESULT/UPPER LIMIT OF NORMAL", "0.6", "DERIVED", "CLINICAL STUDY SPONSOR"], ["CDISCPILOT01", "LB", "01-701-1097", "LBSEQ", "68", "LBTMSHI", "LAB RESULT/UPPER LIMIT OF NORMAL", "0.8", "DERIVED", "CLINICAL STUDY SPONSOR"], ["CDISCPILOT01", "LB", "01-701-1097", "LBSEQ", "72", "LBTMSHI", "LAB RESULT/UPPER LIMIT OF NORMAL", "0.9", "DERIVED", "CLINICAL STUDY SPONSOR"], ["CDISCPILOT01", "LB", "01-701-1097", "LBSEQ", "77", "LBTMSHI", "LAB RESULT/UPPER LIMIT OF NORMAL", "0.3", "DERIVED", "CLINICAL STUDY SPONSOR"], ["CDISCPILOT01", "LB", "01-701-1097", "LBSEQ", "85", "LBTMSHI", "LAB RESULT/UPPER LIMIT OF NORMAL", "0.5", "DERIVED", "CLINICAL STUDY SPONSOR"], ["CDISCPILOT01", "LB", "01-701-1097", "LBSEQ", "88", "LBTMSHI", "LAB RESULT/UPPER LIMIT OF NORMAL", "0.8", "DERIVED", "CLINICAL STUDY SPONSOR"], ["CDISCPILOT01", "LB", "01-701-1097", "LBSEQ", "89", "LBTMSHI", "LAB RESULT/UPPER LIMIT OF NORMAL", "0.8", "DERIVED", "CLINICAL STUDY SPONSOR"], ["CDISCPILOT01", "LB", "01-701-1097", "LBSEQ", "91", "LBTMSHI", "LAB RESULT/UPPER LIMIT OF NORMAL", "1.0", "DERIVED", "CLINICAL STUDY SPONSOR"], ["CDISCPILOT01", "LB", "01-701-1097", "LBSEQ", "92", "LBTMSHI", "LAB RESULT/UPPER LIMIT OF NORMAL", "1.0", "DERIVED", "CLINICAL STUDY SPONSOR"], ["CDISCPILOT01", "LB", "01-701-1097", "LBSEQ", "93", "LBTMSHI", "LAB RESULT/UPPER LIMIT OF NORMAL", "0.9", "DERIVED", "CLINICAL STUDY SPONSOR"], ["CDISCPILOT01", "LB", "01-701-1097", "LBSEQ", "94", "LBTMSHI", "LAB RESULT/UPPER LIMIT OF NORMAL", "0.9", "DERIVED", "CLINICAL STUDY SPONSOR"], ["CDISCPILOT01", "LB", "01-701-1097", "LBSEQ", "95", "LBTMSHI", "LAB RESULT/UPPER LIMIT OF NORMAL", "0.6", "DERIVED", "CLINICAL STUDY SPONSOR"], ["CDISCPILOT01", "LB", "01-701-1097", "LBSEQ", "98", "LBTMSHI", "LAB RESULT/UPPER LIMIT OF NORMAL", "0.7", "DERIVED", "CLINICAL STUDY SPONSOR"], ["CDISCPILOT01", "LB", "01-701-1097", "LBSEQ", "100", "LBTMSHI", "LAB RESULT/UPPER LIMIT OF NORMAL", "0.7", "DERIVED", "CLINICAL STUDY SPONSOR"], ["CDISCPILOT01", "LB", "01-701-1097", "LBSEQ", "102", "LBTMSHI", "LAB RESULT/UPPER LIMIT OF NORMAL", "1.0", "DERIVED", "CLINICAL STUDY SPONSOR"], ["CDISCPILOT01", "LB", "01-701-1097", "LBSEQ", "107", "LBTMSHI", "LAB RESULT/UPPER LIMIT OF NORMAL", "0.4", "DERIVED", "CLINICAL STUDY SPONSOR"], ["CDISCPILOT01", "LB", "01-701-1097", "LBSEQ", "115", "LBTMSHI", "LAB RESULT/UPPER LIMIT OF NORMAL", "0.7", "DERIVED", "CLINICAL STUDY SPONSOR"], ["CDISCPILOT01", "LB", "01-701-1097", "LBSEQ", "118", "LBTMSHI", "LAB RESULT/UPPER LIMIT OF NORMAL", "0.8", "DERIVED", "CLINICAL STUDY SPONSOR"], ["CDISCPILOT01", "LB", "01-701-1097", "LBSEQ", "119", "LBTMSHI", "LAB RESULT/UPPER LIMIT OF NORMAL", "0.8", "DERIVED", "CLINICAL STUDY SPONSOR"], ["CDISCPILOT01", "LB", "01-701-1097", "LBSEQ", "121", "LBTMSHI", "LAB RESULT/UPPER LIMIT OF NORMAL", "0.8", "DERIVED", "CLINICAL STUDY SPONSOR"], ["CDISCPILOT01", "LB", "01-701-1097", "LBSEQ", "122", "LBTMSHI", "LAB RESULT/UPPER LIMIT OF NORMAL", "0.9", "DERIVED", "CLINICAL STUDY SPONSOR"], ["CDISCPILOT01", "LB", "01-701-1097", "LBSEQ", "123", "LBTMSHI", "LAB RESULT/UPPER LIMIT OF NORMAL", "0.9", "DERIVED", "CLINICAL STUDY SPONSOR"], ["CDISCPILOT01", "LB", "01-701-1097", "LBSEQ", "124", "LBTMSHI", "LAB RESULT/UPPER LIMIT OF NORMAL", "1.0", "DERIVED", "CLINICAL STUDY SPONSOR"], ["CDISCPILOT01", "LB", "01-701-1097", "LBSEQ", "125", "LBTMSHI", "LAB RESULT/UPPER LIMIT OF NORMAL", "0.7", "DERIVED", "CLINICAL STUDY SPONSOR"], ["CDISCPILOT01", "LB", "01-701-1097", "LBSEQ", "128", "LBTMSHI", "LAB RESULT/UPPER LIMIT OF NORMAL", "0.7", "DERIVED", "CLINICAL STUDY SPONSOR"], ["CDISCPILOT01", "LB", "01-701-1097", "LBSEQ", "130", "LBTMSHI", "LAB RESULT/UPPER LIMIT OF NORMAL", "0.7", "DERIVED", "CLINICAL STUDY SPONSOR"], ["CDISCPILOT01", "LB", "01-701-1097", "LBSEQ", "132", "LBTMSHI", "LAB RESULT/UPPER LIMIT OF NORMAL", "0.9", "DERIVED", "CLINICAL STUDY SPONSOR"], ["CDISCPILOT01", "LB", "01-701-1097", "LBSEQ", "137", "LBTMSHI", "LAB RESULT/UPPER LIMIT OF NORMAL", "0.4", "DERIVED", "CLINICAL STUDY SPONSOR"], ["CDISCPILOT01", "LB", "01-701-1097", "LBSEQ", "145", "LBTMSHI", "LAB RESULT/UPPER LIMIT OF NORMAL", "1.6", "DERIVED", "CLINICAL STUDY SPONSOR"], ["CDISCPILOT01", "LB", "01-701-1097", "LBSEQ", "148", "LBTMSHI", "LAB RESULT/UPPER LIMIT OF NORMAL", "0.8", "DERIVED", "CLINICAL STUDY SPONSOR"], ["CDISCPILOT01", "LB", "01-701-1097", "LBSEQ", "149", "LBTMSHI", "LAB RESULT/UPPER LIMIT OF NORMAL", "0.9", "DERIVED", "CLINICAL STUDY SPONSOR"], ["CDISCPILOT01", "LB", "01-701-1097", "LBSEQ", "151", "LBTMSHI", "LAB RESULT/UPPER LIMIT OF NORMAL", "0.7", "DERIVED", "CLINICAL STUDY SPONSOR"], ["CDISCPILOT01", "LB", "01-701-1097", "LBSEQ", "152", "LBTMSHI", "LAB RESULT/UPPER LIMIT OF NORMAL", "1.0", "DERIVED", "CLINICAL STUDY SPONSOR"], ["CDISCPILOT01", "LB", "01-701-1097", "LBSEQ", "153", "LBTMSHI", "LAB RESULT/UPPER LIMIT OF NORMAL", "0.9", "DERIVED", "CLINICAL STUDY SPONSOR"], ["CDISCPILOT01", "LB", "01-701-1097", "LBSEQ", "154", "LBTMSHI", "LAB RESULT/UPPER LIMIT OF NORMAL", "1.0", "DERIVED", "CLINICAL STUDY SPONSOR"], ["CDISCPILOT01", "LB", "01-701-1097", "LBSEQ", "155", "LBTMSHI", "LAB RESULT/UPPER LIMIT OF NORMAL", "0.7", "DERIVED", "CLINICAL STUDY SPONSOR"], ["CDISCPILOT01", "LB", "01-701-1097", "LBSEQ", "158", "LBTMSHI", "LAB RESULT/UPPER LIMIT OF NORMAL", "0.7", "DERIVED", "CLINICAL STUDY SPONSOR"], ["CDISCPILOT01", "LB", "01-701-1097", "LBSEQ", "160", "LBTMSHI", "LAB RESULT/UPPER LIMIT OF NORMAL", "0.8", "DERIVED", "CLINICAL STUDY SPONSOR"], ["CDISCPILOT01", "LB", "01-701-1097", "LBSEQ", "162", "LBTMSHI", "LAB RESULT/UPPER LIMIT OF NORMAL", "0.9", "DERIVED", "CLINICAL STUDY SPONSOR"], ["CDISCPILOT01", "LB", "01-701-1097", "LBSEQ", "167", "LBTMSHI", "LAB RESULT/UPPER LIMIT OF NORMAL", "0.3", "DERIVED", "CLINICAL STUDY SPONSOR"], ["CDISCPILOT01", "LB", "01-701-1097", "LBSEQ", "176", "LBTMSHI", "LAB RESULT/UPPER LIMIT OF NORMAL", "1.5", "DERIVED", "CLINICAL STUDY SPONSOR"], ["CDISCPILOT01", "LB", "01-701-1097", "LBSEQ", "179", "LBTMSHI", "LAB RESULT/UPPER LIMIT OF NORMAL", "0.8", "DERIVED", "CLINICAL STUDY SPONSOR"], ["CDISCPILOT01", "LB", "01-701-1097", "LBSEQ", "180", "LBTMSHI", "LAB RESULT/UPPER LIMIT OF NORMAL", "0.9", "DERIVED", "CLINICAL STUDY SPONSOR"], ["CDISCPILOT01", "LB", "01-701-1097", "LBSEQ", "183", "LBTMSHI", "LAB RESULT/UPPER LIMIT OF NORMAL", "0.8", "DERIVED", "CLINICAL STUDY SPONSOR"], ["CDISCPILOT01", "LB", "01-701-1097", "LBSEQ", "184", "LBTMSHI", "LAB RESULT/UPPER LIMIT OF NORMAL", "1.0", "DERIVED", "CLINICAL STUDY SPONSOR"], ["CDISCPILOT01", "LB", "01-701-1097", "LBSEQ", "185", "LBTMSHI", "LAB RESULT/UPPER LIMIT OF NORMAL", "0.9", "DERIVED", "CLINICAL STUDY SPONSOR"], ["CDISCPILOT01", "LB", "01-701-1097", "LBSEQ", "186", "LBTMSHI", "LAB RESULT/UPPER LIMIT OF NORMAL", "1.0", "DERIVED", "CLINICAL STUDY SPONSOR"], ["CDISCPILOT01", "LB", "01-701-1097", "LBSEQ", "187", "LBTMSHI", "LAB RESULT/UPPER LIMIT OF NORMAL", "0.8", "DERIVED", "CLINICAL STUDY SPONSOR"], ["CDISCPILOT01", "LB", "01-701-1097", "LBSEQ", "191", "LBTMSHI", "LAB RESULT/UPPER LIMIT OF NORMAL", "0.7", "DERIVED", "CLINICAL STUDY SPONSOR"], ["CDISCPILOT01", "LB", "01-701-1097", "LBSEQ", "193", "LBTMSHI", "LAB RESULT/UPPER LIMIT OF NORMAL", "0.8", "DERIVED", "CLINICAL STUDY SPONSOR"], ["CDISCPILOT01", "LB", "01-701-1097", "LBSEQ", "197", "LBTMSHI", "LAB RESULT/UPPER LIMIT OF NORMAL", "0.9", "DERIVED", "CLINICAL STUDY SPONSOR"], ["CDISCPILOT01", "LB", "01-701-1097", "LBSEQ", "202", "LBTMSHI", "LAB RESULT/UPPER LIMIT OF NORMAL", "0.4", "DERIVED", "CLINICAL STUDY SPONSOR"], ["CDISCPILOT01", "LB", "01-701-1097", "LBSEQ", "210", "LBTMSHI", "LAB RESULT/UPPER LIMIT OF NORMAL", "0.8", "DERIVED", "CLINICAL STUDY SPONSOR"], ["CDISCPILOT01", "LB", "01-701-1097", "LBSEQ", "213", "LBTMSHI", "LAB RESULT/UPPER LIMIT OF NORMAL", "0.8", "DERIVED", "CLINICAL STUDY SPONSOR"], ["CDISCPILOT01", "LB", "01-701-1097", "LBSEQ", "214", "LBTMSHI", "LAB RESULT/UPPER LIMIT OF NORMAL", "0.8", "DERIVED", "CLINICAL STUDY SPONSOR"], ["CDISCPILOT01", "LB", "01-701-1097", "LBSEQ", "216", "LBTMSHI", "LAB RESULT/UPPER LIMIT OF NORMAL", "0.8", "DERIVED", "CLINICAL STUDY SPONSOR"], ["CDISCPILOT01", "LB", "01-701-1097", "LBSEQ", "217", "LBTMSHI", "LAB RESULT/UPPER LIMIT OF NORMAL", "0.9", "DERIVED", "CLINICAL STUDY SPONSOR"], ["CDISCPILOT01", "LB", "01-701-1097", "LBSEQ", "218", "LBTMSHI", "LAB RESULT/UPPER LIMIT OF NORMAL", "0.9", "DERIVED", "CLINICAL STUDY SPONSOR"], ["CDISCPILOT01", "LB", "01-701-1097", "LBSEQ", "219", "LBTMSHI", "LAB RESULT/UPPER LIMIT OF NORMAL", "1.0", "DERIVED", "CLINICAL STUDY SPONSOR"], ["CDISCPILOT01", "LB", "01-701-1097", "LBSEQ", "220", "LBTMSHI", "LAB RESULT/UPPER LIMIT OF NORMAL", "0.7", "DERIVED", "CLINICAL STUDY SPONSOR"], ["CDISCPILOT01", "LB", "01-701-1097", "LBSEQ", "223", "LBTMSHI", "LAB RESULT/UPPER LIMIT OF NORMAL", "0.7", "DERIVED", "CLINICAL STUDY SPONSOR"], ["CDISCPILOT01", "LB", "01-701-1097", "LBSEQ", "225", "LBTMSHI", "LAB RESULT/UPPER LIMIT OF NORMAL", "0.7", "DERIVED", "CLINICAL STUDY SPONSOR"], ["CDISCPILOT01", "LB", "01-701-1097", "LBSEQ", "227", "LBTMSHI", "LAB RESULT/UPPER LIMIT OF NORMAL", "1.0", "DERIVED", "CLINICAL STUDY SPONSOR"], ["CDISCPILOT01", "LB", "01-701-1097", "LBSEQ", "232", "LBTMSHI", "LAB RESULT/UPPER LIMIT OF NORMAL", "0.2", "DERIVED", "CLINICAL STUDY SPONSOR"], ["CDISCPILOT01", "LB", "01-701-1097", "LBSEQ", "240", "LBTMSHI", "LAB RESULT/UPPER LIMIT OF NORMAL", "1.0", "DERIVED", "CLINICAL STUDY SPONSOR"], ["CDISCPILOT01", "LB", "01-701-1097", "LBSEQ", "243", "LBTMSHI", "LAB RESULT/UPPER LIMIT OF NORMAL", "0.8", "DERIVED", "CLINICAL STUDY SPONSOR"], ["CDISCPILOT01", "LB", "01-701-1097", "LBSEQ", "244", "LBTMSHI", "LAB RESULT/UPPER LIMIT OF NORMAL", "0.8", "DERIVED", "CLINICAL STUDY SPONSOR"], ["CDISCPILOT01", "LB", "01-701-1097", "LBSEQ", "246", "LBTMSHI", "LAB RESULT/UPPER LIMIT OF NORMAL", "0.7", "DERIVED", "CLINICAL STUDY SPONSOR"], ["CDISCPILOT01", "LB", "01-701-1097", "LBSEQ", "247", "LBTMSHI", "LAB RESULT/UPPER LIMIT OF NORMAL", "1.0", "DERIVED", "CLINICAL STUDY SPONSOR"], ["CDISCPILOT01", "LB", "01-701-1097", "LBSEQ", "248", "LBTMSHI", "LAB RESULT/UPPER LIMIT OF NORMAL", "0.9", "DERIVED", "CLINICAL STUDY SPONSOR"], ["CDISCPILOT01", "LB", "01-701-1097", "LBSEQ", "249", "LBTMSHI", "LAB RESULT/UPPER LIMIT OF NORMAL", "0.9", "DERIVED", "CLINICAL STUDY SPONSOR"], ["CDISCPILOT01", "LB", "01-701-1097", "LBSEQ", "250", "LBTMSHI", "LAB RESULT/UPPER LIMIT OF NORMAL", "0.6", "DERIVED", "CLINICAL STUDY SPONSOR"], ["CDISCPILOT01", "LB", "01-701-1097", "LBSEQ", "253", "LBTMSHI", "LAB RESULT/UPPER LIMIT OF NORMAL", "0.6", "DERIVED", "CLINICAL STUDY SPONSOR"], ["CDISCPILOT01", "LB", "01-701-1097", "LBSEQ", "255", "LBTMSHI", "LAB RESULT/UPPER LIMIT OF NORMAL", "0.7", "DERIVED", "CLINICAL STUDY SPONSOR"], ["CDISCPILOT01", "LB", "01-701-1097", "LBSEQ", "257", "LBTMSHI", "LAB RESULT/UPPER LIMIT OF NORMAL", "0.8", "DERIVED", "CLINICAL STUDY SPONSOR"], ["CDISCPILOT01", "LB", "01-701-1097", "LBSEQ", "262", "ENDPOINT", "ENDPOINT VALUE FLAG", "Y", "DERIVED", "CLINICAL STUDY SPONSOR"], ["CDISCPILOT01", "LB", "01-701-1097", "LBSEQ", "262", "LBTMSHI", "LAB RESULT/UPPER LIMIT OF NORMAL", "0.3", "DERIVED", "CLINICAL STUDY SPONSOR"], ["CDISCPILOT01", "LB", "01-701-1097", "LBSEQ", "271", "ENDPOINT", "ENDPOINT VALUE FLAG", "Y", "DERIVED", "CLINICAL STUDY SPONSOR"], ["CDISCPILOT01", "LB", "01-701-1097", "LBSEQ", "271", "LBTMSHI", "LAB RESULT/UPPER LIMIT OF NORMAL", "0.4", "DERIVED", "CLINICAL STUDY SPONSOR"], ["CDISCPILOT01", "LB", "01-701-1097", "LBSEQ", "274", "ENDPOINT", "ENDPOINT VALUE FLAG", "Y", "DERIVED", "CLINICAL STUDY SPONSOR"], ["CDISCPILOT01", "LB", "01-701-1097", "LBSEQ", "274", "LBTMSHI", "LAB RESULT/UPPER LIMIT OF NORMAL", "0.8", "DERIVED", "CLINICAL STUDY SPONSOR"], ["CDISCPILOT01", "LB", "01-701-1097", "LBSEQ", "275", "ENDPOINT", "ENDPOINT VALUE FLAG", "Y", "DERIVED", "CLINICAL STUDY SPONSOR"], ["CDISCPILOT01", "LB", "01-701-1097", "LBSEQ", "275", "LBTMSHI", "LAB RESULT/UPPER LIMIT OF NORMAL", "0.9", "DERIVED", "CLINICAL STUDY SPONSOR"], ["CDISCPILOT01", "LB", "01-701-1097", "LBSEQ", "278", "ENDPOINT", "ENDPOINT VALUE FLAG", "Y", "DERIVED", "CLINICAL STUDY SPONSOR"], ["CDISCPILOT01", "LB", "01-701-1097", "LBSEQ", "278", "LBTMSHI", "LAB RESULT/UPPER LIMIT OF NORMAL", "0.7", "DERIVED", "CLINICAL STUDY SPONSOR"], ["CDISCPILOT01", "LB", "01-701-1097", "LBSEQ", "279", "ENDPOINT", "ENDPOINT VALUE FLAG", "Y", "DERIVED", "CLINICAL STUDY SPONSOR"], ["CDISCPILOT01", "LB", "01-701-1097", "LBSEQ", "279", "LBTMSHI", "LAB RESULT/UPPER LIMIT OF NORMAL", "1.0", "DERIVED", "CLINICAL STUDY SPONSOR"], ["CDISCPILOT01", "LB", "01-701-1097", "LBSEQ", "280", "ENDPOINT", "ENDPOINT VALUE FLAG", "Y", "DERIVED", "CLINICAL STUDY SPONSOR"], ["CDISCPILOT01", "LB", "01-701-1097", "LBSEQ", "280", "LBTMSHI", "LAB RESULT/UPPER LIMIT OF NORMAL", "0.9", "DERIVED", "CLINICAL STUDY SPONSOR"], ["CDISCPILOT01", "LB", "01-701-1097", "LBSEQ", "281", "ENDPOINT", "ENDPOINT VALUE FLAG", "Y", "DERIVED", "CLINICAL STUDY SPONSOR"], ["CDISCPILOT01", "LB", "01-701-1097", "LBSEQ", "281", "LBTMSHI", "LAB RESULT/UPPER LIMIT OF NORMAL", "0.9", "DERIVED", "CLINICAL STUDY SPONSOR"], ["CDISCPILOT01", "LB", "01-701-1097", "LBSEQ", "282", "ENDPOINT", "ENDPOINT VALUE FLAG", "Y", "DERIVED", "CLINICAL STUDY SPONSOR"], ["CDISCPILOT01", "LB", "01-701-1097", "LBSEQ", "282", "LBTMSHI", "LAB RESULT/UPPER LIMIT OF NORMAL", "0.6", "DERIVED", "CLINICAL STUDY SPONSOR"], ["CDISCPILOT01", "LB", "01-701-1097", "LBSEQ", "286", "ENDPOINT", "ENDPOINT VALUE FLAG", "Y", "DERIVED", "CLINICAL STUDY SPONSOR"], ["CDISCPILOT01", "LB", "01-701-1097", "LBSEQ", "286", "LBTMSHI", "LAB RESULT/UPPER LIMIT OF NORMAL", "0.6", "DERIVED", "CLINICAL STUDY SPONSOR"], ["CDISCPILOT01", "LB", "01-701-1097", "LBSEQ", "288", "ENDPOINT", "ENDPOINT VALUE FLAG", "Y", "DERIVED", "CLINICAL STUDY SPONSOR"], ["CDISCPILOT01", "LB", "01-701-1097", "LBSEQ", "288", "LBTMSHI", "LAB RESULT/UPPER LIMIT OF NORMAL", "0.7", "DERIVED", "CLINICAL STUDY SPONSOR"], ["CDISCPILOT01", "LB", "01-701-1097", "LBSEQ", "292", "ENDPOINT", "ENDPOINT VALUE FLAG", "Y", "DERIVED", "CLINICAL STUDY SPONSOR"], ["CDISCPILOT01", "LB", "01-701-1097", "LBSEQ", "292", "LBTMSHI", "LAB RESULT/UPPER LIMIT OF NORMAL", "0.9", "DERIVED", "CLINICAL STUDY SPONSOR"], ["CDISCPILOT01", "LB", "01-701-1097", "LBSEQ", "297", "LBTMSHI", "LAB RESULT/UPPER LIMIT OF NORMAL", "0.3", "DERIVED", "CLINICAL STUDY SPONSOR"], ["CDISCPILOT01", "LB", "01-701-1097", "LBSEQ", "306", "LBTMSHI", "LAB RESULT/UPPER LIMIT OF NORMAL", "0.5", "DERIVED", "CLINICAL STUDY SPONSOR"], ["CDISCPILOT01", "LB", "01-701-1097", "LBSEQ", "309", "LBTMSHI", "LAB RESULT/UPPER LIMIT OF NORMAL", "0.8", "DERIVED", "CLINICAL STUDY SPONSOR"], ["CDISCPILOT01", "LB", "01-701-1097", "LBSEQ", "310", "LBTMSHI", "LAB RESULT/UPPER LIMIT OF NORMAL", "0.8", "DERIVED", "CLINICAL STUDY SPONSOR"], ["CDISCPILOT01", "LB", "01-701-1097", "LBSEQ", "313", "LBTMSHI", "LAB RESULT/UPPER LIMIT OF NORMAL", "0.8", "DERIVED", "CLINICAL STUDY SPONSOR"], ["CDISCPILOT01", "LB", "01-701-1097", "LBSEQ", "314", "LBTMSHI", "LAB RESULT/UPPER LIMIT OF NORMAL", "1.0", "DERIVED", "CLINICAL STUDY SPONSOR"], ["CDISCPILOT01", "LB", "01-701-1097", "LBSEQ", "315", "LBTMSHI", "LAB RESULT/UPPER LIMIT OF NORMAL", "0.9", "DERIVED", "CLINICAL STUDY SPONSOR"], ["CDISCPILOT01", "LB", "01-701-1097", "LBSEQ", "316", "LBTMSHI", "LAB RESULT/UPPER LIMIT OF NORMAL", "0.9", "DERIVED", "CLINICAL STUDY SPONSOR"], ["CDISCPILOT01", "LB", "01-701-1097", "LBSEQ", "317", "LBTMSHI", "LAB RESULT/UPPER LIMIT OF NORMAL", "0.6", "DERIVED", "CLINICAL STUDY SPONSOR"], ["CDISCPILOT01", "LB", "01-701-1097", "LBSEQ", "321", "LBTMSHI", "LAB RESULT/UPPER LIMIT OF NORMAL", "0.7", "DERIVED", "CLINICAL STUDY SPONSOR"], ["CDISCPILOT01", "LB", "01-701-1097", "LBSEQ", "323", "LBTMSHI", "LAB RESULT/UPPER LIMIT OF NORMAL", "0.7", "DERIVED", "CLINICAL STUDY SPONSOR"], ["CDISCPILOT01", "LB", "01-701-1097", "LBSEQ", "327", "LBTMSHI", "LAB RESULT/UPPER LIMIT OF NORMAL", "0.8", "DERIVED", "CLINICAL STUDY SPONSOR"], ["CDISCPILOT01", "LB", "01-701-1111", "LBSEQ", "5", "LBTMSHI", "LAB RESULT/UPPER LIMIT OF NORMAL", "0.2", "DERIVED", "CLINICAL STUDY SPONSOR"], ["CDISCPILOT01", "LB", "01-701-1111", "LBSEQ", "14", "LBTMSHI", "LAB RESULT/UPPER LIMIT OF NORMAL", "0.1", "DERIVED", "CLINICAL STUDY SPONSOR"], ["CDISCPILOT01", "LB", "01-701-1111", "LBSEQ", "17", "LBTMSHI", "LAB RESULT/UPPER LIMIT OF NORMAL", "0.8", "DERIVED", "CLINICAL STUDY SPONSOR"], ["CDISCPILOT01", "LB", "01-701-1111", "LBSEQ", "18", "LBTMSHI", "LAB RESULT/UPPER LIMIT OF NORMAL", "0.8", "DERIVED", "CLINICAL STUDY SPONSOR"], ["CDISCPILOT01", "LB", "01-701-1111", "LBSEQ", "21", "LBTMSHI", "LAB RESULT/UPPER LIMIT OF NORMAL", "0.7", "DERIVED", "CLINICAL STUDY SPONSOR"], ["CDISCPILOT01", "LB", "01-701-1111", "LBSEQ", "22", "LBTMSHI", "LAB RESULT/UPPER LIMIT OF NORMAL", "0.9", "DERIVED", "CLINICAL STUDY SPONSOR"], ["CDISCPILOT01", "LB", "01-701-1111", "LBSEQ", "23", "LBTMSHI", "LAB RESULT/UPPER LIMIT OF NORMAL", "0.9", "DERIVED", "CLINICAL STUDY SPONSOR"], ["CDISCPILOT01", "LB", "01-701-1111", "LBSEQ", "24", "LBTMSHI", "LAB RESULT/UPPER LIMIT OF NORMAL", "1.0", "DERIVED", "CLINICAL STUDY SPONSOR"], ["CDISCPILOT01", "LB", "01-701-1111", "LBSEQ", "25", "LBTMSHI", "LAB RESULT/UPPER LIMIT OF NORMAL", "0.4", "DERIVED", "CLINICAL STUDY SPONSOR"], ["CDISCPILOT01", "LB", "01-701-1111", "LBSEQ", "29", "LBTMSHI", "LAB RESULT/UPPER LIMIT OF NORMAL", "0.6", "DERIVED", "CLINICAL STUDY SPONSOR"], ["CDISCPILOT01", "LB", "01-701-1111", "LBSEQ", "31", "LBTMSHI", "LAB RESULT/UPPER LIMIT OF NORMAL", "0.7", "DERIVED", "CLINICAL STUDY SPONSOR"], ["CDISCPILOT01", "LB", "01-701-1111", "LBSEQ", "37", "LBTMSHI", "LAB RESULT/UPPER LIMIT OF NORMAL", "0.4", "DERIVED", "CLINICAL STUDY SPONSOR"], ["CDISCPILOT01", "LB", "01-701-1111", "LBSEQ", "43", "ENDPOINT", "ENDPOINT VALUE FLAG", "Y", "DERIVED", "CLINICAL STUDY SPONSOR"], ["CDISCPILOT01", "LB", "01-701-1111", "LBSEQ", "43", "LBTMSHI", "LAB RESULT/UPPER LIMIT OF NORMAL", "0.2", "DERIVED", "CLINICAL STUDY SPONSOR"], ["CDISCPILOT01", "LB", "01-701-1111", "LBSEQ", "52", "ENDPOINT", "ENDPOINT VALUE FLAG", "Y", "DERIVED", "CLINICAL STUDY SPONSOR"], ["CDISCPILOT01", "LB", "01-701-1111", "LBSEQ", "52", "LBTMSHI", "LAB RESULT/UPPER LIMIT OF NORMAL", "0.1", "DERIVED", "CLINICAL STUDY SPONSOR"], ["CDISCPILOT01", "LB", "01-701-1111", "LBSEQ", "55", "ENDPOINT", "ENDPOINT VALUE FLAG", "Y", "DERIVED", "CLINICAL STUDY SPONSOR"], ["CDISCPILOT01", "LB", "01-701-1111", "LBSEQ", "55", "LBTMSHI", "LAB RESULT/UPPER LIMIT OF NORMAL", "0.8", "DERIVED", "CLINICAL STUDY SPONSOR"], ["CDISCPILOT01", "LB", "01-701-1111", "LBSEQ", "56", "ENDPOINT", "ENDPOINT VALUE FLAG", "Y", "DERIVED", "CLINICAL STUDY SPONSOR"], ["CDISCPILOT01", "LB", "01-701-1111", "LBSEQ", "56", "LBTMSHI", "LAB RESULT/UPPER LIMIT OF NORMAL", "0.8", "DERIVED", "CLINICAL STUDY SPONSOR"], ["CDISCPILOT01", "LB", "01-701-1111", "LBSEQ", "59", "ENDPOINT", "ENDPOINT VALUE FLAG", "Y", "DERIVED", "CLINICAL STUDY SPONSOR"], ["CDISCPILOT01", "LB", "01-701-1111", "LBSEQ", "59", "LBTMSHI", "LAB RESULT/UPPER LIMIT OF NORMAL", "0.3", "DERIVED", "CLINICAL STUDY SPONSOR"], ["CDISCPILOT01", "LB", "01-701-1111", "LBSEQ", "60", "ENDPOINT", "ENDPOINT VALUE FLAG", "Y", "DERIVED", "CLINICAL STUDY SPONSOR"], ["CDISCPILOT01", "LB", "01-701-1111", "LBSEQ", "60", "LBTMSHI", "LAB RESULT/UPPER LIMIT OF NORMAL", "1.0", "DERIVED", "CLINICAL STUDY SPONSOR"], ["CDISCPILOT01", "LB", "01-701-1111", "LBSEQ", "61", "ENDPOINT", "ENDPOINT VALUE FLAG", "Y", "DERIVED", "CLINICAL STUDY SPONSOR"], ["CDISCPILOT01", "LB", "01-701-1111", "LBSEQ", "61", "LBTMSHI", "LAB RESULT/UPPER LIMIT OF NORMAL", "0.9", "DERIVED", "CLINICAL STUDY SPONSOR"], ["CDISCPILOT01", "LB", "01-701-1111", "LBSEQ", "62", "ENDPOINT", "ENDPOINT VALUE FLAG", "Y", "DERIVED", "CLINICAL STUDY SPONSOR"], ["CDISCPILOT01", "LB", "01-701-1111", "LBSEQ", "62", "LBTMSHI", "LAB RESULT/UPPER LIMIT OF NORMAL", "1.0", "DERIVED", "CLINICAL STUDY SPONSOR"], ["CDISCPILOT01", "LB", "01-701-1111", "LBSEQ", "63", "ENDPOINT", "ENDPOINT VALUE FLAG", "Y", "DERIVED", "CLINICAL STUDY SPONSOR"], ["CDISCPILOT01", "LB", "01-701-1111", "LBSEQ", "63", "LBTMSHI", "LAB RESULT/UPPER LIMIT OF NORMAL", "0.4", "DERIVED", "CLINICAL STUDY SPONSOR"], ["CDISCPILOT01", "LB", "01-701-1111", "LBSEQ", "67", "ENDPOINT", "ENDPOINT VALUE FLAG", "Y", "DERIVED", "CLINICAL STUDY SPONSOR"], ["CDISCPILOT01", "LB", "01-701-1111", "LBSEQ", "67", "LBTMSHI", "LAB RESULT/UPPER LIMIT OF NORMAL", "0.5", "DERIVED", "CLINICAL STUDY SPONSOR"], ["CDISCPILOT01", "LB", "01-701-1111", "LBSEQ", "69", "ENDPOINT", "ENDPOINT VALUE FLAG", "Y", "DERIVED", "CLINICAL STUDY SPONSOR"], ["CDISCPILOT01", "LB", "01-701-1111", "LBSEQ", "69", "LBTMSHI", "LAB RESULT/UPPER LIMIT OF NORMAL", "0.7", "DERIVED", "CLINICAL STUDY SPONSOR"], ["CDISCPILOT01", "LB", "01-701-1111", "LBSEQ", "73", "ENDPOINT", "ENDPOINT VALUE FLAG", "Y", "DERIVED", "CLINICAL STUDY SPONSOR"], ["CDISCPILOT01", "LB", "01-701-1111", "LBSEQ", "73", "LBTMSHI", "LAB RESULT/UPPER LIMIT OF NORMAL", "0.6", "DERIVED", "CLINICAL STUDY SPONSOR"], ["CDISCPILOT01", "LB", "01-701-1115", "LBSEQ", "5", "LBTMSHI", "LAB RESULT/UPPER LIMIT OF NORMAL", "0.2", "DERIVED", "CLINICAL STUDY SPONSOR"], ["CDISCPILOT01", "LB", "01-701-1115", "LBSEQ", "14", "LBTMSHI", "LAB RESULT/UPPER LIMIT OF NORMAL", "0.1", "DERIVED", "CLINICAL STUDY SPONSOR"], ["CDISCPILOT01", "LB", "01-701-1115", "LBSEQ", "17", "LBTMSHI", "LAB RESULT/UPPER LIMIT OF NORMAL", "0.9", "DERIVED", "CLINICAL STUDY SPONSOR"], ["CDISCPILOT01", "LB", "01-701-1115", "LBSEQ", "18", "LBTMSHI", "LAB RESULT/UPPER LIMIT OF NORMAL", "0.9", "DERIVED", "CLINICAL STUDY SPONSOR"], ["CDISCPILOT01", "LB", "01-701-1115", "LBSEQ", "21", "LBTMSHI", "LAB RESULT/UPPER LIMIT OF NORMAL", "0.4", "DERIVED", "CLINICAL STUDY SPONSOR"], ["CDISCPILOT01", "LB", "01-701-1115", "LBSEQ", "22", "LBTMSHI", "LAB RESULT/UPPER LIMIT OF NORMAL", "0.9", "DERIVED", "CLINICAL STUDY SPONSOR"], ["CDISCPILOT01", "LB", "01-701-1115", "LBSEQ", "23", "LBTMSHI", "LAB RESULT/UPPER LIMIT OF NORMAL", "0.9", "DERIVED", "CLINICAL STUDY SPONSOR"], ["CDISCPILOT01", "LB", "01-701-1115", "LBSEQ", "24", "LBTMSHI", "LAB RESULT/UPPER LIMIT OF NORMAL", "0.9", "DERIVED", "CLINICAL STUDY SPONSOR"], ["CDISCPILOT01", "LB", "01-701-1115", "LBSEQ", "25", "LBTMSHI", "LAB RESULT/UPPER LIMIT OF NORMAL", "0.4", "DERIVED", "CLINICAL STUDY SPONSOR"], ["CDISCPILOT01", "LB", "01-701-1115", "LBSEQ", "29", "LBTMSHI", "LAB RESULT/UPPER LIMIT OF NORMAL", "0.4", "DERIVED", "CLINICAL STUDY SPONSOR"], ["CDISCPILOT01", "LB", "01-701-1115", "LBSEQ", "31", "LBTMSHI", "LAB RESULT/UPPER LIMIT OF NORMAL", "0.9", "DERIVED", "CLINICAL STUDY SPONSOR"], ["CDISCPILOT01", "LB", "01-701-1115", "LBSEQ", "37", "LBTMSHI", "LAB RESULT/UPPER LIMIT OF NORMAL", "0.5", "DERIVED", "CLINICAL STUDY SPONSOR"], ["CDISCPILOT01", "LB", "01-701-1115", "LBSEQ", "42", "LBTMSHI", "LAB RESULT/UPPER LIMIT OF NORMAL", "0.2", "DERIVED", "CLINICAL STUDY SPONSOR"], ["CDISCPILOT01", "LB", "01-701-1115", "LBSEQ", "51", "LBTMSHI", "LAB RESULT/UPPER LIMIT OF NORMAL", "0.1", "DERIVED", "CLINICAL STUDY SPONSOR"], ["CDISCPILOT01", "LB", "01-701-1115", "LBSEQ", "54", "LBTMSHI", "LAB RESULT/UPPER LIMIT OF NORMAL", "0.9", "DERIVED", "CLINICAL STUDY SPONSOR"], ["CDISCPILOT01", "LB", "01-701-1115", "LBSEQ", "55", "LBTMSHI", "LAB RESULT/UPPER LIMIT OF NORMAL", "0.9", "DERIVED", "CLINICAL STUDY SPONSOR"], ["CDISCPILOT01", "LB", "01-701-1115", "LBSEQ", "58", "LBTMSHI", "LAB RESULT/UPPER LIMIT OF NORMAL", "0.5", "DERIVED", "CLINICAL STUDY SPONSOR"], ["CDISCPILOT01", "LB", "01-701-1115", "LBSEQ", "59", "LBTMSHI", "LAB RESULT/UPPER LIMIT OF NORMAL", "0.9", "DERIVED", "CLINICAL STUDY SPONSOR"], ["CDISCPILOT01", "LB", "01-701-1115", "LBSEQ", "60", "LBTMSHI", "LAB RESULT/UPPER LIMIT OF NORMAL", "0.9", "DERIVED", "CLINICAL STUDY SPONSOR"], ["CDISCPILOT01", "LB", "01-701-1115", "LBSEQ", "61", "LBTMSHI", "LAB RESULT/UPPER LIMIT OF NORMAL", "1.0", "DERIVED", "CLINICAL STUDY SPONSOR"], ["CDISCPILOT01", "LB", "01-701-1115", "LBSEQ", "62", "LBTMSHI", "LAB RESULT/UPPER LIMIT OF NORMAL", "0.4", "DERIVED", "CLINICAL STUDY SPONSOR"], ["CDISCPILOT01", "LB", "01-701-1115", "LBSEQ", "66", "LBTMSHI", "LAB RESULT/UPPER LIMIT OF NORMAL", "0.5", "DERIVED", "CLINICAL STUDY SPONSOR"], ["CDISCPILOT01", "LB", "01-701-1115", "LBSEQ", "68", "LBTMSHI", "LAB RESULT/UPPER LIMIT OF NORMAL", "0.8", "DERIVED", "CLINICAL STUDY SPONSOR"], ["CDISCPILOT01", "LB", "01-701-1115", "LBSEQ", "72", "LBTMSHI", "LAB RESULT/UPPER LIMIT OF NORMAL", "0.4", "DERIVED", "CLINICAL STUDY SPONSOR"], ["CDISCPILOT01", "LB", "01-701-1115", "LBSEQ", "77", "LBTMSHI", "LAB RESULT/UPPER LIMIT OF NORMAL", "0.3", "DERIVED", "CLINICAL STUDY SPONSOR"], ["CDISCPILOT01", "LB", "01-701-1115", "LBSEQ", "85", "LBTMSHI", "LAB RESULT/UPPER LIMIT OF NORMAL", "0.1", "DERIVED", "CLINICAL STUDY SPONSOR"], ["CDISCPILOT01", "LB", "01-701-1115", "LBSEQ", "88", "LBTMSHI", "LAB RESULT/UPPER LIMIT OF NORMAL", "0.9", "DERIVED", "CLINICAL STUDY SPONSOR"], ["CDISCPILOT01", "LB", "01-701-1115", "LBSEQ", "89", "LBTMSHI", "LAB RESULT/UPPER LIMIT OF NORMAL", "0.9", "DERIVED", "CLINICAL STUDY SPONSOR"], ["CDISCPILOT01", "LB", "01-701-1115", "LBSEQ", "91", "LBTMSHI", "LAB RESULT/UPPER LIMIT OF NORMAL", "0.3", "DERIVED", "CLINICAL STUDY SPONSOR"], ["CDISCPILOT01", "LB", "01-701-1115", "LBSEQ", "92", "LBTMSHI", "LAB RESULT/UPPER LIMIT OF NORMAL", "0.9", "DERIVED", "CLINICAL STUDY SPONSOR"], ["CDISCPILOT01", "LB", "01-701-1115", "LBSEQ", "93", "LBTMSHI", "LAB RESULT/UPPER LIMIT OF NORMAL", "0.9", "DERIVED", "CLINICAL STUDY SPONSOR"], ["CDISCPILOT01", "LB", "01-701-1115", "LBSEQ", "94", "LBTMSHI", "LAB RESULT/UPPER LIMIT OF NORMAL", "1.0", "DERIVED", "CLINICAL STUDY SPONSOR"], ["CDISCPILOT01", "LB", "01-701-1115", "LBSEQ", "95", "LBTMSHI", "LAB RESULT/UPPER LIMIT OF NORMAL", "0.6", "DERIVED", "CLINICAL STUDY SPONSOR"], ["CDISCPILOT01", "LB", "01-701-1115", "LBSEQ", "98", "LBTMSHI", "LAB RESULT/UPPER LIMIT OF NORMAL", "0.5", "DERIVED", "CLINICAL STUDY SPONSOR"], ["CDISCPILOT01", "LB", "01-701-1115", "LBSEQ", "100", "LBTMSHI", "LAB RESULT/UPPER LIMIT OF NORMAL", "0.8", "DERIVED", "CLINICAL STUDY SPONSOR"], ["CDISCPILOT01", "LB", "01-701-1115", "LBSEQ", "102", "LBTMSHI", "LAB RESULT/UPPER LIMIT OF NORMAL", "0.5", "DERIVED", "CLINICAL STUDY SPONSOR"], ["CDISCPILOT01", "LB", "01-701-1115", "LBSEQ", "122", "LBTMSHI", "LAB RESULT/UPPER LIMIT OF NORMAL", "0.2", "DERIVED", "CLINICAL STUDY SPONSOR"], ["CDISCPILOT01", "LB", "01-701-1115", "LBSEQ", "130", "LBTMSHI", "LAB RESULT/UPPER LIMIT OF NORMAL", "0.3", "DERIVED", "CLINICAL STUDY SPONSOR"], ["CDISCPILOT01", "LB", "01-701-1115", "LBSEQ", "133", "LBTMSHI", "LAB RESULT/UPPER LIMIT OF NORMAL", "0.9", "DERIVED", "CLINICAL STUDY SPONSOR"], ["CDISCPILOT01", "LB", "01-701-1115", "LBSEQ", "134", "LBTMSHI", "LAB RESULT/UPPER LIMIT OF NORMAL", "0.9", "DERIVED", "CLINICAL STUDY SPONSOR"], ["CDISCPILOT01", "LB", "01-701-1115", "LBSEQ", "136", "LBTMSHI", "LAB RESULT/UPPER LIMIT OF NORMAL", "0.4", "DERIVED", "CLINICAL STUDY SPONSOR"], ["CDISCPILOT01", "LB", "01-701-1115", "LBSEQ", "137", "LBTMSHI", "LAB RESULT/UPPER LIMIT OF NORMAL", "0.9", "DERIVED", "CLINICAL STUDY SPONSOR"], ["CDISCPILOT01", "LB", "01-701-1115", "LBSEQ", "138", "LBTMSHI", "LAB RESULT/UPPER LIMIT OF NORMAL", "0.9", "DERIVED", "CLINICAL STUDY SPONSOR"], ["CDISCPILOT01", "LB", "01-701-1115", "LBSEQ", "139", "LBTMSHI", "LAB RESULT/UPPER LIMIT OF NORMAL", "1.0", "DERIVED", "CLINICAL STUDY SPONSOR"], ["CDISCPILOT01", "LB", "01-701-1115", "LBSEQ", "140", "LBTMSHI", "LAB RESULT/UPPER LIMIT OF NORMAL", "0.4", "DERIVED", "CLINICAL STUDY SPONSOR"], ["CDISCPILOT01", "LB", "01-701-1115", "LBSEQ", "143", "LBTMSHI", "LAB RESULT/UPPER LIMIT OF NORMAL", "0.5", "DERIVED", "CLINICAL STUDY SPONSOR"], ["CDISCPILOT01", "LB", "01-701-1115", "LBSEQ", "145", "LBTMSHI", "LAB RESULT/UPPER LIMIT OF NORMAL", "0.8", "DERIVED", "CLINICAL STUDY SPONSOR"], ["CDISCPILOT01", "LB", "01-701-1115", "LBSEQ", "147", "LBTMSHI", "LAB RESULT/UPPER LIMIT OF NORMAL", "0.4", "DERIVED", "CLINICAL STUDY SPONSOR"], ["CDISCPILOT01", "LB", "01-701-1115", "LBSEQ", "152", "ENDPOINT", "ENDPOINT VALUE FLAG", "Y", "DERIVED", "CLINICAL STUDY SPONSOR"], ["CDISCPILOT01", "LB", "01-701-1115", "LBSEQ", "152", "LBTMSHI", "LAB RESULT/UPPER LIMIT OF NORMAL", "0.2", "DERIVED", "CLINICAL STUDY SPONSOR"], ["CDISCPILOT01", "LB", "01-701-1115", "LBSEQ", "161", "ENDPOINT", "ENDPOINT VALUE FLAG", "Y", "DERIVED", "CLINICAL STUDY SPONSOR"], ["CDISCPILOT01", "LB", "01-701-1115", "LBSEQ", "161", "LBTMSHI", "LAB RESULT/UPPER LIMIT OF NORMAL", "0.6", "DERIVED", "CLINICAL STUDY SPONSOR"], ["CDISCPILOT01", "LB", "01-701-1115", "LBSEQ", "164", "ENDPOINT", "ENDPOINT VALUE FLAG", "Y", "DERIVED", "CLINICAL STUDY SPONSOR"], ["CDISCPILOT01", "LB", "01-701-1115", "LBSEQ", "164", "LBTMSHI", "LAB RESULT/UPPER LIMIT OF NORMAL", "0.9", "DERIVED", "CLINICAL STUDY SPONSOR"], ["CDISCPILOT01", "LB", "01-701-1115", "LBSEQ", "165", "ENDPOINT", "ENDPOINT VALUE FLAG", "Y", "DERIVED", "CLINICAL STUDY SPONSOR"], ["CDISCPILOT01", "LB", "01-701-1115", "LBSEQ", "165", "LBTMSHI", "LAB RESULT/UPPER LIMIT OF NORMAL", "0.9", "DERIVED", "CLINICAL STUDY SPONSOR"], ["CDISCPILOT01", "LB", "01-701-1115", "LBSEQ", "168", "ENDPOINT", "ENDPOINT VALUE FLAG", "Y", "DERIVED", "CLINICAL STUDY SPONSOR"], ["CDISCPILOT01", "LB", "01-701-1115", "LBSEQ", "168", "LBTMSHI", "LAB RESULT/UPPER LIMIT OF NORMAL", "0.4", "DERIVED", "CLINICAL STUDY SPONSOR"], ["CDISCPILOT01", "LB", "01-701-1115", "LBSEQ", "169", "ENDPOINT", "ENDPOINT VALUE FLAG", "Y", "DERIVED", "CLINICAL STUDY SPONSOR"], ["CDISCPILOT01", "LB", "01-701-1115", "LBSEQ", "169", "LBTMSHI", "LAB RESULT/UPPER LIMIT OF NORMAL", "0.9", "DERIVED", "CLINICAL STUDY SPONSOR"], ["CDISCPILOT01", "LB", "01-701-1115", "LBSEQ", "170", "ENDPOINT", "ENDPOINT VALUE FLAG", "Y", "DERIVED", "CLINICAL STUDY SPONSOR"], ["CDISCPILOT01", "LB", "01-701-1115", "LBSEQ", "170", "LBTMSHI", "LAB RESULT/UPPER LIMIT OF NORMAL", "0.9", "DERIVED", "CLINICAL STUDY SPONSOR"], ["CDISCPILOT01", "LB", "01-701-1115", "LBSEQ", "171", "ENDPOINT", "ENDPOINT VALUE FLAG", "Y", "DERIVED", "CLINICAL STUDY SPONSOR"], ["CDISCPILOT01", "LB", "01-701-1115", "LBSEQ", "171", "LBTMSHI", "LAB RESULT/UPPER LIMIT OF NORMAL", "0.9", "DERIVED", "CLINICAL STUDY SPONSOR"], ["CDISCPILOT01", "LB", "01-701-1115", "LBSEQ", "172", "ENDPOINT", "ENDPOINT VALUE FLAG", "Y", "DERIVED", "CLINICAL STUDY SPONSOR"], ["CDISCPILOT01", "LB", "01-701-1115", "LBSEQ", "172", "LBTMSHI", "LAB RESULT/UPPER LIMIT OF NORMAL", "0.4", "DERIVED", "CLINICAL STUDY SPONSOR"], ["CDISCPILOT01", "LB", "01-701-1115", "LBSEQ", "176", "ENDPOINT", "ENDPOINT VALUE FLAG", "Y", "DERIVED", "CLINICAL STUDY SPONSOR"], ["CDISCPILOT01", "LB", "01-701-1115", "LBSEQ", "176", "LBTMSHI", "LAB RESULT/UPPER LIMIT OF NORMAL", "0.4", "DERIVED", "CLINICAL STUDY SPONSOR"], ["CDISCPILOT01", "LB", "01-701-1115", "LBSEQ", "178", "ENDPOINT", "ENDPOINT VALUE FLAG", "Y", "DERIVED", "CLINICAL STUDY SPONSOR"], ["CDISCPILOT01", "LB", "01-701-1115", "LBSEQ", "178", "LBTMSHI", "LAB RESULT/UPPER LIMIT OF NORMAL", "0.8", "DERIVED", "CLINICAL STUDY SPONSOR"], ["CDISCPILOT01", "LB", "01-701-1115", "LBSEQ", "182", "ENDPOINT", "ENDPOINT VALUE FLAG", "Y", "DERIVED", "CLINICAL STUDY SPONSOR"], ["CDISCPILOT01", "LB", "01-701-1115", "LBSEQ", "182", "LBTMSHI", "LAB RESULT/UPPER LIMIT OF NORMAL", "0.5", "DERIVED", "CLINICAL STUDY SPONSOR"], ["CDISCPILOT01", "LB", "01-701-1118", "LBSEQ", "5", "LBTMSHI", "LAB RESULT/UPPER LIMIT OF NORMAL", "0.2", "DERIVED", "CLINICAL STUDY SPONSOR"], ["CDISCPILOT01", "LB", "01-701-1118", "LBSEQ", "14", "LBTMSHI", "LAB RESULT/UPPER LIMIT OF NORMAL", "0.6", "DERIVED", "CLINICAL STUDY SPONSOR"], ["CDISCPILOT01", "LB", "01-701-1118", "LBSEQ", "17", "LBTMSHI", "LAB RESULT/UPPER LIMIT OF NORMAL", "0.8", "DERIVED", "CLINICAL STUDY SPONSOR"], ["CDISCPILOT01", "LB", "01-701-1118", "LBSEQ", "18", "LBTMSHI", "LAB RESULT/UPPER LIMIT OF NORMAL", "0.9", "DERIVED", "CLINICAL STUDY SPONSOR"], ["CDISCPILOT01", "LB", "01-701-1118", "LBSEQ", "21", "LBTMSHI", "LAB RESULT/UPPER LIMIT OF NORMAL", "0.5", "DERIVED", "CLINICAL STUDY SPONSOR"], ["CDISCPILOT01", "LB", "01-701-1118", "LBSEQ", "22", "LBTMSHI", "LAB RESULT/UPPER LIMIT OF NORMAL", "0.9", "DERIVED", "CLINICAL STUDY SPONSOR"], ["CDISCPILOT01", "LB", "01-701-1118", "LBSEQ", "23", "LBTMSHI", "LAB RESULT/UPPER LIMIT OF NORMAL", "0.9", "DERIVED", "CLINICAL STUDY SPONSOR"], ["CDISCPILOT01", "LB", "01-701-1118", "LBSEQ", "24", "LBTMSHI", "LAB RESULT/UPPER LIMIT OF NORMAL", "1.0", "DERIVED", "CLINICAL STUDY SPONSOR"], ["CDISCPILOT01", "LB", "01-701-1118", "LBSEQ", "25", "LBTMSHI", "LAB RESULT/UPPER LIMIT OF NORMAL", "0.8", "DERIVED", "CLINICAL STUDY SPONSOR"], ["CDISCPILOT01", "LB", "01-701-1118", "LBSEQ", "29", "LBTMSHI", "LAB RESULT/UPPER LIMIT OF NORMAL", "0.7", "DERIVED", "CLINICAL STUDY SPONSOR"], ["CDISCPILOT01", "LB", "01-701-1118", "LBSEQ", "31", "LBTMSHI", "LAB RESULT/UPPER LIMIT OF NORMAL", "0.8", "DERIVED", "CLINICAL STUDY SPONSOR"], ["CDISCPILOT01", "LB", "01-701-1118", "LBSEQ", "37", "LBTMSHI", "LAB RESULT/UPPER LIMIT OF NORMAL", "0.7", "DERIVED", "CLINICAL STUDY SPONSOR"], ["CDISCPILOT01", "LB", "01-701-1118", "LBSEQ", "42", "LBTMSHI", "LAB RESULT/UPPER LIMIT OF NORMAL", "0.1", "DERIVED", "CLINICAL STUDY SPONSOR"], ["CDISCPILOT01", "LB", "01-701-1118", "LBSEQ", "51", "LBTMSHI", "LAB RESULT/UPPER LIMIT OF NORMAL", "0.2", "DERIVED", "CLINICAL STUDY SPONSOR"], ["CDISCPILOT01", "LB", "01-701-1118", "LBSEQ", "54", "LBTMSHI", "LAB RESULT/UPPER LIMIT OF NORMAL", "0.8", "DERIVED", "CLINICAL STUDY SPONSOR"], ["CDISCPILOT01", "LB", "01-701-1118", "LBSEQ", "55", "LBTMSHI", "LAB RESULT/UPPER LIMIT OF NORMAL", "0.9", "DERIVED", "CLINICAL STUDY SPONSOR"], ["CDISCPILOT01", "LB", "01-701-1118", "LBSEQ", "58", "LBTMSHI", "LAB RESULT/UPPER LIMIT OF NORMAL", "0.3", "DERIVED", "CLINICAL STUDY SPONSOR"], ["CDISCPILOT01", "LB", "01-701-1118", "LBSEQ", "59", "LBTMSHI", "LAB RESULT/UPPER LIMIT OF NORMAL", "0.9", "DERIVED", "CLINICAL STUDY SPONSOR"], ["CDISCPILOT01", "LB", "01-701-1118", "LBSEQ", "60", "LBTMSHI", "LAB RESULT/UPPER LIMIT OF NORMAL", "0.9", "DERIVED", "CLINICAL STUDY SPONSOR"], ["CDISCPILOT01", "LB", "01-701-1118", "LBSEQ", "61", "LBTMSHI", "LAB RESULT/UPPER LIMIT OF NORMAL", "0.9", "DERIVED", "CLINICAL STUDY SPONSOR"], ["CDISCPILOT01", "LB", "01-701-1118", "LBSEQ", "62", "LBTMSHI", "LAB RESULT/UPPER LIMIT OF NORMAL", "0.4", "DERIVED", "CLINICAL STUDY SPONSOR"], ["CDISCPILOT01", "LB", "01-701-1118", "LBSEQ", "66", "LBTMSHI", "LAB RESULT/UPPER LIMIT OF NORMAL", "0.7", "DERIVED", "CLINICAL STUDY SPONSOR"], ["CDISCPILOT01", "LB", "01-701-1118", "LBSEQ", "68", "LBTMSHI", "LAB RESULT/UPPER LIMIT OF NORMAL", "0.8", "DERIVED", "CLINICAL STUDY SPONSOR"], ["CDISCPILOT01", "LB", "01-701-1118", "LBSEQ", "72", "LBTMSHI", "LAB RESULT/UPPER LIMIT OF NORMAL", "0.6", "DERIVED", "CLINICAL STUDY SPONSOR"], ["CDISCPILOT01", "LB", "01-701-1118", "LBSEQ", "77", "LBTMSHI", "LAB RESULT/UPPER LIMIT OF NORMAL", "0.2", "DERIVED", "CLINICAL STUDY SPONSOR"], ["CDISCPILOT01", "LB", "01-701-1118", "LBSEQ", "85", "LBTMSHI", "LAB RESULT/UPPER LIMIT OF NORMAL", "0.1", "DERIVED", "CLINICAL STUDY SPONSOR"], ["CDISCPILOT01", "LB", "01-701-1118", "LBSEQ", "88", "LBTMSHI", "LAB RESULT/UPPER LIMIT OF NORMAL", "0.8", "DERIVED", "CLINICAL STUDY SPONSOR"], ["CDISCPILOT01", "LB", "01-701-1118", "LBSEQ", "89", "LBTMSHI", "LAB RESULT/UPPER LIMIT OF NORMAL", "0.9", "DERIVED", "CLINICAL STUDY SPONSOR"], ["CDISCPILOT01", "LB", "01-701-1118", "LBSEQ", "91", "LBTMSHI", "LAB RESULT/UPPER LIMIT OF NORMAL", "0.4", "DERIVED", "CLINICAL STUDY SPONSOR"], ["CDISCPILOT01", "LB", "01-701-1118", "LBSEQ", "92", "LBTMSHI", "LAB RESULT/UPPER LIMIT OF NORMAL", "0.9", "DERIVED", "CLINICAL STUDY SPONSOR"], ["CDISCPILOT01", "LB", "01-701-1118", "LBSEQ", "93", "LBTMSHI", "LAB RESULT/UPPER LIMIT OF NORMAL", "0.9", "DERIVED", "CLINICAL STUDY SPONSOR"], ["CDISCPILOT01", "LB", "01-701-1118", "LBSEQ", "94", "LBTMSHI", "LAB RESULT/UPPER LIMIT OF NORMAL", "0.9", "DERIVED", "CLINICAL STUDY SPONSOR"], ["CDISCPILOT01", "LB", "01-701-1118", "LBSEQ", "95", "LBTMSHI", "LAB RESULT/UPPER LIMIT OF NORMAL", "0.6", "DERIVED", "CLINICAL STUDY SPONSOR"], ["CDISCPILOT01", "LB", "01-701-1118", "LBSEQ", "98", "LBTMSHI", "LAB RESULT/UPPER LIMIT OF NORMAL", "0.8", "DERIVED", "CLINICAL STUDY SPONSOR"], ["CDISCPILOT01", "LB", "01-701-1118", "LBSEQ", "100", "LBTMSHI", "LAB RESULT/UPPER LIMIT OF NORMAL", "0.8", "DERIVED", "CLINICAL STUDY SPONSOR"], ["CDISCPILOT01", "LB", "01-701-1118", "LBSEQ", "102", "LBTMSHI", "LAB RESULT/UPPER LIMIT OF NORMAL", "0.6", "DERIVED", "CLINICAL STUDY SPONSOR"], ["CDISCPILOT01", "LB", "01-701-1118", "LBSEQ", "107", "LBTMSHI", "LAB RESULT/UPPER LIMIT OF NORMAL", "0.2", "DERIVED", "CLINICAL STUDY SPONSOR"], ["CDISCPILOT01", "LB", "01-701-1118", "LBSEQ", "115", "LBTMSHI", "LAB RESULT/UPPER LIMIT OF NORMAL", "0.3", "DERIVED", "CLINICAL STUDY SPONSOR"], ["CDISCPILOT01", "LB", "01-701-1118", "LBSEQ", "118", "LBTMSHI", "LAB RESULT/UPPER LIMIT OF NORMAL", "0.8", "DERIVED", "CLINICAL STUDY SPONSOR"], ["CDISCPILOT01", "LB", "01-701-1118", "LBSEQ", "119", "LBTMSHI", "LAB RESULT/UPPER LIMIT OF NORMAL", "0.9", "DERIVED", "CLINICAL STUDY SPONSOR"], ["CDISCPILOT01", "LB", "01-701-1118", "LBSEQ", "121", "LBTMSHI", "LAB RESULT/UPPER LIMIT OF NORMAL", "0.5", "DERIVED", "CLINICAL STUDY SPONSOR"], ["CDISCPILOT01", "LB", "01-701-1118", "LBSEQ", "122", "LBTMSHI", "LAB RESULT/UPPER LIMIT OF NORMAL", "1.0", "DERIVED", "CLINICAL STUDY SPONSOR"], ["CDISCPILOT01", "LB", "01-701-1118", "LBSEQ", "123", "LBTMSHI", "LAB RESULT/UPPER LIMIT OF NORMAL", "1.0", "DERIVED", "CLINICAL STUDY SPONSOR"], ["CDISCPILOT01", "LB", "01-701-1118", "LBSEQ", "124", "LBTMSHI", "LAB RESULT/UPPER LIMIT OF NORMAL", "0.9", "DERIVED", "CLINICAL STUDY SPONSOR"], ["CDISCPILOT01", "LB", "01-701-1118", "LBSEQ", "125", "LBTMSHI", "LAB RESULT/UPPER LIMIT OF NORMAL", "0.5", "DERIVED", "CLINICAL STUDY SPONSOR"], ["CDISCPILOT01", "LB", "01-701-1118", "LBSEQ", "128", "LBTMSHI", "LAB RESULT/UPPER LIMIT OF NORMAL", "0.7", "DERIVED", "CLINICAL STUDY SPONSOR"], ["CDISCPILOT01", "LB", "01-701-1118", "LBSEQ", "130", "LBTMSHI", "LAB RESULT/UPPER LIMIT OF NORMAL", "0.7", "DERIVED", "CLINICAL STUDY SPONSOR"], ["CDISCPILOT01", "LB", "01-701-1118", "LBSEQ", "132", "LBTMSHI", "LAB RESULT/UPPER LIMIT OF NORMAL", "0.6", "DERIVED", "CLINICAL STUDY SPONSOR"], ["CDISCPILOT01", "LB", "01-701-1118", "LBSEQ", "137", "LBTMSHI", "LAB RESULT/UPPER LIMIT OF NORMAL", "0.3", "DERIVED", "CLINICAL STUDY SPONSOR"], ["CDISCPILOT01", "LB", "01-701-1118", "LBSEQ", "145", "LBTMSHI", "LAB RESULT/UPPER LIMIT OF NORMAL", "0.3", "DERIVED", "CLINICAL STUDY SPONSOR"], ["CDISCPILOT01", "LB", "01-701-1118", "LBSEQ", "148", "LBTMSHI", "LAB RESULT/UPPER LIMIT OF NORMAL", "0.8", "DERIVED", "CLINICAL STUDY SPONSOR"], ["CDISCPILOT01", "LB", "01-701-1118", "LBSEQ", "149", "LBTMSHI", "LAB RESULT/UPPER LIMIT OF NORMAL", "0.9", "DERIVED", "CLINICAL STUDY SPONSOR"], ["CDISCPILOT01", "LB", "01-701-1118", "LBSEQ", "151", "LBTMSHI", "LAB RESULT/UPPER LIMIT OF NORMAL", "0.7", "DERIVED", "CLINICAL STUDY SPONSOR"], ["CDISCPILOT01", "LB", "01-701-1118", "LBSEQ", "152", "LBTMSHI", "LAB RESULT/UPPER LIMIT OF NORMAL", "0.9", "DERIVED", "CLINICAL STUDY SPONSOR"], ["CDISCPILOT01", "LB", "01-701-1118", "LBSEQ", "153", "LBTMSHI", "LAB RESULT/UPPER LIMIT OF NORMAL", "0.9", "DERIVED", "CLINICAL STUDY SPONSOR"], ["CDISCPILOT01", "LB", "01-701-1118", "LBSEQ", "154", "LBTMSHI", "LAB RESULT/UPPER LIMIT OF NORMAL", "0.9", "DERIVED", "CLINICAL STUDY SPONSOR"], ["CDISCPILOT01", "LB", "01-701-1118", "LBSEQ", "155", "LBTMSHI", "LAB RESULT/UPPER LIMIT OF NORMAL", "1.0", "DERIVED", "CLINICAL STUDY SPONSOR"], ["CDISCPILOT01", "LB", "01-701-1118", "LBSEQ", "158", "LBTMSHI", "LAB RESULT/UPPER LIMIT OF NORMAL", "0.8", "DERIVED", "CLINICAL STUDY SPONSOR"], ["CDISCPILOT01", "LB", "01-701-1118", "LBSEQ", "160", "LBTMSHI", "LAB RESULT/UPPER LIMIT OF NORMAL", "0.8", "DERIVED", "CLINICAL STUDY SPONSOR"], ["CDISCPILOT01", "LB", "01-701-1118", "LBSEQ", "162", "LBTMSHI", "LAB RESULT/UPPER LIMIT OF NORMAL", "0.8", "DERIVED", "CLINICAL STUDY SPONSOR"], ["CDISCPILOT01", "LB", "01-701-1118", "LBSEQ", "167", "LBTMSHI", "LAB RESULT/UPPER LIMIT OF NORMAL", "0.2", "DERIVED", "CLINICAL STUDY SPONSOR"], ["CDISCPILOT01", "LB", "01-701-1118", "LBSEQ", "176", "LBTMSHI", "LAB RESULT/UPPER LIMIT OF NORMAL", "0.2", "DERIVED", "CLINICAL STUDY SPONSOR"], ["CDISCPILOT01", "LB", "01-701-1118", "LBSEQ", "179", "LBTMSHI", "LAB RESULT/UPPER LIMIT OF NORMAL", "0.9", "DERIVED", "CLINICAL STUDY SPONSOR"], ["CDISCPILOT01", "LB", "01-701-1118", "LBSEQ", "180", "LBTMSHI", "LAB RESULT/UPPER LIMIT OF NORMAL", "0.9", "DERIVED", "CLINICAL STUDY SPONSOR"], ["CDISCPILOT01", "LB", "01-701-1118", "LBSEQ", "183", "LBTMSHI", "LAB RESULT/UPPER LIMIT OF NORMAL", "0.4", "DERIVED", "CLINICAL STUDY SPONSOR"], ["CDISCPILOT01", "LB", "01-701-1118", "LBSEQ", "184", "LBTMSHI", "LAB RESULT/UPPER LIMIT OF NORMAL", "0.9", "DERIVED", "CLINICAL STUDY SPONSOR"], ["CDISCPILOT01", "LB", "01-701-1118", "LBSEQ", "185", "LBTMSHI", "LAB RESULT/UPPER LIMIT OF NORMAL", "0.9", "DERIVED", "CLINICAL STUDY SPONSOR"], ["CDISCPILOT01", "LB", "01-701-1118", "LBSEQ", "186", "LBTMSHI", "LAB RESULT/UPPER LIMIT OF NORMAL", "1.0", "DERIVED", "CLINICAL STUDY SPONSOR"], ["CDISCPILOT01", "LB", "01-701-1118", "LBSEQ", "187", "LBTMSHI", "LAB RESULT/UPPER LIMIT OF NORMAL", "0.5", "DERIVED", "CLINICAL STUDY SPONSOR"], ["CDISCPILOT01", "LB", "01-701-1118", "LBSEQ", "191", "LBTMSHI", "LAB RESULT/UPPER LIMIT OF NORMAL", "0.7", "DERIVED", "CLINICAL STUDY SPONSOR"], ["CDISCPILOT01", "LB", "01-701-1118", "LBSEQ", "193", "LBTMSHI", "LAB RESULT/UPPER LIMIT OF NORMAL", "0.8", "DERIVED", "CLINICAL STUDY SPONSOR"], ["CDISCPILOT01", "LB", "01-701-1118", "LBSEQ", "197", "LBTMSHI", "LAB RESULT/UPPER LIMIT OF NORMAL", "0.6", "DERIVED", "CLINICAL STUDY SPONSOR"], ["CDISCPILOT01", "LB", "01-701-1118", "LBSEQ", "202", "LBTMSHI", "LAB RESULT/UPPER LIMIT OF NORMAL", "0.2", "DERIVED", "CLINICAL STUDY SPONSOR"], ["CDISCPILOT01", "LB", "01-701-1118", "LBSEQ", "210", "LBTMSHI", "LAB RESULT/UPPER LIMIT OF NORMAL", "0.3", "DERIVED", "CLINICAL STUDY SPONSOR"], ["CDISCPILOT01", "LB", "01-701-1118", "LBSEQ", "213", "LBTMSHI", "LAB RESULT/UPPER LIMIT OF NORMAL", "0.8", "DERIVED", "CLINICAL STUDY SPONSOR"], ["CDISCPILOT01", "LB", "01-701-1118", "LBSEQ", "214", "LBTMSHI", "LAB RESULT/UPPER LIMIT OF NORMAL", "0.9", "DERIVED", "CLINICAL STUDY SPONSOR"], ["CDISCPILOT01", "LB", "01-701-1118", "LBSEQ", "216", "LBTMSHI", "LAB RESULT/UPPER LIMIT OF NORMAL", "0.4", "DERIVED", "CLINICAL STUDY SPONSOR"], ["CDISCPILOT01", "LB", "01-701-1118", "LBSEQ", "217", "LBTMSHI", "LAB RESULT/UPPER LIMIT OF NORMAL", "0.9", "DERIVED", "CLINICAL STUDY SPONSOR"], ["CDISCPILOT01", "LB", "01-701-1118", "LBSEQ", "218", "LBTMSHI", "LAB RESULT/UPPER LIMIT OF NORMAL", "0.9", "DERIVED", "CLINICAL STUDY SPONSOR"], ["CDISCPILOT01", "LB", "01-701-1118", "LBSEQ", "219", "LBTMSHI", "LAB RESULT/UPPER LIMIT OF NORMAL", "0.9", "DERIVED", "CLINICAL STUDY SPONSOR"], ["CDISCPILOT01", "LB", "01-701-1118", "LBSEQ", "220", "LBTMSHI", "LAB RESULT/UPPER LIMIT OF NORMAL", "0.6", "DERIVED", "CLINICAL STUDY SPONSOR"], ["CDISCPILOT01", "LB", "01-701-1118", "LBSEQ", "223", "LBTMSHI", "LAB RESULT/UPPER LIMIT OF NORMAL", "0.8", "DERIVED", "CLINICAL STUDY SPONSOR"], ["CDISCPILOT01", "LB", "01-701-1118", "LBSEQ", "225", "LBTMSHI", "LAB RESULT/UPPER LIMIT OF NORMAL", "0.8", "DERIVED", "CLINICAL STUDY SPONSOR"], ["CDISCPILOT01", "LB", "01-701-1118", "LBSEQ", "227", "LBTMSHI", "LAB RESULT/UPPER LIMIT OF NORMAL", "0.6", "DERIVED", "CLINICAL STUDY SPONSOR"], ["CDISCPILOT01", "LB", "01-701-1118", "LBSEQ", "232", "LBTMSHI", "LAB RESULT/UPPER LIMIT OF NORMAL", "0.2", "DERIVED", "CLINICAL STUDY SPONSOR"], ["CDISCPILOT01", "LB", "01-701-1118", "LBSEQ", "240", "LBTMSHI", "LAB RESULT/UPPER LIMIT OF NORMAL", "0.1", "DERIVED", "CLINICAL STUDY SPONSOR"], ["CDISCPILOT01", "LB", "01-701-1118", "LBSEQ", "243", "LBTMSHI", "LAB RESULT/UPPER LIMIT OF NORMAL", "0.8", "DERIVED", "CLINICAL STUDY SPONSOR"], ["CDISCPILOT01", "LB", "01-701-1118", "LBSEQ", "244", "LBTMSHI", "LAB RESULT/UPPER LIMIT OF NORMAL", "0.9", "DERIVED", "CLINICAL STUDY SPONSOR"], ["CDISCPILOT01", "LB", "01-701-1118", "LBSEQ", "246", "LBTMSHI", "LAB RESULT/UPPER LIMIT OF NORMAL", "0.4", "DERIVED", "CLINICAL STUDY SPONSOR"], ["CDISCPILOT01", "LB", "01-701-1118", "LBSEQ", "247", "LBTMSHI", "LAB RESULT/UPPER LIMIT OF NORMAL", "0.9", "DERIVED", "CLINICAL STUDY SPONSOR"], ["CDISCPILOT01", "LB", "01-701-1118", "LBSEQ", "248", "LBTMSHI", "LAB RESULT/UPPER LIMIT OF NORMAL", "0.9", "DERIVED", "CLINICAL STUDY SPONSOR"], ["CDISCPILOT01", "LB", "01-701-1118", "LBSEQ", "249", "LBTMSHI", "LAB RESULT/UPPER LIMIT OF NORMAL", "0.9", "DERIVED", "CLINICAL STUDY SPONSOR"], ["CDISCPILOT01", "LB", "01-701-1118", "LBSEQ", "250", "LBTMSHI", "LAB RESULT/UPPER LIMIT OF NORMAL", "0.6", "DERIVED", "CLINICAL STUDY SPONSOR"], ["CDISCPILOT01", "LB", "01-701-1118", "LBSEQ", "253", "LBTMSHI", "LAB RESULT/UPPER LIMIT OF NORMAL", "0.8", "DERIVED", "CLINICAL STUDY SPONSOR"], ["CDISCPILOT01", "LB", "01-701-1118", "LBSEQ", "255", "LBTMSHI", "LAB RESULT/UPPER LIMIT OF NORMAL", "0.8", "DERIVED", "CLINICAL STUDY SPONSOR"], ["CDISCPILOT01", "LB", "01-701-1118", "LBSEQ", "257", "LBTMSHI", "LAB RESULT/UPPER LIMIT OF NORMAL", "0.7", "DERIVED", "CLINICAL STUDY SPONSOR"], ["CDISCPILOT01", "LB", "01-701-1118", "LBSEQ", "262", "ENDPOINT", "ENDPOINT VALUE FLAG", "Y", "DERIVED", "CLINICAL STUDY SPONSOR"], ["CDISCPILOT01", "LB", "01-701-1118", "LBSEQ", "262", "LBTMSHI", "LAB RESULT/UPPER LIMIT OF NORMAL", "0.6", "DERIVED", "CLINICAL STUDY SPONSOR"], ["CDISCPILOT01", "LB", "01-701-1118", "LBSEQ", "271", "ENDPOINT", "ENDPOINT VALUE FLAG", "Y", "DERIVED", "CLINICAL STUDY SPONSOR"], ["CDISCPILOT01", "LB", "01-701-1118", "LBSEQ", "271", "LBTMSHI", "LAB RESULT/UPPER LIMIT OF NORMAL", "0.2", "DERIVED", "CLINICAL STUDY SPONSOR"], ["CDISCPILOT01", "LB", "01-701-1118", "LBSEQ", "274", "ENDPOINT", "ENDPOINT VALUE FLAG", "Y", "DERIVED", "CLINICAL STUDY SPONSOR"], ["CDISCPILOT01", "LB", "01-701-1118", "LBSEQ", "274", "LBTMSHI", "LAB RESULT/UPPER LIMIT OF NORMAL", "0.9", "DERIVED", "CLINICAL STUDY SPONSOR"], ["CDISCPILOT01", "LB", "01-701-1118", "LBSEQ", "275", "ENDPOINT", "ENDPOINT VALUE FLAG", "Y", "DERIVED", "CLINICAL STUDY SPONSOR"], ["CDISCPILOT01", "LB", "01-701-1118", "LBSEQ", "275", "LBTMSHI", "LAB RESULT/UPPER LIMIT OF NORMAL", "0.8", "DERIVED", "CLINICAL STUDY SPONSOR"], ["CDISCPILOT01", "LB", "01-701-1118", "LBSEQ", "278", "ENDPOINT", "ENDPOINT VALUE FLAG", "Y", "DERIVED", "CLINICAL STUDY SPONSOR"], ["CDISCPILOT01", "LB", "01-701-1118", "LBSEQ", "278", "LBTMSHI", "LAB RESULT/UPPER LIMIT OF NORMAL", "0.4", "DERIVED", "CLINICAL STUDY SPONSOR"], ["CDISCPILOT01", "LB", "01-701-1118", "LBSEQ", "279", "ENDPOINT", "ENDPOINT VALUE FLAG", "Y", "DERIVED", "CLINICAL STUDY SPONSOR"], ["CDISCPILOT01", "LB", "01-701-1118", "LBSEQ", "279", "LBTMSHI", "LAB RESULT/UPPER LIMIT OF NORMAL", "0.9", "DERIVED", "CLINICAL STUDY SPONSOR"], ["CDISCPILOT01", "LB", "01-701-1118", "LBSEQ", "280", "ENDPOINT", "ENDPOINT VALUE FLAG", "Y", "DERIVED", "CLINICAL STUDY SPONSOR"], ["CDISCPILOT01", "LB", "01-701-1118", "LBSEQ", "280", "LBTMSHI", "LAB RESULT/UPPER LIMIT OF NORMAL", "0.8", "DERIVED", "CLINICAL STUDY SPONSOR"], ["CDISCPILOT01", "LB", "01-701-1118", "LBSEQ", "281", "ENDPOINT", "ENDPOINT VALUE FLAG", "Y", "DERIVED", "CLINICAL STUDY SPONSOR"], ["CDISCPILOT01", "LB", "01-701-1118", "LBSEQ", "281", "LBTMSHI", "LAB RESULT/UPPER LIMIT OF NORMAL", "1.0", "DERIVED", "CLINICAL STUDY SPONSOR"], ["CDISCPILOT01", "LB", "01-701-1118", "LBSEQ", "282", "ENDPOINT", "ENDPOINT VALUE FLAG", "Y", "DERIVED", "CLINICAL STUDY SPONSOR"], ["CDISCPILOT01", "LB", "01-701-1118", "LBSEQ", "282", "LBTMSHI", "LAB RESULT/UPPER LIMIT OF NORMAL", "0.6", "DERIVED", "CLINICAL STUDY SPONSOR"], ["CDISCPILOT01", "LB", "01-701-1118", "LBSEQ", "286", "ENDPOINT", "ENDPOINT VALUE FLAG", "Y", "DERIVED", "CLINICAL STUDY SPONSOR"], ["CDISCPILOT01", "LB", "01-701-1118", "LBSEQ", "286", "LBTMSHI", "LAB RESULT/UPPER LIMIT OF NORMAL", "0.8", "DERIVED", "CLINICAL STUDY SPONSOR"], ["CDISCPILOT01", "LB", "01-701-1118", "LBSEQ", "288", "ENDPOINT", "ENDPOINT VALUE FLAG", "Y", "DERIVED", "CLINICAL STUDY SPONSOR"], ["CDISCPILOT01", "LB", "01-701-1118", "LBSEQ", "288", "LBTMSHI", "LAB RESULT/UPPER LIMIT OF NORMAL", "0.8", "DERIVED", "CLINICAL STUDY SPONSOR"], ["CDISCPILOT01", "LB", "01-701-1118", "LBSEQ", "292", "ENDPOINT", "ENDPOINT VALUE FLAG", "Y", "DERIVED", "CLINICAL STUDY SPONSOR"], ["CDISCPILOT01", "LB", "01-701-1118", "LBSEQ", "292", "LBTMSHI", "LAB RESULT/UPPER LIMIT OF NORMAL", "0.7", "DERIVED", "CLINICAL STUDY SPONSOR"], ["CDISCPILOT01", "LB", "01-701-1118", "LBSEQ", "297", "LBTMSHI", "LAB RESULT/UPPER LIMIT OF NORMAL", "0.2", "DERIVED", "CLINICAL STUDY SPONSOR"], ["CDISCPILOT01", "LB", "01-701-1118", "LBSEQ", "305", "LBTMSHI", "LAB RESULT/UPPER LIMIT OF NORMAL", "0.2", "DERIVED", "CLINICAL STUDY SPONSOR"], ["CDISCPILOT01", "LB", "01-701-1118", "LBSEQ", "308", "LBTMSHI", "LAB RESULT/UPPER LIMIT OF NORMAL", "0.8", "DERIVED", "CLINICAL STUDY SPONSOR"], ["CDISCPILOT01", "LB", "01-701-1118", "LBSEQ", "309", "LBTMSHI", "LAB RESULT/UPPER LIMIT OF NORMAL", "0.8", "DERIVED", "CLINICAL STUDY SPONSOR"], ["CDISCPILOT01", "LB", "01-701-1118", "LBSEQ", "311", "LBTMSHI", "LAB RESULT/UPPER LIMIT OF NORMAL", "0.4", "DERIVED", "CLINICAL STUDY SPONSOR"], ["CDISCPILOT01", "LB", "01-701-1118", "LBSEQ", "312", "LBTMSHI", "LAB RESULT/UPPER LIMIT OF NORMAL", "0.9", "DERIVED", "CLINICAL STUDY SPONSOR"], ["CDISCPILOT01", "LB", "01-701-1118", "LBSEQ", "313", "LBTMSHI", "LAB RESULT/UPPER LIMIT OF NORMAL", "0.9", "DERIVED", "CLINICAL STUDY SPONSOR"], ["CDISCPILOT01", "LB", "01-701-1118", "LBSEQ", "314", "LBTMSHI", "LAB RESULT/UPPER LIMIT OF NORMAL", "0.9", "DERIVED", "CLINICAL STUDY SPONSOR"], ["CDISCPILOT01", "LB", "01-701-1118", "LBSEQ", "315", "LBTMSHI", "LAB RESULT/UPPER LIMIT OF NORMAL", "0.5", "DERIVED", "CLINICAL STUDY SPONSOR"], ["CDISCPILOT01", "LB", "01-701-1118", "LBSEQ", "318", "LBTMSHI", "LAB RESULT/UPPER LIMIT OF NORMAL", "0.7", "DERIVED", "CLINICAL STUDY SPONSOR"], ["CDISCPILOT01", "LB", "01-701-1118", "LBSEQ", "320", "LBTMSHI", "LAB RESULT/UPPER LIMIT OF NORMAL", "0.7", "DERIVED", "CLINICAL STUDY SPONSOR"], ["CDISCPILOT01", "LB", "01-701-1118", "LBSEQ", "322", "LBTMSHI", "LAB RESULT/UPPER LIMIT OF NORMAL", "0.6", "DERIVED", "CLINICAL STUDY SPONSOR"], ["CDISCPILOT01", "LB", "01-701-1130", "LBSEQ", "5", "LBTMSHI", "LAB RESULT/UPPER LIMIT OF NORMAL", "0.2", "DERIVED", "CLINICAL STUDY SPONSOR"], ["CDISCPILOT01", "LB", "01-701-1130", "LBSEQ", "14", "LBTMSHI", "LAB RESULT/UPPER LIMIT OF NORMAL", "0.3", "DERIVED", "CLINICAL STUDY SPONSOR"], ["CDISCPILOT01", "LB", "01-701-1130", "LBSEQ", "17", "LBTMSHI", "LAB RESULT/UPPER LIMIT OF NORMAL", "0.7", "DERIVED", "CLINICAL STUDY SPONSOR"], ["CDISCPILOT01", "LB", "01-701-1130", "LBSEQ", "18", "LBTMSHI", "LAB RESULT/UPPER LIMIT OF NORMAL", "0.7", "DERIVED", "CLINICAL STUDY SPONSOR"], ["CDISCPILOT01", "LB", "01-701-1130", "LBSEQ", "21", "LBTMSHI", "LAB RESULT/UPPER LIMIT OF NORMAL", "0.7", "DERIVED", "CLINICAL STUDY SPONSOR"], ["CDISCPILOT01", "LB", "01-701-1130", "LBSEQ", "22", "LBTMSHI", "LAB RESULT/UPPER LIMIT OF NORMAL", "0.9", "DERIVED", "CLINICAL STUDY SPONSOR"], ["CDISCPILOT01", "LB", "01-701-1130", "LBSEQ", "23", "LBTMSHI", "LAB RESULT/UPPER LIMIT OF NORMAL", "0.9", "DERIVED", "CLINICAL STUDY SPONSOR"], ["CDISCPILOT01", "LB", "01-701-1130", "LBSEQ", "24", "LBTMSHI", "LAB RESULT/UPPER LIMIT OF NORMAL", "1.0", "DERIVED", "CLINICAL STUDY SPONSOR"], ["CDISCPILOT01", "LB", "01-701-1130", "LBSEQ", "25", "LBTMSHI", "LAB RESULT/UPPER LIMIT OF NORMAL", "0.6", "DERIVED", "CLINICAL STUDY SPONSOR"], ["CDISCPILOT01", "LB", "01-701-1130", "LBSEQ", "29", "LBTMSHI", "LAB RESULT/UPPER LIMIT OF NORMAL", "0.5", "DERIVED", "CLINICAL STUDY SPONSOR"], ["CDISCPILOT01", "LB", "01-701-1130", "LBSEQ", "31", "LBTMSHI", "LAB RESULT/UPPER LIMIT OF NORMAL", "0.7", "DERIVED", "CLINICAL STUDY SPONSOR"], ["CDISCPILOT01", "LB", "01-701-1130", "LBSEQ", "37", "LBTMSHI", "LAB RESULT/UPPER LIMIT OF NORMAL", "0.6", "DERIVED", "CLINICAL STUDY SPONSOR"], ["CDISCPILOT01", "LB", "01-701-1130", "LBSEQ", "42", "LBTMSHI", "LAB RESULT/UPPER LIMIT OF NORMAL", "0.4", "DERIVED", "CLINICAL STUDY SPONSOR"], ["CDISCPILOT01", "LB", "01-701-1130", "LBSEQ", "51", "LBTMSHI", "LAB RESULT/UPPER LIMIT OF NORMAL", "0.4", "DERIVED", "CLINICAL STUDY SPONSOR"], ["CDISCPILOT01", "LB", "01-701-1130", "LBSEQ", "54", "LBTMSHI", "LAB RESULT/UPPER LIMIT OF NORMAL", "0.7", "DERIVED", "CLINICAL STUDY SPONSOR"], ["CDISCPILOT01", "LB", "01-701-1130", "LBSEQ", "55", "LBTMSHI", "LAB RESULT/UPPER LIMIT OF NORMAL", "0.7", "DERIVED", "CLINICAL STUDY SPONSOR"], ["CDISCPILOT01", "LB", "01-701-1130", "LBSEQ", "58", "LBTMSHI", "LAB RESULT/UPPER LIMIT OF NORMAL", "0.7", "DERIVED", "CLINICAL STUDY SPONSOR"], ["CDISCPILOT01", "LB", "01-701-1130", "LBSEQ", "59", "LBTMSHI", "LAB RESULT/UPPER LIMIT OF NORMAL", "0.9", "DERIVED", "CLINICAL STUDY SPONSOR"], ["CDISCPILOT01", "LB", "01-701-1130", "LBSEQ", "60", "LBTMSHI", "LAB RESULT/UPPER LIMIT OF NORMAL", "0.9", "DERIVED", "CLINICAL STUDY SPONSOR"], ["CDISCPILOT01", "LB", "01-701-1130", "LBSEQ", "61", "LBTMSHI", "LAB RESULT/UPPER LIMIT OF NORMAL", "0.9", "DERIVED", "CLINICAL STUDY SPONSOR"], ["CDISCPILOT01", "LB", "01-701-1130", "LBSEQ", "62", "LBTMSHI", "LAB RESULT/UPPER LIMIT OF NORMAL", "1.1", "DERIVED", "CLINICAL STUDY SPONSOR"], ["CDISCPILOT01", "LB", "01-701-1130", "LBSEQ", "66", "LBTMSHI", "LAB RESULT/UPPER LIMIT OF NORMAL", "0.6", "DERIVED", "CLINICAL STUDY SPONSOR"], ["CDISCPILOT01", "LB", "01-701-1130", "LBSEQ", "68", "LBTMSHI", "LAB RESULT/UPPER LIMIT OF NORMAL", "0.7", "DERIVED", "CLINICAL STUDY SPONSOR"], ["CDISCPILOT01", "LB", "01-701-1130", "LBSEQ", "72", "LBTMSHI", "LAB RESULT/UPPER LIMIT OF NORMAL", "1.0", "DERIVED", "CLINICAL STUDY SPONSOR"], ["CDISCPILOT01", "LB", "01-701-1130", "LBSEQ", "77", "LBTMSHI", "LAB RESULT/UPPER LIMIT OF NORMAL", "0.2", "DERIVED", "CLINICAL STUDY SPONSOR"], ["CDISCPILOT01", "LB", "01-701-1130", "LBSEQ", "85", "LBTMSHI", "LAB RESULT/UPPER LIMIT OF NORMAL", "0.3", "DERIVED", "CLINICAL STUDY SPONSOR"], ["CDISCPILOT01", "LB", "01-701-1130", "LBSEQ", "88", "LBTMSHI", "LAB RESULT/UPPER LIMIT OF NORMAL", "0.6", "DERIVED", "CLINICAL STUDY SPONSOR"], ["CDISCPILOT01", "LB", "01-701-1130", "LBSEQ", "89", "LBTMSHI", "LAB RESULT/UPPER LIMIT OF NORMAL", "0.6", "DERIVED", "CLINICAL STUDY SPONSOR"], ["CDISCPILOT01", "LB", "01-701-1130", "LBSEQ", "91", "LBTMSHI", "LAB RESULT/UPPER LIMIT OF NORMAL", "0.5", "DERIVED", "CLINICAL STUDY SPONSOR"], ["CDISCPILOT01", "LB", "01-701-1130", "LBSEQ", "92", "LBTMSHI", "LAB RESULT/UPPER LIMIT OF NORMAL", "1.0", "DERIVED", "CLINICAL STUDY SPONSOR"], ["CDISCPILOT01", "LB", "01-701-1130", "LBSEQ", "93", "LBTMSHI", "LAB RESULT/UPPER LIMIT OF NORMAL", "0.9", "DERIVED", "CLINICAL STUDY SPONSOR"], ["CDISCPILOT01", "LB", "01-701-1130", "LBSEQ", "94", "LBTMSHI", "LAB RESULT/UPPER LIMIT OF NORMAL", "1.0", "DERIVED", "CLINICAL STUDY SPONSOR"], ["CDISCPILOT01", "LB", "01-701-1130", "LBSEQ", "95", "LBTMSHI", "LAB RESULT/UPPER LIMIT OF NORMAL", "0.7", "DERIVED", "CLINICAL STUDY SPONSOR"], ["CDISCPILOT01", "LB", "01-701-1130", "LBSEQ", "98", "LBTMSHI", "LAB RESULT/UPPER LIMIT OF NORMAL", "0.5", "DERIVED", "CLINICAL STUDY SPONSOR"], ["CDISCPILOT01", "LB", "01-701-1130", "LBSEQ", "100", "LBTMSHI", "LAB RESULT/UPPER LIMIT OF NORMAL", "0.6", "DERIVED", "CLINICAL STUDY SPONSOR"], ["CDISCPILOT01", "LB", "01-701-1130", "LBSEQ", "102", "LBTMSHI", "LAB RESULT/UPPER LIMIT OF NORMAL", "0.6", "DERIVED", "CLINICAL STUDY SPONSOR"], ["CDISCPILOT01", "LB", "01-701-1130", "LBSEQ", "107", "LBTMSHI", "LAB RESULT/UPPER LIMIT OF NORMAL", "0.3", "DERIVED", "CLINICAL STUDY SPONSOR"], ["CDISCPILOT01", "LB", "01-701-1130", "LBSEQ", "115", "LBTMSHI", "LAB RESULT/UPPER LIMIT OF NORMAL", "0.3", "DERIVED", "CLINICAL STUDY SPONSOR"], ["CDISCPILOT01", "LB", "01-701-1130", "LBSEQ", "118", "LBTMSHI", "LAB RESULT/UPPER LIMIT OF NORMAL", "0.7", "DERIVED", "CLINICAL STUDY SPONSOR"], ["CDISCPILOT01", "LB", "01-701-1130", "LBSEQ", "119", "LBTMSHI", "LAB RESULT/UPPER LIMIT OF NORMAL", "0.7", "DERIVED", "CLINICAL STUDY SPONSOR"], ["CDISCPILOT01", "LB", "01-701-1130", "LBSEQ", "121", "LBTMSHI", "LAB RESULT/UPPER LIMIT OF NORMAL", "0.7", "DERIVED", "CLINICAL STUDY SPONSOR"], ["CDISCPILOT01", "LB", "01-701-1130", "LBSEQ", "122", "LBTMSHI", "LAB RESULT/UPPER LIMIT OF NORMAL", "0.9", "DERIVED", "CLINICAL STUDY SPONSOR"], ["CDISCPILOT01", "LB", "01-701-1130", "LBSEQ", "123", "LBTMSHI", "LAB RESULT/UPPER LIMIT OF NORMAL", "0.9", "DERIVED", "CLINICAL STUDY SPONSOR"], ["CDISCPILOT01", "LB", "01-701-1130", "LBSEQ", "124", "LBTMSHI", "LAB RESULT/UPPER LIMIT OF NORMAL", "1.0", "DERIVED", "CLINICAL STUDY SPONSOR"], ["CDISCPILOT01", "LB", "01-701-1130", "LBSEQ", "125", "LBTMSHI", "LAB RESULT/UPPER LIMIT OF NORMAL", "0.7", "DERIVED", "CLINICAL STUDY SPONSOR"], ["CDISCPILOT01", "LB", "01-701-1130", "LBSEQ", "128", "LBTMSHI", "LAB RESULT/UPPER LIMIT OF NORMAL", "0.6", "DERIVED", "CLINICAL STUDY SPONSOR"], ["CDISCPILOT01", "LB", "01-701-1130", "LBSEQ", "130", "LBTMSHI", "LAB RESULT/UPPER LIMIT OF NORMAL", "0.6", "DERIVED", "CLINICAL STUDY SPONSOR"], ["CDISCPILOT01", "LB", "01-701-1130", "LBSEQ", "132", "LBTMSHI", "LAB RESULT/UPPER LIMIT OF NORMAL", "0.6", "DERIVED", "CLINICAL STUDY SPONSOR"], ["CDISCPILOT01", "LB", "01-701-1130", "LBSEQ", "137", "LBTMSHI", "LAB RESULT/UPPER LIMIT OF NORMAL", "0.2", "DERIVED", "CLINICAL STUDY SPONSOR"], ["CDISCPILOT01", "LB", "01-701-1130", "LBSEQ", "145", "LBTMSHI", "LAB RESULT/UPPER LIMIT OF NORMAL", "0.3", "DERIVED", "CLINICAL STUDY SPONSOR"], ["CDISCPILOT01", "LB", "01-701-1130", "LBSEQ", "148", "LBTMSHI", "LAB RESULT/UPPER LIMIT OF NORMAL", "0.6", "DERIVED", "CLINICAL STUDY SPONSOR"], ["CDISCPILOT01", "LB", "01-701-1130", "LBSEQ", "149", "LBTMSHI", "LAB RESULT/UPPER LIMIT OF NORMAL", "0.7", "DERIVED", "CLINICAL STUDY SPONSOR"], ["CDISCPILOT01", "LB", "01-701-1130", "LBSEQ", "151", "LBTMSHI", "LAB RESULT/UPPER LIMIT OF NORMAL", "0.7", "DERIVED", "CLINICAL STUDY SPONSOR"], ["CDISCPILOT01", "LB", "01-701-1130", "LBSEQ", "152", "LBTMSHI", "LAB RESULT/UPPER LIMIT OF NORMAL", "0.9", "DERIVED", "CLINICAL STUDY SPONSOR"], ["CDISCPILOT01", "LB", "01-701-1130", "LBSEQ", "153", "LBTMSHI", "LAB RESULT/UPPER LIMIT OF NORMAL", "0.9", "DERIVED", "CLINICAL STUDY SPONSOR"], ["CDISCPILOT01", "LB", "01-701-1130", "LBSEQ", "154", "LBTMSHI", "LAB RESULT/UPPER LIMIT OF NORMAL", "1.0", "DERIVED", "CLINICAL STUDY SPONSOR"], ["CDISCPILOT01", "LB", "01-701-1130", "LBSEQ", "155", "LBTMSHI", "LAB RESULT/UPPER LIMIT OF NORMAL", "0.6", "DERIVED", "CLINICAL STUDY SPONSOR"], ["CDISCPILOT01", "LB", "01-701-1130", "LBSEQ", "158", "LBTMSHI", "LAB RESULT/UPPER LIMIT OF NORMAL", "0.5", "DERIVED", "CLINICAL STUDY SPONSOR"], ["CDISCPILOT01", "LB", "01-701-1130", "LBSEQ", "160", "LBTMSHI", "LAB RESULT/UPPER LIMIT OF NORMAL", "0.6", "DERIVED", "CLINICAL STUDY SPONSOR"], ["CDISCPILOT01", "LB", "01-701-1130", "LBSEQ", "162", "LBTMSHI", "LAB RESULT/UPPER LIMIT OF NORMAL", "0.6", "DERIVED", "CLINICAL STUDY SPONSOR"], ["CDISCPILOT01", "LB", "01-701-1130", "LBSEQ", "167", "LBTMSHI", "LAB RESULT/UPPER LIMIT OF NORMAL", "0.2", "DERIVED", "CLINICAL STUDY SPONSOR"], ["CDISCPILOT01", "LB", "01-701-1130", "LBSEQ", "176", "LBTMSHI", "LAB RESULT/UPPER LIMIT OF NORMAL", "0.4", "DERIVED", "CLINICAL STUDY SPONSOR"], ["CDISCPILOT01", "LB", "01-701-1130", "LBSEQ", "179", "LBTMSHI", "LAB RESULT/UPPER LIMIT OF NORMAL", "0.6", "DERIVED", "CLINICAL STUDY SPONSOR"], ["CDISCPILOT01", "LB", "01-701-1130", "LBSEQ", "180", "LBTMSHI", "LAB RESULT/UPPER LIMIT OF NORMAL", "0.7", "DERIVED", "CLINICAL STUDY SPONSOR"], ["CDISCPILOT01", "LB", "01-701-1130", "LBSEQ", "183", "LBTMSHI", "LAB RESULT/UPPER LIMIT OF NORMAL", "0.8", "DERIVED", "CLINICAL STUDY SPONSOR"], ["CDISCPILOT01", "LB", "01-701-1130", "LBSEQ", "184", "LBTMSHI", "LAB RESULT/UPPER LIMIT OF NORMAL", "1.0", "DERIVED", "CLINICAL STUDY SPONSOR"], ["CDISCPILOT01", "LB", "01-701-1130", "LBSEQ", "185", "LBTMSHI", "LAB RESULT/UPPER LIMIT OF NORMAL", "0.9", "DERIVED", "CLINICAL STUDY SPONSOR"], ["CDISCPILOT01", "LB", "01-701-1130", "LBSEQ", "186", "LBTMSHI", "LAB RESULT/UPPER LIMIT OF NORMAL", "0.9", "DERIVED", "CLINICAL STUDY SPONSOR"], ["CDISCPILOT01", "LB", "01-701-1130", "LBSEQ", "187", "LBTMSHI", "LAB RESULT/UPPER LIMIT OF NORMAL", "0.7", "DERIVED", "CLINICAL STUDY SPONSOR"], ["CDISCPILOT01", "LB", "01-701-1130", "LBSEQ", "191", "LBTMSHI", "LAB RESULT/UPPER LIMIT OF NORMAL", "0.5", "DERIVED", "CLINICAL STUDY SPONSOR"], ["CDISCPILOT01", "LB", "01-701-1130", "LBSEQ", "193", "LBTMSHI", "LAB RESULT/UPPER LIMIT OF NORMAL", "0.6", "DERIVED", "CLINICAL STUDY SPONSOR"], ["CDISCPILOT01", "LB", "01-701-1130", "LBSEQ", "197", "LBTMSHI", "LAB RESULT/UPPER LIMIT OF NORMAL", "0.8", "DERIVED", "CLINICAL STUDY SPONSOR"], ["CDISCPILOT01", "LB", "01-701-1130", "LBSEQ", "202", "LBTMSHI", "LAB RESULT/UPPER LIMIT OF NORMAL", "0.3", "DERIVED", "CLINICAL STUDY SPONSOR"], ["CDISCPILOT01", "LB", "01-701-1130", "LBSEQ", "210", "LBTMSHI", "LAB RESULT/UPPER LIMIT OF NORMAL", "0.1", "DERIVED", "CLINICAL STUDY SPONSOR"], ["CDISCPILOT01", "LB", "01-701-1130", "LBSEQ", "213", "LBTMSHI", "LAB RESULT/UPPER LIMIT OF NORMAL", "0.7", "DERIVED", "CLINICAL STUDY SPONSOR"], ["CDISCPILOT01", "LB", "01-701-1130", "LBSEQ", "214", "LBTMSHI", "LAB RESULT/UPPER LIMIT OF NORMAL", "0.7", "DERIVED", "CLINICAL STUDY SPONSOR"], ["CDISCPILOT01", "LB", "01-701-1130", "LBSEQ", "216", "LBTMSHI", "LAB RESULT/UPPER LIMIT OF NORMAL", "0.7", "DERIVED", "CLINICAL STUDY SPONSOR"], ["CDISCPILOT01", "LB", "01-701-1130", "LBSEQ", "217", "LBTMSHI", "LAB RESULT/UPPER LIMIT OF NORMAL", "1.0", "DERIVED", "CLINICAL STUDY SPONSOR"], ["CDISCPILOT01", "LB", "01-701-1130", "LBSEQ", "218", "LBTMSHI", "LAB RESULT/UPPER LIMIT OF NORMAL", "0.8", "DERIVED", "CLINICAL STUDY SPONSOR"], ["CDISCPILOT01", "LB", "01-701-1130", "LBSEQ", "219", "LBTMSHI", "LAB RESULT/UPPER LIMIT OF NORMAL", "1.1", "DERIVED", "CLINICAL STUDY SPONSOR"], ["CDISCPILOT01", "LB", "01-701-1130", "LBSEQ", "220", "LBTMSHI", "LAB RESULT/UPPER LIMIT OF NORMAL", "0.6", "DERIVED", "CLINICAL STUDY SPONSOR"], ["CDISCPILOT01", "LB", "01-701-1130", "LBSEQ", "223", "LBTMSHI", "LAB RESULT/UPPER LIMIT OF NORMAL", "0.5", "DERIVED", "CLINICAL STUDY SPONSOR"], ["CDISCPILOT01", "LB", "01-701-1130", "LBSEQ", "225", "LBTMSHI", "LAB RESULT/UPPER LIMIT OF NORMAL", "0.6", "DERIVED", "CLINICAL STUDY SPONSOR"], ["CDISCPILOT01", "LB", "01-701-1130", "LBSEQ", "227", "LBTMSHI", "LAB RESULT/UPPER LIMIT OF NORMAL", "0.6", "DERIVED", "CLINICAL STUDY SPONSOR"], ["CDISCPILOT01", "LB", "01-701-1130", "LBSEQ", "232", "LBTMSHI", "LAB RESULT/UPPER LIMIT OF NORMAL", "0.3", "DERIVED", "CLINICAL STUDY SPONSOR"], ["CDISCPILOT01", "LB", "01-701-1130", "LBSEQ", "240", "LBTMSHI", "LAB RESULT/UPPER LIMIT OF NORMAL", "0.4", "DERIVED", "CLINICAL STUDY SPONSOR"], ["CDISCPILOT01", "LB", "01-701-1130", "LBSEQ", "243", "LBTMSHI", "LAB RESULT/UPPER LIMIT OF NORMAL", "0.6", "DERIVED", "CLINICAL STUDY SPONSOR"], ["CDISCPILOT01", "LB", "01-701-1130", "LBSEQ", "244", "LBTMSHI", "LAB RESULT/UPPER LIMIT OF NORMAL", "0.7", "DERIVED", "CLINICAL STUDY SPONSOR"], ["CDISCPILOT01", "LB", "01-701-1130", "LBSEQ", "246", "LBTMSHI", "LAB RESULT/UPPER LIMIT OF NORMAL", "0.8", "DERIVED", "CLINICAL STUDY SPONSOR"], ["CDISCPILOT01", "LB", "01-701-1130", "LBSEQ", "247", "LBTMSHI", "LAB RESULT/UPPER LIMIT OF NORMAL", "0.9", "DERIVED", "CLINICAL STUDY SPONSOR"], ["CDISCPILOT01", "LB", "01-701-1130", "LBSEQ", "248", "LBTMSHI", "LAB RESULT/UPPER LIMIT OF NORMAL", "0.9", "DERIVED", "CLINICAL STUDY SPONSOR"], ["CDISCPILOT01", "LB", "01-701-1130", "LBSEQ", "249", "LBTMSHI", "LAB RESULT/UPPER LIMIT OF NORMAL", "1.0", "DERIVED", "CLINICAL STUDY SPONSOR"], ["CDISCPILOT01", "LB", "01-701-1130", "LBSEQ", "250", "LBTMSHI", "LAB RESULT/UPPER LIMIT OF NORMAL", "0.8", "DERIVED", "CLINICAL STUDY SPONSOR"], ["CDISCPILOT01", "LB", "01-701-1130", "LBSEQ", "253", "LBTMSHI", "LAB RESULT/UPPER LIMIT OF NORMAL", "0.6", "DERIVED", "CLINICAL STUDY SPONSOR"], ["CDISCPILOT01", "LB", "01-701-1130", "LBSEQ", "255", "LBTMSHI", "LAB RESULT/UPPER LIMIT OF NORMAL", "0.6", "DERIVED", "CLINICAL STUDY SPONSOR"], ["CDISCPILOT01", "LB", "01-701-1130", "LBSEQ", "257", "LBTMSHI", "LAB RESULT/UPPER LIMIT OF NORMAL", "0.7", "DERIVED", "CLINICAL STUDY SPONSOR"], ["CDISCPILOT01", "LB", "01-701-1130", "LBSEQ", "262", "ENDPOINT", "ENDPOINT VALUE FLAG", "Y", "DERIVED", "CLINICAL STUDY SPONSOR"], ["CDISCPILOT01", "LB", "01-701-1130", "LBSEQ", "262", "LBTMSHI", "LAB RESULT/UPPER LIMIT OF NORMAL", "0.2", "DERIVED", "CLINICAL STUDY SPONSOR"], ["CDISCPILOT01", "LB", "01-701-1130", "LBSEQ", "271", "ENDPOINT", "ENDPOINT VALUE FLAG", "Y", "DERIVED", "CLINICAL STUDY SPONSOR"], ["CDISCPILOT01", "LB", "01-701-1130", "LBSEQ", "271", "LBTMSHI", "LAB RESULT/UPPER LIMIT OF NORMAL", "0.4", "DERIVED", "CLINICAL STUDY SPONSOR"], ["CDISCPILOT01", "LB", "01-701-1130", "LBSEQ", "274", "ENDPOINT", "ENDPOINT VALUE FLAG", "Y", "DERIVED", "CLINICAL STUDY SPONSOR"], ["CDISCPILOT01", "LB", "01-701-1130", "LBSEQ", "274", "LBTMSHI", "LAB RESULT/UPPER LIMIT OF NORMAL", "0.7", "DERIVED", "CLINICAL STUDY SPONSOR"], ["CDISCPILOT01", "LB", "01-701-1130", "LBSEQ", "275", "ENDPOINT", "ENDPOINT VALUE FLAG", "Y", "DERIVED", "CLINICAL STUDY SPONSOR"], ["CDISCPILOT01", "LB", "01-701-1130", "LBSEQ", "275", "LBTMSHI", "LAB RESULT/UPPER LIMIT OF NORMAL", "0.7", "DERIVED", "CLINICAL STUDY SPONSOR"], ["CDISCPILOT01", "LB", "01-701-1130", "LBSEQ", "278", "ENDPOINT", "ENDPOINT VALUE FLAG", "Y", "DERIVED", "CLINICAL STUDY SPONSOR"], ["CDISCPILOT01", "LB", "01-701-1130", "LBSEQ", "278", "LBTMSHI", "LAB RESULT/UPPER LIMIT OF NORMAL", "0.7", "DERIVED", "CLINICAL STUDY SPONSOR"], ["CDISCPILOT01", "LB", "01-701-1130", "LBSEQ", "279", "ENDPOINT", "ENDPOINT VALUE FLAG", "Y", "DERIVED", "CLINICAL STUDY SPONSOR"], ["CDISCPILOT01", "LB", "01-701-1130", "LBSEQ", "279", "LBTMSHI", "LAB RESULT/UPPER LIMIT OF NORMAL", "1.0", "DERIVED", "CLINICAL STUDY SPONSOR"], ["CDISCPILOT01", "LB", "01-701-1130", "LBSEQ", "280", "ENDPOINT", "ENDPOINT VALUE FLAG", "Y", "DERIVED", "CLINICAL STUDY SPONSOR"], ["CDISCPILOT01", "LB", "01-701-1130", "LBSEQ", "280", "LBTMSHI", "LAB RESULT/UPPER LIMIT OF NORMAL", "0.9", "DERIVED", "CLINICAL STUDY SPONSOR"], ["CDISCPILOT01", "LB", "01-701-1130", "LBSEQ", "281", "ENDPOINT", "ENDPOINT VALUE FLAG", "Y", "DERIVED", "CLINICAL STUDY SPONSOR"], ["CDISCPILOT01", "LB", "01-701-1130", "LBSEQ", "281", "LBTMSHI", "LAB RESULT/UPPER LIMIT OF NORMAL", "1.0", "DERIVED", "CLINICAL STUDY SPONSOR"], ["CDISCPILOT01", "LB", "01-701-1130", "LBSEQ", "282", "ENDPOINT", "ENDPOINT VALUE FLAG", "Y", "DERIVED", "CLINICAL STUDY SPONSOR"], ["CDISCPILOT01", "LB", "01-701-1130", "LBSEQ", "282", "LBTMSHI", "LAB RESULT/UPPER LIMIT OF NORMAL", "0.6", "DERIVED", "CLINICAL STUDY SPONSOR"], ["CDISCPILOT01", "LB", "01-701-1130", "LBSEQ", "286", "ENDPOINT", "ENDPOINT VALUE FLAG", "Y", "DERIVED", "CLINICAL STUDY SPONSOR"], ["CDISCPILOT01", "LB", "01-701-1130", "LBSEQ", "286", "LBTMSHI", "LAB RESULT/UPPER LIMIT OF NORMAL", "0.5", "DERIVED", "CLINICAL STUDY SPONSOR"], ["CDISCPILOT01", "LB", "01-701-1130", "LBSEQ", "288", "ENDPOINT", "ENDPOINT VALUE FLAG", "Y", "DERIVED", "CLINICAL STUDY SPONSOR"], ["CDISCPILOT01", "LB", "01-701-1130", "LBSEQ", "288", "LBTMSHI", "LAB RESULT/UPPER LIMIT OF NORMAL", "0.6", "DERIVED", "CLINICAL STUDY SPONSOR"], ["CDISCPILOT01", "LB", "01-701-1130", "LBSEQ", "292", "ENDPOINT", "ENDPOINT VALUE FLAG", "Y", "DERIVED", "CLINICAL STUDY SPONSOR"], ["CDISCPILOT01", "LB", "01-701-1130", "LBSEQ", "292", "LBTMSHI", "LAB RESULT/UPPER LIMIT OF NORMAL", "0.7", "DERIVED", "CLINICAL STUDY SPONSOR"], ["CDISCPILOT01", "LB", "01-701-1130", "LBSEQ", "297", "LBTMSHI", "LAB RESULT/UPPER LIMIT OF NORMAL", "0.3", "DERIVED", "CLINICAL STUDY SPONSOR"], ["CDISCPILOT01", "LB", "01-701-1130", "LBSEQ", "305", "LBTMSHI", "LAB RESULT/UPPER LIMIT OF NORMAL", "0.7", "DERIVED", "CLINICAL STUDY SPONSOR"], ["CDISCPILOT01", "LB", "01-701-1130", "LBSEQ", "308", "LBTMSHI", "LAB RESULT/UPPER LIMIT OF NORMAL", "0.7", "DERIVED", "CLINICAL STUDY SPONSOR"], ["CDISCPILOT01", "LB", "01-701-1130", "LBSEQ", "309", "LBTMSHI", "LAB RESULT/UPPER LIMIT OF NORMAL", "0.7", "DERIVED", "CLINICAL STUDY SPONSOR"], ["CDISCPILOT01", "LB", "01-701-1130", "LBSEQ", "311", "LBTMSHI", "LAB RESULT/UPPER LIMIT OF NORMAL", "0.9", "DERIVED", "CLINICAL STUDY SPONSOR"], ["CDISCPILOT01", "LB", "01-701-1130", "LBSEQ", "312", "LBTMSHI", "LAB RESULT/UPPER LIMIT OF NORMAL", "1.0", "DERIVED", "CLINICAL STUDY SPONSOR"], ["CDISCPILOT01", "LB", "01-701-1130", "LBSEQ", "313", "LBTMSHI", "LAB RESULT/UPPER LIMIT OF NORMAL", "0.9", "DERIVED", "CLINICAL STUDY SPONSOR"], ["CDISCPILOT01", "LB", "01-701-1130", "LBSEQ", "314", "LBTMSHI", "LAB RESULT/UPPER LIMIT OF NORMAL", "0.9", "DERIVED", "CLINICAL STUDY SPONSOR"], ["CDISCPILOT01", "LB", "01-701-1130", "LBSEQ", "315", "LBTMSHI", "LAB RESULT/UPPER LIMIT OF NORMAL", "0.7", "DERIVED", "CLINICAL STUDY SPONSOR"], ["CDISCPILOT01", "LB", "01-701-1130", "LBSEQ", "318", "LBTMSHI", "LAB RESULT/UPPER LIMIT OF NORMAL", "0.5", "DERIVED", "CLINICAL STUDY SPONSOR"], ["CDISCPILOT01", "LB", "01-701-1130", "LBSEQ", "320", "LBTMSHI", "LAB RESULT/UPPER LIMIT OF NORMAL", "0.6", "DERIVED", "CLINICAL STUDY SPONSOR"], ["CDISCPILOT01", "LB", "01-701-1130", "LBSEQ", "322", "LBTMSHI", "LAB RESULT/UPPER LIMIT OF NORMAL", "0.8", "DERIVED", "CLINICAL STUDY SPONSOR"], ["CDISCPILOT01", "LB", "01-701-1133", "LBSEQ", "5", "LBTMSHI", "LAB RESULT/UPPER LIMIT OF NORMAL", "0.3", "DERIVED", "CLINICAL STUDY SPONSOR"], ["CDISCPILOT01", "LB", "01-701-1133", "LBSEQ", "14", "LBTMSHI", "LAB RESULT/UPPER LIMIT OF NORMAL", "0.1", "DERIVED", "CLINICAL STUDY SPONSOR"], ["CDISCPILOT01", "LB", "01-701-1133", "LBSEQ", "17", "LBTMSHI", "LAB RESULT/UPPER LIMIT OF NORMAL", "1.0", "DERIVED", "CLINICAL STUDY SPONSOR"], ["CDISCPILOT01", "LB", "01-701-1133", "LBSEQ", "18", "LBTMSHI", "LAB RESULT/UPPER LIMIT OF NORMAL", "1.0", "DERIVED", "CLINICAL STUDY SPONSOR"], ["CDISCPILOT01", "LB", "01-701-1133", "LBSEQ", "21", "LBTMSHI", "LAB RESULT/UPPER LIMIT OF NORMAL", "0.5", "DERIVED", "CLINICAL STUDY SPONSOR"], ["CDISCPILOT01", "LB", "01-701-1133", "LBSEQ", "22", "LBTMSHI", "LAB RESULT/UPPER LIMIT OF NORMAL", "0.9", "DERIVED", "CLINICAL STUDY SPONSOR"], ["CDISCPILOT01", "LB", "01-701-1133", "LBSEQ", "23", "LBTMSHI", "LAB RESULT/UPPER LIMIT OF NORMAL", "0.9", "DERIVED", "CLINICAL STUDY SPONSOR"], ["CDISCPILOT01", "LB", "01-701-1133", "LBSEQ", "24", "LBTMSHI", "LAB RESULT/UPPER LIMIT OF NORMAL", "1.0", "DERIVED", "CLINICAL STUDY SPONSOR"], ["CDISCPILOT01", "LB", "01-701-1133", "LBSEQ", "25", "LBTMSHI", "LAB RESULT/UPPER LIMIT OF NORMAL", "0.5", "DERIVED", "CLINICAL STUDY SPONSOR"], ["CDISCPILOT01", "LB", "01-701-1133", "LBSEQ", "29", "LBTMSHI", "LAB RESULT/UPPER LIMIT OF NORMAL", "0.5", "DERIVED", "CLINICAL STUDY SPONSOR"], ["CDISCPILOT01", "LB", "01-701-1133", "LBSEQ", "31", "LBTMSHI", "LAB RESULT/UPPER LIMIT OF NORMAL", "0.9", "DERIVED", "CLINICAL STUDY SPONSOR"], ["CDISCPILOT01", "LB", "01-701-1133", "LBSEQ", "37", "LBTMSHI", "LAB RESULT/UPPER LIMIT OF NORMAL", "0.6", "DERIVED", "CLINICAL STUDY SPONSOR"], ["CDISCPILOT01", "LB", "01-701-1133", "LBSEQ", "38", "LBTMSHI", "LAB RESULT/UPPER LIMIT OF NORMAL", "0.3", "DERIVED", "CLINICAL STUDY SPONSOR"], ["CDISCPILOT01", "LB", "01-701-1133", "LBSEQ", "40", "LBTMSHI", "LAB RESULT/UPPER LIMIT OF NORMAL", "0.1", "DERIVED", "CLINICAL STUDY SPONSOR"], ["CDISCPILOT01", "LB", "01-701-1133", "LBSEQ", "41", "LBTMSHI", "LAB RESULT/UPPER LIMIT OF NORMAL", "1.0", "DERIVED", "CLINICAL STUDY SPONSOR"], ["CDISCPILOT01", "LB", "01-701-1133", "LBSEQ", "42", "LBTMSHI", "LAB RESULT/UPPER LIMIT OF NORMAL", "1.0", "DERIVED", "CLINICAL STUDY SPONSOR"], ["CDISCPILOT01", "LB", "01-701-1133", "LBSEQ", "44", "LBTMSHI", "LAB RESULT/UPPER LIMIT OF NORMAL", "0.5", "DERIVED", "CLINICAL STUDY SPONSOR"], ["CDISCPILOT01", "LB", "01-701-1133", "LBSEQ", "45", "LBTMSHI", "LAB RESULT/UPPER LIMIT OF NORMAL", "0.9", "DERIVED", "CLINICAL STUDY SPONSOR"], ["CDISCPILOT01", "LB", "01-701-1133", "LBSEQ", "46", "LBTMSHI", "LAB RESULT/UPPER LIMIT OF NORMAL", "0.8", "DERIVED", "CLINICAL STUDY SPONSOR"], ["CDISCPILOT01", "LB", "01-701-1133", "LBSEQ", "47", "LBTMSHI", "LAB RESULT/UPPER LIMIT OF NORMAL", "1.0", "DERIVED", "CLINICAL STUDY SPONSOR"], ["CDISCPILOT01", "LB", "01-701-1133", "LBSEQ", "48", "LBTMSHI", "LAB RESULT/UPPER LIMIT OF NORMAL", "0.5", "DERIVED", "CLINICAL STUDY SPONSOR"], ["CDISCPILOT01", "LB", "01-701-1133", "LBSEQ", "50", "LBTMSHI", "LAB RESULT/UPPER LIMIT OF NORMAL", "0.5", "DERIVED", "CLINICAL STUDY SPONSOR"], ["CDISCPILOT01", "LB", "01-701-1133", "LBSEQ", "51", "LBTMSHI", "LAB RESULT/UPPER LIMIT OF NORMAL", "0.9", "DERIVED", "CLINICAL STUDY SPONSOR"], ["CDISCPILOT01", "LB", "01-701-1133", "LBSEQ", "54", "LBTMSHI", "LAB RESULT/UPPER LIMIT OF NORMAL", "0.6", "DERIVED", "CLINICAL STUDY SPONSOR"], ["CDISCPILOT01", "LB", "01-701-1133", "LBSEQ", "59", "LBTMSHI", "LAB RESULT/UPPER LIMIT OF NORMAL", "0.2", "DERIVED", "CLINICAL STUDY SPONSOR"], ["CDISCPILOT01", "LB", "01-701-1133", "LBSEQ", "67", "LBTMSHI", "LAB RESULT/UPPER LIMIT OF NORMAL", "0.1", "DERIVED", "CLINICAL STUDY SPONSOR"], ["CDISCPILOT01", "LB", "01-701-1133", "LBSEQ", "70", "LBTMSHI", "LAB RESULT/UPPER LIMIT OF NORMAL", "1.0", "DERIVED", "CLINICAL STUDY SPONSOR"], ["CDISCPILOT01", "LB", "01-701-1133", "LBSEQ", "71", "LBTMSHI", "LAB RESULT/UPPER LIMIT OF NORMAL", "1.0", "DERIVED", "CLINICAL STUDY SPONSOR"], ["CDISCPILOT01", "LB", "01-701-1133", "LBSEQ", "73", "LBTMSHI", "LAB RESULT/UPPER LIMIT OF NORMAL", "0.6", "DERIVED", "CLINICAL STUDY SPONSOR"], ["CDISCPILOT01", "LB", "01-701-1133", "LBSEQ", "74", "LBTMSHI", "LAB RESULT/UPPER LIMIT OF NORMAL", "0.9", "DERIVED", "CLINICAL STUDY SPONSOR"], ["CDISCPILOT01", "LB", "01-701-1133", "LBSEQ", "75", "LBTMSHI", "LAB RESULT/UPPER LIMIT OF NORMAL", "0.9", "DERIVED", "CLINICAL STUDY SPONSOR"], ["CDISCPILOT01", "LB", "01-701-1133", "LBSEQ", "76", "LBTMSHI", "LAB RESULT/UPPER LIMIT OF NORMAL", "1.0", "DERIVED", "CLINICAL STUDY SPONSOR"], ["CDISCPILOT01", "LB", "01-701-1133", "LBSEQ", "77", "LBTMSHI", "LAB RESULT/UPPER LIMIT OF NORMAL", "0.5", "DERIVED", "CLINICAL STUDY SPONSOR"], ["CDISCPILOT01", "LB", "01-701-1133", "LBSEQ", "80", "LBTMSHI", "LAB RESULT/UPPER LIMIT OF NORMAL", "0.5", "DERIVED", "CLINICAL STUDY SPONSOR"], ["CDISCPILOT01", "LB", "01-701-1133", "LBSEQ", "82", "LBTMSHI", "LAB RESULT/UPPER LIMIT OF NORMAL", "0.9", "DERIVED", "CLINICAL STUDY SPONSOR"], ["CDISCPILOT01", "LB", "01-701-1133", "LBSEQ", "84", "LBTMSHI", "LAB RESULT/UPPER LIMIT OF NORMAL", "0.7", "DERIVED", "CLINICAL STUDY SPONSOR"], ["CDISCPILOT01", "LB", "01-701-1133", "LBSEQ", "89", "LBTMSHI", "LAB RESULT/UPPER LIMIT OF NORMAL", "0.2", "DERIVED", "CLINICAL STUDY SPONSOR"], ["CDISCPILOT01", "LB", "01-701-1133", "LBSEQ", "97", "LBTMSHI", "LAB RESULT/UPPER LIMIT OF NORMAL", "0.2", "DERIVED", "CLINICAL STUDY SPONSOR"], ["CDISCPILOT01", "LB", "01-701-1133", "LBSEQ", "100", "LBTMSHI", "LAB RESULT/UPPER LIMIT OF NORMAL", "0.9", "DERIVED", "CLINICAL STUDY SPONSOR"], ["CDISCPILOT01", "LB", "01-701-1133", "LBSEQ", "101", "LBTMSHI", "LAB RESULT/UPPER LIMIT OF NORMAL", "0.9", "DERIVED", "CLINICAL STUDY SPONSOR"], ["CDISCPILOT01", "LB", "01-701-1133", "LBSEQ", "103", "LBTMSHI", "LAB RESULT/UPPER LIMIT OF NORMAL", "0.6", "DERIVED", "CLINICAL STUDY SPONSOR"], ["CDISCPILOT01", "LB", "01-701-1133", "LBSEQ", "104", "LBTMSHI", "LAB RESULT/UPPER LIMIT OF NORMAL", "0.9", "DERIVED", "CLINICAL STUDY SPONSOR"], ["CDISCPILOT01", "LB", "01-701-1133", "LBSEQ", "105", "LBTMSHI", "LAB RESULT/UPPER LIMIT OF NORMAL", "0.9", "DERIVED", "CLINICAL STUDY SPONSOR"], ["CDISCPILOT01", "LB", "01-701-1133", "LBSEQ", "106", "LBTMSHI", "LAB RESULT/UPPER LIMIT OF NORMAL", "0.9", "DERIVED", "CLINICAL STUDY SPONSOR"], ["CDISCPILOT01", "LB", "01-701-1133", "LBSEQ", "107", "LBTMSHI", "LAB RESULT/UPPER LIMIT OF NORMAL", "0.7", "DERIVED", "CLINICAL STUDY SPONSOR"], ["CDISCPILOT01", "LB", "01-701-1133", "LBSEQ", "110", "LBTMSHI", "LAB RESULT/UPPER LIMIT OF NORMAL", "0.5", "DERIVED", "CLINICAL STUDY SPONSOR"], ["CDISCPILOT01", "LB", "01-701-1133", "LBSEQ", "112", "LBTMSHI", "LAB RESULT/UPPER LIMIT OF NORMAL", "0.9", "DERIVED", "CLINICAL STUDY SPONSOR"], ["CDISCPILOT01", "LB", "01-701-1133", "LBSEQ", "114", "LBTMSHI", "LAB RESULT/UPPER LIMIT OF NORMAL", "0.8", "DERIVED", "CLINICAL STUDY SPONSOR"], ["CDISCPILOT01", "LB", "01-701-1133", "LBSEQ", "119", "LBTMSHI", "LAB RESULT/UPPER LIMIT OF NORMAL", "0.2", "DERIVED", "CLINICAL STUDY SPONSOR"], ["CDISCPILOT01", "LB", "01-701-1133", "LBSEQ", "127", "LBTMSHI", "LAB RESULT/UPPER LIMIT OF NORMAL", "0.1", "DERIVED", "CLINICAL STUDY SPONSOR"], ["CDISCPILOT01", "LB", "01-701-1133", "LBSEQ", "130", "LBTMSHI", "LAB RESULT/UPPER LIMIT OF NORMAL", "0.9", "DERIVED", "CLINICAL STUDY SPONSOR"], ["CDISCPILOT01", "LB", "01-701-1133", "LBSEQ", "131", "LBTMSHI", "LAB RESULT/UPPER LIMIT OF NORMAL", "1.0", "DERIVED", "CLINICAL STUDY SPONSOR"], ["CDISCPILOT01", "LB", "01-701-1133", "LBSEQ", "133", "LBTMSHI", "LAB RESULT/UPPER LIMIT OF NORMAL", "0.4", "DERIVED", "CLINICAL STUDY SPONSOR"], ["CDISCPILOT01", "LB", "01-701-1133", "LBSEQ", "134", "LBTMSHI", "LAB RESULT/UPPER LIMIT OF NORMAL", "0.9", "DERIVED", "CLINICAL STUDY SPONSOR"], ["CDISCPILOT01", "LB", "01-701-1133", "LBSEQ", "135", "LBTMSHI", "LAB RESULT/UPPER LIMIT OF NORMAL", "0.9", "DERIVED", "CLINICAL STUDY SPONSOR"], ["CDISCPILOT01", "LB", "01-701-1133", "LBSEQ", "136", "LBTMSHI", "LAB RESULT/UPPER LIMIT OF NORMAL", "0.9", "DERIVED", "CLINICAL STUDY SPONSOR"], ["CDISCPILOT01", "LB", "01-701-1133", "LBSEQ", "137", "LBTMSHI", "LAB RESULT/UPPER LIMIT OF NORMAL", "0.6", "DERIVED", "CLINICAL STUDY SPONSOR"], ["CDISCPILOT01", "LB", "01-701-1133", "LBSEQ", "140", "LBTMSHI", "LAB RESULT/UPPER LIMIT OF NORMAL", "0.4", "DERIVED", "CLINICAL STUDY SPONSOR"], ["CDISCPILOT01", "LB", "01-701-1133", "LBSEQ", "142", "LBTMSHI", "LAB RESULT/UPPER LIMIT OF NORMAL", "0.9", "DERIVED", "CLINICAL STUDY SPONSOR"], ["CDISCPILOT01", "LB", "01-701-1133", "LBSEQ", "144", "LBTMSHI", "LAB RESULT/UPPER LIMIT OF NORMAL", "0.6", "DERIVED", "CLINICAL STUDY SPONSOR"], ["CDISCPILOT01", "LB", "01-701-1133", "LBSEQ", "149", "LBTMSHI", "LAB RESULT/UPPER LIMIT OF NORMAL", "0.3", "DERIVED", "CLINICAL STUDY SPONSOR"], ["CDISCPILOT01", "LB", "01-701-1133", "LBSEQ", "158", "LBTMSHI", "LAB RESULT/UPPER LIMIT OF NORMAL", "0.3", "DERIVED", "CLINICAL STUDY SPONSOR"], ["CDISCPILOT01", "LB", "01-701-1133", "LBSEQ", "161", "LBTMSHI", "LAB RESULT/UPPER LIMIT OF NORMAL", "0.9", "DERIVED", "CLINICAL STUDY SPONSOR"], ["CDISCPILOT01", "LB", "01-701-1133", "LBSEQ", "162", "LBTMSHI", "LAB RESULT/UPPER LIMIT OF NORMAL", "1.0", "DERIVED", "CLINICAL STUDY SPONSOR"], ["CDISCPILOT01", "LB", "01-701-1133", "LBSEQ", "165", "LBTMSHI", "LAB RESULT/UPPER LIMIT OF NORMAL", "0.6", "DERIVED", "CLINICAL STUDY SPONSOR"], ["CDISCPILOT01", "LB", "01-701-1133", "LBSEQ", "166", "LBTMSHI", "LAB RESULT/UPPER LIMIT OF NORMAL", "0.9", "DERIVED", "CLINICAL STUDY SPONSOR"], ["CDISCPILOT01", "LB", "01-701-1133", "LBSEQ", "167", "LBTMSHI", "LAB RESULT/UPPER LIMIT OF NORMAL", "0.9", "DERIVED", "CLINICAL STUDY SPONSOR"], ["CDISCPILOT01", "LB", "01-701-1133", "LBSEQ", "168", "LBTMSHI", "LAB RESULT/UPPER LIMIT OF NORMAL", "1.0", "DERIVED", "CLINICAL STUDY SPONSOR"], ["CDISCPILOT01", "LB", "01-701-1133", "LBSEQ", "169", "LBTMSHI", "LAB RESULT/UPPER LIMIT OF NORMAL", "0.7", "DERIVED", "CLINICAL STUDY SPONSOR"], ["CDISCPILOT01", "LB", "01-701-1133", "LBSEQ", "173", "LBTMSHI", "LAB RESULT/UPPER LIMIT OF NORMAL", "0.6", "DERIVED", "CLINICAL STUDY SPONSOR"], ["CDISCPILOT01", "LB", "01-701-1133", "LBSEQ", "175", "LBTMSHI", "LAB RESULT/UPPER LIMIT OF NORMAL", "0.9", "DERIVED", "CLINICAL STUDY SPONSOR"], ["CDISCPILOT01", "LB", "01-701-1133", "LBSEQ", "179", "LBTMSHI", "LAB RESULT/UPPER LIMIT OF NORMAL", "0.8", "DERIVED", "CLINICAL STUDY SPONSOR"], ["CDISCPILOT01", "LB", "01-701-1133", "LBSEQ", "184", "LBTMSHI", "LAB RESULT/UPPER LIMIT OF NORMAL", "0.2", "DERIVED", "CLINICAL STUDY SPONSOR"], ["CDISCPILOT01", "LB", "01-701-1133", "LBSEQ", "192", "LBTMSHI", "LAB RESULT/UPPER LIMIT OF NORMAL", "0.1", "DERIVED", "CLINICAL STUDY SPONSOR"], ["CDISCPILOT01", "LB", "01-701-1133", "LBSEQ", "195", "LBTMSHI", "LAB RESULT/UPPER LIMIT OF NORMAL", "0.9", "DERIVED", "CLINICAL STUDY SPONSOR"], ["CDISCPILOT01", "LB", "01-701-1133", "LBSEQ", "196", "LBTMSHI", "LAB RESULT/UPPER LIMIT OF NORMAL", "1.0", "DERIVED", "CLINICAL STUDY SPONSOR"], ["CDISCPILOT01", "LB", "01-701-1133", "LBSEQ", "198", "LBTMSHI", "LAB RESULT/UPPER LIMIT OF NORMAL", "0.4", "DERIVED", "CLINICAL STUDY SPONSOR"], ["CDISCPILOT01", "LB", "01-701-1133", "LBSEQ", "199", "LBTMSHI", "LAB RESULT/UPPER LIMIT OF NORMAL", "0.9", "DERIVED", "CLINICAL STUDY SPONSOR"], ["CDISCPILOT01", "LB", "01-701-1133", "LBSEQ", "200", "LBTMSHI", "LAB RESULT/UPPER LIMIT OF NORMAL", "0.9", "DERIVED", "CLINICAL STUDY SPONSOR"], ["CDISCPILOT01", "LB", "01-701-1133", "LBSEQ", "201", "LBTMSHI", "LAB RESULT/UPPER LIMIT OF NORMAL", "0.9", "DERIVED", "CLINICAL STUDY SPONSOR"], ["CDISCPILOT01", "LB", "01-701-1133", "LBSEQ", "202", "LBTMSHI", "LAB RESULT/UPPER LIMIT OF NORMAL", "0.7", "DERIVED", "CLINICAL STUDY SPONSOR"], ["CDISCPILOT01", "LB", "01-701-1133", "LBSEQ", "205", "LBTMSHI", "LAB RESULT/UPPER LIMIT OF NORMAL", "0.5", "DERIVED", "CLINICAL STUDY SPONSOR"], ["CDISCPILOT01", "LB", "01-701-1133", "LBSEQ", "207", "LBTMSHI", "LAB RESULT/UPPER LIMIT OF NORMAL", "0.9", "DERIVED", "CLINICAL STUDY SPONSOR"], ["CDISCPILOT01", "LB", "01-701-1133", "LBSEQ", "209", "LBTMSHI", "LAB RESULT/UPPER LIMIT OF NORMAL", "0.6", "DERIVED", "CLINICAL STUDY SPONSOR"], ["CDISCPILOT01", "LB", "01-701-1133", "LBSEQ", "214", "LBTMSHI", "LAB RESULT/UPPER LIMIT OF NORMAL", "0.3", "DERIVED", "CLINICAL STUDY SPONSOR"], ["CDISCPILOT01", "LB", "01-701-1133", "LBSEQ", "222", "LBTMSHI", "LAB RESULT/UPPER LIMIT OF NORMAL", "0.2", "DERIVED", "CLINICAL STUDY SPONSOR"], ["CDISCPILOT01", "LB", "01-701-1133", "LBSEQ", "225", "LBTMSHI", "LAB RESULT/UPPER LIMIT OF NORMAL", "0.9", "DERIVED", "CLINICAL STUDY SPONSOR"], ["CDISCPILOT01", "LB", "01-701-1133", "LBSEQ", "226", "LBTMSHI", "LAB RESULT/UPPER LIMIT OF NORMAL", "1.0", "DERIVED", "CLINICAL STUDY SPONSOR"], ["CDISCPILOT01", "LB", "01-701-1133", "LBSEQ", "228", "LBTMSHI", "LAB RESULT/UPPER LIMIT OF NORMAL", "0.4", "DERIVED", "CLINICAL STUDY SPONSOR"], ["CDISCPILOT01", "LB", "01-701-1133", "LBSEQ", "229", "LBTMSHI", "LAB RESULT/UPPER LIMIT OF NORMAL", "0.9", "DERIVED", "CLINICAL STUDY SPONSOR"], ["CDISCPILOT01", "LB", "01-701-1133", "LBSEQ", "230", "LBTMSHI", "LAB RESULT/UPPER LIMIT OF NORMAL", "0.9", "DERIVED", "CLINICAL STUDY SPONSOR"], ["CDISCPILOT01", "LB", "01-701-1133", "LBSEQ", "231", "LBTMSHI", "LAB RESULT/UPPER LIMIT OF NORMAL", "0.9", "DERIVED", "CLINICAL STUDY SPONSOR"], ["CDISCPILOT01", "LB", "01-701-1133", "LBSEQ", "232", "LBTMSHI", "LAB RESULT/UPPER LIMIT OF NORMAL", "0.6", "DERIVED", "CLINICAL STUDY SPONSOR"], ["CDISCPILOT01", "LB", "01-701-1133", "LBSEQ", "235", "LBTMSHI", "LAB RESULT/UPPER LIMIT OF NORMAL", "0.5", "DERIVED", "CLINICAL STUDY SPONSOR"], ["CDISCPILOT01", "LB", "01-701-1133", "LBSEQ", "237", "LBTMSHI", "LAB RESULT/UPPER LIMIT OF NORMAL", "0.9", "DERIVED", "CLINICAL STUDY SPONSOR"], ["CDISCPILOT01", "LB", "01-701-1133", "LBSEQ", "239", "LBTMSHI", "LAB RESULT/UPPER LIMIT OF NORMAL", "0.6", "DERIVED", "CLINICAL STUDY SPONSOR"], ["CDISCPILOT01", "LB", "01-701-1133", "LBSEQ", "244", "ENDPOINT", "ENDPOINT VALUE FLAG", "Y", "DERIVED", "CLINICAL STUDY SPONSOR"], ["CDISCPILOT01", "LB", "01-701-1133", "LBSEQ", "244", "LBTMSHI", "LAB RESULT/UPPER LIMIT OF NORMAL", "0.3", "DERIVED", "CLINICAL STUDY SPONSOR"], ["CDISCPILOT01", "LB", "01-701-1133", "LBSEQ", "253", "ENDPOINT", "ENDPOINT VALUE FLAG", "Y", "DERIVED", "CLINICAL STUDY SPONSOR"], ["CDISCPILOT01", "LB", "01-701-1133", "LBSEQ", "253", "LBTMSHI", "LAB RESULT/UPPER LIMIT OF NORMAL", "0.2", "DERIVED", "CLINICAL STUDY SPONSOR"], ["CDISCPILOT01", "LB", "01-701-1133", "LBSEQ", "256", "ENDPOINT", "ENDPOINT VALUE FLAG", "Y", "DERIVED", "CLINICAL STUDY SPONSOR"], ["CDISCPILOT01", "LB", "01-701-1133", "LBSEQ", "256", "LBTMSHI", "LAB RESULT/UPPER LIMIT OF NORMAL", "1.0", "DERIVED", "CLINICAL STUDY SPONSOR"], ["CDISCPILOT01", "LB", "01-701-1133", "LBSEQ", "257", "ENDPOINT", "ENDPOINT VALUE FLAG", "Y", "DERIVED", "CLINICAL STUDY SPONSOR"], ["CDISCPILOT01", "LB", "01-701-1133", "LBSEQ", "257", "LBTMSHI", "LAB RESULT/UPPER LIMIT OF NORMAL", "1.0", "DERIVED", "CLINICAL STUDY SPONSOR"], ["CDISCPILOT01", "LB", "01-701-1133", "LBSEQ", "260", "ENDPOINT", "ENDPOINT VALUE FLAG", "Y", "DERIVED", "CLINICAL STUDY SPONSOR"], ["CDISCPILOT01", "LB", "01-701-1133", "LBSEQ", "260", "LBTMSHI", "LAB RESULT/UPPER LIMIT OF NORMAL", "0.5", "DERIVED", "CLINICAL STUDY SPONSOR"], ["CDISCPILOT01", "LB", "01-701-1133", "LBSEQ", "261", "ENDPOINT", "ENDPOINT VALUE FLAG", "Y", "DERIVED", "CLINICAL STUDY SPONSOR"], ["CDISCPILOT01", "LB", "01-701-1133", "LBSEQ", "261", "LBTMSHI", "LAB RESULT/UPPER LIMIT OF NORMAL", "0.9", "DERIVED", "CLINICAL STUDY SPONSOR"], ["CDISCPILOT01", "LB", "01-701-1133", "LBSEQ", "262", "ENDPOINT", "ENDPOINT VALUE FLAG", "Y", "DERIVED", "CLINICAL STUDY SPONSOR"], ["CDISCPILOT01", "LB", "01-701-1133", "LBSEQ", "262", "LBTMSHI", "LAB RESULT/UPPER LIMIT OF NORMAL", "0.9", "DERIVED", "CLINICAL STUDY SPONSOR"], ["CDISCPILOT01", "LB", "01-701-1133", "LBSEQ", "263", "ENDPOINT", "ENDPOINT VALUE FLAG", "Y", "DERIVED", "CLINICAL STUDY SPONSOR"], ["CDISCPILOT01", "LB", "01-701-1133", "LBSEQ", "263", "LBTMSHI", "LAB RESULT/UPPER LIMIT OF NORMAL", "0.9", "DERIVED", "CLINICAL STUDY SPONSOR"], ["CDISCPILOT01", "LB", "01-701-1133", "LBSEQ", "264", "ENDPOINT", "ENDPOINT VALUE FLAG", "Y", "DERIVED", "CLINICAL STUDY SPONSOR"], ["CDISCPILOT01", "LB", "01-701-1133", "LBSEQ", "264", "LBTMSHI", "LAB RESULT/UPPER LIMIT OF NORMAL", "0.4", "DERIVED", "CLINICAL STUDY SPONSOR"], ["CDISCPILOT01", "LB", "01-701-1133", "LBSEQ", "268", "ENDPOINT", "ENDPOINT VALUE FLAG", "Y", "DERIVED", "CLINICAL STUDY SPONSOR"], ["CDISCPILOT01", "LB", "01-701-1133", "LBSEQ", "268", "LBTMSHI", "LAB RESULT/UPPER LIMIT OF NORMAL", "0.5", "DERIVED", "CLINICAL STUDY SPONSOR"], ["CDISCPILOT01", "LB", "01-701-1133", "LBSEQ", "270", "ENDPOINT", "ENDPOINT VALUE FLAG", "Y", "DERIVED", "CLINICAL STUDY SPONSOR"], ["CDISCPILOT01", "LB", "01-701-1133", "LBSEQ", "270", "LBTMSHI", "LAB RESULT/UPPER LIMIT OF NORMAL", "0.9", "DERIVED", "CLINICAL STUDY SPONSOR"], ["CDISCPILOT01", "LB", "01-701-1133", "LBSEQ", "274", "ENDPOINT", "ENDPOINT VALUE FLAG", "Y", "DERIVED", "CLINICAL STUDY SPONSOR"], ["CDISCPILOT01", "LB", "01-701-1133", "LBSEQ", "274", "LBTMSHI", "LAB RESULT/UPPER LIMIT OF NORMAL", "0.6", "DERIVED", "CLINICAL STUDY SPONSOR"], ["CDISCPILOT01", "LB", "01-701-1133", "LBSEQ", "279", "LBTMSHI", "LAB RESULT/UPPER LIMIT OF NORMAL", "0.2", "DERIVED", "CLINICAL STUDY SPONSOR"], ["CDISCPILOT01", "LB", "01-701-1133", "LBSEQ", "287", "LBTMSHI", "LAB RESULT/UPPER LIMIT OF NORMAL", "0.1", "DERIVED", "CLINICAL STUDY SPONSOR"], ["CDISCPILOT01", "LB", "01-701-1133", "LBSEQ", "290", "LBTMSHI", "LAB RESULT/UPPER LIMIT OF NORMAL", "1.0", "DERIVED", "CLINICAL STUDY SPONSOR"], ["CDISCPILOT01", "LB", "01-701-1133", "LBSEQ", "291", "LBTMSHI", "LAB RESULT/UPPER LIMIT OF NORMAL", "1.0", "DERIVED", "CLINICAL STUDY SPONSOR"], ["CDISCPILOT01", "LB", "01-701-1133", "LBSEQ", "293", "LBTMSHI", "LAB RESULT/UPPER LIMIT OF NORMAL", "0.5", "DERIVED", "CLINICAL STUDY SPONSOR"], ["CDISCPILOT01", "LB", "01-701-1133", "LBSEQ", "294", "LBTMSHI", "LAB RESULT/UPPER LIMIT OF NORMAL", "0.9", "DERIVED", "CLINICAL STUDY SPONSOR"], ["CDISCPILOT01", "LB", "01-701-1133", "LBSEQ", "295", "LBTMSHI", "LAB RESULT/UPPER LIMIT OF NORMAL", "0.8", "DERIVED", "CLINICAL STUDY SPONSOR"], ["CDISCPILOT01", "LB", "01-701-1133", "LBSEQ", "296", "LBTMSHI", "LAB RESULT/UPPER LIMIT OF NORMAL", "1.0", "DERIVED", "CLINICAL STUDY SPONSOR"], ["CDISCPILOT01", "LB", "01-701-1133", "LBSEQ", "297", "LBTMSHI", "LAB RESULT/UPPER LIMIT OF NORMAL", "0.6", "DERIVED", "CLINICAL STUDY SPONSOR"], ["CDISCPILOT01", "LB", "01-701-1133", "LBSEQ", "300", "LBTMSHI", "LAB RESULT/UPPER LIMIT OF NORMAL", "0.4", "DERIVED", "CLINICAL STUDY SPONSOR"], ["CDISCPILOT01", "LB", "01-701-1133", "LBSEQ", "302", "LBTMSHI", "LAB RESULT/UPPER LIMIT OF NORMAL", "0.9", "DERIVED", "CLINICAL STUDY SPONSOR"], ["CDISCPILOT01", "LB", "01-701-1133", "LBSEQ", "304", "LBTMSHI", "LAB RESULT/UPPER LIMIT OF NORMAL", "0.6", "DERIVED", "CLINICAL STUDY SPONSOR"], ["CDISCPILOT01", "LB", "01-701-1146", "LBSEQ", "5", "LBTMSHI", "LAB RESULT/UPPER LIMIT OF NORMAL", "0.2", "DERIVED", "CLINICAL STUDY SPONSOR"], ["CDISCPILOT01", "LB", "01-701-1146", "LBSEQ", "14", "LBTMSHI", "LAB RESULT/UPPER LIMIT OF NORMAL", "0.2", "DERIVED", "CLINICAL STUDY SPONSOR"], ["CDISCPILOT01", "LB", "01-701-1146", "LBSEQ", "17", "LBTMSHI", "LAB RESULT/UPPER LIMIT OF NORMAL", "0.9", "DERIVED", "CLINICAL STUDY SPONSOR"], ["CDISCPILOT01", "LB", "01-701-1146", "LBSEQ", "18", "LBTMSHI", "LAB RESULT/UPPER LIMIT OF NORMAL", "0.8", "DERIVED", "CLINICAL STUDY SPONSOR"], ["CDISCPILOT01", "LB", "01-701-1146", "LBSEQ", "21", "LBTMSHI", "LAB RESULT/UPPER LIMIT OF NORMAL", "0.8", "DERIVED", "CLINICAL STUDY SPONSOR"], ["CDISCPILOT01", "LB", "01-701-1146", "LBSEQ", "22", "LBTMSHI", "LAB RESULT/UPPER LIMIT OF NORMAL", "0.9", "DERIVED", "CLINICAL STUDY SPONSOR"], ["CDISCPILOT01", "LB", "01-701-1146", "LBSEQ", "23", "LBTMSHI", "LAB RESULT/UPPER LIMIT OF NORMAL", "0.8", "DERIVED", "CLINICAL STUDY SPONSOR"], ["CDISCPILOT01", "LB", "01-701-1146", "LBSEQ", "24", "LBTMSHI", "LAB RESULT/UPPER LIMIT OF NORMAL", "0.9", "DERIVED", "CLINICAL STUDY SPONSOR"], ["CDISCPILOT01", "LB", "01-701-1146", "LBSEQ", "25", "LBTMSHI", "LAB RESULT/UPPER LIMIT OF NORMAL", "0.6", "DERIVED", "CLINICAL STUDY SPONSOR"], ["CDISCPILOT01", "LB", "01-701-1146", "LBSEQ", "29", "LBTMSHI", "LAB RESULT/UPPER LIMIT OF NORMAL", "0.7", "DERIVED", "CLINICAL STUDY SPONSOR"], ["CDISCPILOT01", "LB", "01-701-1146", "LBSEQ", "31", "LBTMSHI", "LAB RESULT/UPPER LIMIT OF NORMAL", "0.8", "DERIVED", "CLINICAL STUDY SPONSOR"], ["CDISCPILOT01", "LB", "01-701-1146", "LBSEQ", "37", "LBTMSHI", "LAB RESULT/UPPER LIMIT OF NORMAL", "0.7", "DERIVED", "CLINICAL STUDY SPONSOR"], ["CDISCPILOT01", "LB", "01-701-1146", "LBSEQ", "42", "LBTMSHI", "LAB RESULT/UPPER LIMIT OF NORMAL", "0.2", "DERIVED", "CLINICAL STUDY SPONSOR"], ["CDISCPILOT01", "LB", "01-701-1146", "LBSEQ", "51", "LBTMSHI", "LAB RESULT/UPPER LIMIT OF NORMAL", "0.2", "DERIVED", "CLINICAL STUDY SPONSOR"], ["CDISCPILOT01", "LB", "01-701-1146", "LBSEQ", "54", "LBTMSHI", "LAB RESULT/UPPER LIMIT OF NORMAL", "0.8", "DERIVED", "CLINICAL STUDY SPONSOR"], ["CDISCPILOT01", "LB", "01-701-1146", "LBSEQ", "55", "LBTMSHI", "LAB RESULT/UPPER LIMIT OF NORMAL", "0.8", "DERIVED", "CLINICAL STUDY SPONSOR"], ["CDISCPILOT01", "LB", "01-701-1146", "LBSEQ", "58", "LBTMSHI", "LAB RESULT/UPPER LIMIT OF NORMAL", "0.8", "DERIVED", "CLINICAL STUDY SPONSOR"], ["CDISCPILOT01", "LB", "01-701-1146", "LBSEQ", "59", "LBTMSHI", "LAB RESULT/UPPER LIMIT OF NORMAL", "0.9", "DERIVED", "CLINICAL STUDY SPONSOR"], ["CDISCPILOT01", "LB", "01-701-1146", "LBSEQ", "60", "LBTMSHI", "LAB RESULT/UPPER LIMIT OF NORMAL", "0.9", "DERIVED", "CLINICAL STUDY SPONSOR"], ["CDISCPILOT01", "LB", "01-701-1146", "LBSEQ", "61", "LBTMSHI", "LAB RESULT/UPPER LIMIT OF NORMAL", "0.9", "DERIVED", "CLINICAL STUDY SPONSOR"], ["CDISCPILOT01", "LB", "01-701-1146", "LBSEQ", "62", "LBTMSHI", "LAB RESULT/UPPER LIMIT OF NORMAL", "0.6", "DERIVED", "CLINICAL STUDY SPONSOR"], ["CDISCPILOT01", "LB", "01-701-1146", "LBSEQ", "66", "LBTMSHI", "LAB RESULT/UPPER LIMIT OF NORMAL", "0.7", "DERIVED", "CLINICAL STUDY SPONSOR"], ["CDISCPILOT01", "LB", "01-701-1146", "LBSEQ", "68", "LBTMSHI", "LAB RESULT/UPPER LIMIT OF NORMAL", "0.8", "DERIVED", "CLINICAL STUDY SPONSOR"], ["CDISCPILOT01", "LB", "01-701-1146", "LBSEQ", "72", "LBTMSHI", "LAB RESULT/UPPER LIMIT OF NORMAL", "0.7", "DERIVED", "CLINICAL STUDY SPONSOR"], ["CDISCPILOT01", "LB", "01-701-1146", "LBSEQ", "77", "LBTMSHI", "LAB RESULT/UPPER LIMIT OF NORMAL", "0.3", "DERIVED", "CLINICAL STUDY SPONSOR"], ["CDISCPILOT01", "LB", "01-701-1146", "LBSEQ", "85", "LBTMSHI", "LAB RESULT/UPPER LIMIT OF NORMAL", "0.3", "DERIVED", "CLINICAL STUDY SPONSOR"], ["CDISCPILOT01", "LB", "01-701-1146", "LBSEQ", "88", "LBTMSHI", "LAB RESULT/UPPER LIMIT OF NORMAL", "0.8", "DERIVED", "CLINICAL STUDY SPONSOR"], ["CDISCPILOT01", "LB", "01-701-1146", "LBSEQ", "89", "LBTMSHI", "LAB RESULT/UPPER LIMIT OF NORMAL", "0.8", "DERIVED", "CLINICAL STUDY SPONSOR"], ["CDISCPILOT01", "LB", "01-701-1146", "LBSEQ", "91", "LBTMSHI", "LAB RESULT/UPPER LIMIT OF NORMAL", "0.7", "DERIVED", "CLINICAL STUDY SPONSOR"], ["CDISCPILOT01", "LB", "01-701-1146", "LBSEQ", "92", "LBTMSHI", "LAB RESULT/UPPER LIMIT OF NORMAL", "0.9", "DERIVED", "CLINICAL STUDY SPONSOR"], ["CDISCPILOT01", "LB", "01-701-1146", "LBSEQ", "93", "LBTMSHI", "LAB RESULT/UPPER LIMIT OF NORMAL", "0.8", "DERIVED", "CLINICAL STUDY SPONSOR"], ["CDISCPILOT01", "LB", "01-701-1146", "LBSEQ", "94", "LBTMSHI", "LAB RESULT/UPPER LIMIT OF NORMAL", "1.0", "DERIVED", "CLINICAL STUDY SPONSOR"], ["CDISCPILOT01", "LB", "01-701-1146", "LBSEQ", "95", "LBTMSHI", "LAB RESULT/UPPER LIMIT OF NORMAL", "0.8", "DERIVED", "CLINICAL STUDY SPONSOR"], ["CDISCPILOT01", "LB", "01-701-1146", "LBSEQ", "98", "LBTMSHI", "LAB RESULT/UPPER LIMIT OF NORMAL", "0.8", "DERIVED", "CLINICAL STUDY SPONSOR"], ["CDISCPILOT01", "LB", "01-701-1146", "LBSEQ", "100", "LBTMSHI", "LAB RESULT/UPPER LIMIT OF NORMAL", "0.8", "DERIVED", "CLINICAL STUDY SPONSOR"], ["CDISCPILOT01", "LB", "01-701-1146", "LBSEQ", "102", "LBTMSHI", "LAB RESULT/UPPER LIMIT OF NORMAL", "0.6", "DERIVED", "CLINICAL STUDY SPONSOR"], ["CDISCPILOT01", "LB", "01-701-1146", "LBSEQ", "107", "ENDPOINT", "ENDPOINT VALUE FLAG", "Y", "DERIVED", "CLINICAL STUDY SPONSOR"], ["CDISCPILOT01", "LB", "01-701-1146", "LBSEQ", "107", "LBTMSHI", "LAB RESULT/UPPER LIMIT OF NORMAL", "0.4", "DERIVED", "CLINICAL STUDY SPONSOR"], ["CDISCPILOT01", "LB", "01-701-1146", "LBSEQ", "116", "ENDPOINT", "ENDPOINT VALUE FLAG", "Y", "DERIVED", "CLINICAL STUDY SPONSOR"], ["CDISCPILOT01", "LB", "01-701-1146", "LBSEQ", "116", "LBTMSHI", "LAB RESULT/UPPER LIMIT OF NORMAL", "0.6", "DERIVED", "CLINICAL STUDY SPONSOR"], ["CDISCPILOT01", "LB", "01-701-1146", "LBSEQ", "119", "ENDPOINT", "ENDPOINT VALUE FLAG", "Y", "DERIVED", "CLINICAL STUDY SPONSOR"], ["CDISCPILOT01", "LB", "01-701-1146", "LBSEQ", "119", "LBTMSHI", "LAB RESULT/UPPER LIMIT OF NORMAL", "0.9", "DERIVED", "CLINICAL STUDY SPONSOR"], ["CDISCPILOT01", "LB", "01-701-1146", "LBSEQ", "120", "ENDPOINT", "ENDPOINT VALUE FLAG", "Y", "DERIVED", "CLINICAL STUDY SPONSOR"], ["CDISCPILOT01", "LB", "01-701-1146", "LBSEQ", "120", "LBTMSHI", "LAB RESULT/UPPER LIMIT OF NORMAL", "0.8", "DERIVED", "CLINICAL STUDY SPONSOR"], ["CDISCPILOT01", "LB", "01-701-1146", "LBSEQ", "123", "ENDPOINT", "ENDPOINT VALUE FLAG", "Y", "DERIVED", "CLINICAL STUDY SPONSOR"], ["CDISCPILOT01", "LB", "01-701-1146", "LBSEQ", "123", "LBTMSHI", "LAB RESULT/UPPER LIMIT OF NORMAL", "0.7", "DERIVED", "CLINICAL STUDY SPONSOR"], ["CDISCPILOT01", "LB", "01-701-1146", "LBSEQ", "124", "ENDPOINT", "ENDPOINT VALUE FLAG", "Y", "DERIVED", "CLINICAL STUDY SPONSOR"], ["CDISCPILOT01", "LB", "01-701-1146", "LBSEQ", "124", "LBTMSHI", "LAB RESULT/UPPER LIMIT OF NORMAL", "0.9", "DERIVED", "CLINICAL STUDY SPONSOR"], ["CDISCPILOT01", "LB", "01-701-1146", "LBSEQ", "125", "ENDPOINT", "ENDPOINT VALUE FLAG", "Y", "DERIVED", "CLINICAL STUDY SPONSOR"], ["CDISCPILOT01", "LB", "01-701-1146", "LBSEQ", "125", "LBTMSHI", "LAB RESULT/UPPER LIMIT OF NORMAL", "0.8", "DERIVED", "CLINICAL STUDY SPONSOR"], ["CDISCPILOT01", "LB", "01-701-1146", "LBSEQ", "126", "ENDPOINT", "ENDPOINT VALUE FLAG", "Y", "DERIVED", "CLINICAL STUDY SPONSOR"], ["CDISCPILOT01", "LB", "01-701-1146", "LBSEQ", "126", "LBTMSHI", "LAB RESULT/UPPER LIMIT OF NORMAL", "0.9", "DERIVED", "CLINICAL STUDY SPONSOR"], ["CDISCPILOT01", "LB", "01-701-1146", "LBSEQ", "127", "ENDPOINT", "ENDPOINT VALUE FLAG", "Y", "DERIVED", "CLINICAL STUDY SPONSOR"], ["CDISCPILOT01", "LB", "01-701-1146", "LBSEQ", "127", "LBTMSHI", "LAB RESULT/UPPER LIMIT OF NORMAL", "0.7", "DERIVED", "CLINICAL STUDY SPONSOR"], ["CDISCPILOT01", "LB", "01-701-1146", "LBSEQ", "131", "ENDPOINT", "ENDPOINT VALUE FLAG", "Y", "DERIVED", "CLINICAL STUDY SPONSOR"], ["CDISCPILOT01", "LB", "01-701-1146", "LBSEQ", "131", "LBTMSHI", "LAB RESULT/UPPER LIMIT OF NORMAL", "0.9", "DERIVED", "CLINICAL STUDY SPONSOR"], ["CDISCPILOT01", "LB", "01-701-1146", "LBSEQ", "133", "ENDPOINT", "ENDPOINT VALUE FLAG", "Y", "DERIVED", "CLINICAL STUDY SPONSOR"], ["CDISCPILOT01", "LB", "01-701-1146", "LBSEQ", "133", "LBTMSHI", "LAB RESULT/UPPER LIMIT OF NORMAL", "0.8", "DERIVED", "CLINICAL STUDY SPONSOR"], ["CDISCPILOT01", "LB", "01-701-1146", "LBSEQ", "137", "ENDPOINT", "ENDPOINT VALUE FLAG", "Y", "DERIVED", "CLINICAL STUDY SPONSOR"], ["CDISCPILOT01", "LB", "01-701-1146", "LBSEQ", "137", "LBTMSHI", "LAB RESULT/UPPER LIMIT OF NORMAL", "0.7", "DERIVED", "CLINICAL STUDY SPONSOR"], ["CDISCPILOT01", "LB", "01-701-1148", "LBSEQ", "5", "LBTMSHI", "LAB RESULT/UPPER LIMIT OF NORMAL", "0.2", "DERIVED", "CLINICAL STUDY SPONSOR"], ["CDISCPILOT01", "LB", "01-701-1148", "LBSEQ", "14", "LBTMSHI", "LAB RESULT/UPPER LIMIT OF NORMAL", "0.5", "DERIVED", "CLINICAL STUDY SPONSOR"], ["CDISCPILOT01", "LB", "01-701-1148", "LBSEQ", "17", "LBTMSHI", "LAB RESULT/UPPER LIMIT OF NORMAL", "0.9", "DERIVED", "CLINICAL STUDY SPONSOR"], ["CDISCPILOT01", "LB", "01-701-1148", "LBSEQ", "18", "LBTMSHI", "LAB RESULT/UPPER LIMIT OF NORMAL", "0.9", "DERIVED", "CLINICAL STUDY SPONSOR"], ["CDISCPILOT01", "LB", "01-701-1148", "LBSEQ", "21", "LBTMSHI", "LAB RESULT/UPPER LIMIT OF NORMAL", "0.4", "DERIVED", "CLINICAL STUDY SPONSOR"], ["CDISCPILOT01", "LB", "01-701-1148", "LBSEQ", "22", "LBTMSHI", "LAB RESULT/UPPER LIMIT OF NORMAL", "0.9", "DERIVED", "CLINICAL STUDY SPONSOR"], ["CDISCPILOT01", "LB", "01-701-1148", "LBSEQ", "23", "LBTMSHI", "LAB RESULT/UPPER LIMIT OF NORMAL", "0.9", "DERIVED", "CLINICAL STUDY SPONSOR"], ["CDISCPILOT01", "LB", "01-701-1148", "LBSEQ", "24", "LBTMSHI", "LAB RESULT/UPPER LIMIT OF NORMAL", "0.9", "DERIVED", "CLINICAL STUDY SPONSOR"], ["CDISCPILOT01", "LB", "01-701-1148", "LBSEQ", "25", "LBTMSHI", "LAB RESULT/UPPER LIMIT OF NORMAL", "0.6", "DERIVED", "CLINICAL STUDY SPONSOR"], ["CDISCPILOT01", "LB", "01-701-1148", "LBSEQ", "29", "LBTMSHI", "LAB RESULT/UPPER LIMIT OF NORMAL", "0.6", "DERIVED", "CLINICAL STUDY SPONSOR"], ["CDISCPILOT01", "LB", "01-701-1148", "LBSEQ", "31", "LBTMSHI", "LAB RESULT/UPPER LIMIT OF NORMAL", "0.9", "DERIVED", "CLINICAL STUDY SPONSOR"], ["CDISCPILOT01", "LB", "01-701-1148", "LBSEQ", "37", "LBTMSHI", "LAB RESULT/UPPER LIMIT OF NORMAL", "0.7", "DERIVED", "CLINICAL STUDY SPONSOR"], ["CDISCPILOT01", "LB", "01-701-1148", "LBSEQ", "42", "LBTMSHI", "LAB RESULT/UPPER LIMIT OF NORMAL", "0.2", "DERIVED", "CLINICAL STUDY SPONSOR"], ["CDISCPILOT01", "LB", "01-701-1148", "LBSEQ", "51", "LBTMSHI", "LAB RESULT/UPPER LIMIT OF NORMAL", "0.4", "DERIVED", "CLINICAL STUDY SPONSOR"], ["CDISCPILOT01", "LB", "01-701-1148", "LBSEQ", "54", "LBTMSHI", "LAB RESULT/UPPER LIMIT OF NORMAL", "0.8", "DERIVED", "CLINICAL STUDY SPONSOR"], ["CDISCPILOT01", "LB", "01-701-1148", "LBSEQ", "55", "LBTMSHI", "LAB RESULT/UPPER LIMIT OF NORMAL", "0.8", "DERIVED", "CLINICAL STUDY SPONSOR"], ["CDISCPILOT01", "LB", "01-701-1148", "LBSEQ", "58", "LBTMSHI", "LAB RESULT/UPPER LIMIT OF NORMAL", "0.6", "DERIVED", "CLINICAL STUDY SPONSOR"], ["CDISCPILOT01", "LB", "01-701-1148", "LBSEQ", "59", "LBTMSHI", "LAB RESULT/UPPER LIMIT OF NORMAL", "0.9", "DERIVED", "CLINICAL STUDY SPONSOR"], ["CDISCPILOT01", "LB", "01-701-1148", "LBSEQ", "60", "LBTMSHI", "LAB RESULT/UPPER LIMIT OF NORMAL", "0.9", "DERIVED", "CLINICAL STUDY SPONSOR"], ["CDISCPILOT01", "LB", "01-701-1148", "LBSEQ", "61", "LBTMSHI", "LAB RESULT/UPPER LIMIT OF NORMAL", "0.9", "DERIVED", "CLINICAL STUDY SPONSOR"], ["CDISCPILOT01", "LB", "01-701-1148", "LBSEQ", "62", "LBTMSHI", "LAB RESULT/UPPER LIMIT OF NORMAL", "0.7", "DERIVED", "CLINICAL STUDY SPONSOR"], ["CDISCPILOT01", "LB", "01-701-1148", "LBSEQ", "66", "LBTMSHI", "LAB RESULT/UPPER LIMIT OF NORMAL", "0.7", "DERIVED", "CLINICAL STUDY SPONSOR"], ["CDISCPILOT01", "LB", "01-701-1148", "LBSEQ", "68", "LBTMSHI", "LAB RESULT/UPPER LIMIT OF NORMAL", "0.8", "DERIVED", "CLINICAL STUDY SPONSOR"], ["CDISCPILOT01", "LB", "01-701-1148", "LBSEQ", "72", "LBTMSHI", "LAB RESULT/UPPER LIMIT OF NORMAL", "0.8", "DERIVED", "CLINICAL STUDY SPONSOR"], ["CDISCPILOT01", "LB", "01-701-1148", "LBSEQ", "77", "LBTMSHI", "LAB RESULT/UPPER LIMIT OF NORMAL", "0.2", "DERIVED", "CLINICAL STUDY SPONSOR"], ["CDISCPILOT01", "LB", "01-701-1148", "LBSEQ", "85", "LBTMSHI", "LAB RESULT/UPPER LIMIT OF NORMAL", "0.4", "DERIVED", "CLINICAL STUDY SPONSOR"], ["CDISCPILOT01", "LB", "01-701-1148", "LBSEQ", "88", "LBTMSHI", "LAB RESULT/UPPER LIMIT OF NORMAL", "0.8", "DERIVED", "CLINICAL STUDY SPONSOR"], ["CDISCPILOT01", "LB", "01-701-1148", "LBSEQ", "89", "LBTMSHI", "LAB RESULT/UPPER LIMIT OF NORMAL", "0.9", "DERIVED", "CLINICAL STUDY SPONSOR"], ["CDISCPILOT01", "LB", "01-701-1148", "LBSEQ", "91", "LBTMSHI", "LAB RESULT/UPPER LIMIT OF NORMAL", "0.4", "DERIVED", "CLINICAL STUDY SPONSOR"], ["CDISCPILOT01", "LB", "01-701-1148", "LBSEQ", "92", "LBTMSHI", "LAB RESULT/UPPER LIMIT OF NORMAL", "0.9", "DERIVED", "CLINICAL STUDY SPONSOR"], ["CDISCPILOT01", "LB", "01-701-1148", "LBSEQ", "93", "LBTMSHI", "LAB RESULT/UPPER LIMIT OF NORMAL", "0.9", "DERIVED", "CLINICAL STUDY SPONSOR"], ["CDISCPILOT01", "LB", "01-701-1148", "LBSEQ", "94", "LBTMSHI", "LAB RESULT/UPPER LIMIT OF NORMAL", "0.9", "DERIVED", "CLINICAL STUDY SPONSOR"], ["CDISCPILOT01", "LB", "01-701-1148", "LBSEQ", "95", "LBTMSHI", "LAB RESULT/UPPER LIMIT OF NORMAL", "0.8", "DERIVED", "CLINICAL STUDY SPONSOR"], ["CDISCPILOT01", "LB", "01-701-1148", "LBSEQ", "98", "LBTMSHI", "LAB RESULT/UPPER LIMIT OF NORMAL", "0.7", "DERIVED", "CLINICAL STUDY SPONSOR"], ["CDISCPILOT01", "LB", "01-701-1148", "LBSEQ", "100", "LBTMSHI", "LAB RESULT/UPPER LIMIT OF NORMAL", "0.8", "DERIVED", "CLINICAL STUDY SPONSOR"], ["CDISCPILOT01", "LB", "01-701-1148", "LBSEQ", "102", "LBTMSHI", "LAB RESULT/UPPER LIMIT OF NORMAL", "0.8", "DERIVED", "CLINICAL STUDY SPONSOR"], ["CDISCPILOT01", "LB", "01-701-1148", "LBSEQ", "107", "LBTMSHI", "LAB RESULT/UPPER LIMIT OF NORMAL", "0.1", "DERIVED", "CLINICAL STUDY SPONSOR"], ["CDISCPILOT01", "LB", "01-701-1148", "LBSEQ", "115", "LBTMSHI", "LAB RESULT/UPPER LIMIT OF NORMAL", "0.4", "DERIVED", "CLINICAL STUDY SPONSOR"], ["CDISCPILOT01", "LB", "01-701-1148", "LBSEQ", "118", "LBTMSHI", "LAB RESULT/UPPER LIMIT OF NORMAL", "0.8", "DERIVED", "CLINICAL STUDY SPONSOR"], ["CDISCPILOT01", "LB", "01-701-1148", "LBSEQ", "119", "LBTMSHI", "LAB RESULT/UPPER LIMIT OF NORMAL", "0.9", "DERIVED", "CLINICAL STUDY SPONSOR"], ["CDISCPILOT01", "LB", "01-701-1148", "LBSEQ", "121", "LBTMSHI", "LAB RESULT/UPPER LIMIT OF NORMAL", "0.5", "DERIVED", "CLINICAL STUDY SPONSOR"], ["CDISCPILOT01", "LB", "01-701-1148", "LBSEQ", "122", "LBTMSHI", "LAB RESULT/UPPER LIMIT OF NORMAL", "0.9", "DERIVED", "CLINICAL STUDY SPONSOR"], ["CDISCPILOT01", "LB", "01-701-1148", "LBSEQ", "123", "LBTMSHI", "LAB RESULT/UPPER LIMIT OF NORMAL", "0.9", "DERIVED", "CLINICAL STUDY SPONSOR"], ["CDISCPILOT01", "LB", "01-701-1148", "LBSEQ", "124", "LBTMSHI", "LAB RESULT/UPPER LIMIT OF NORMAL", "0.9", "DERIVED", "CLINICAL STUDY SPONSOR"], ["CDISCPILOT01", "LB", "01-701-1148", "LBSEQ", "125", "LBTMSHI", "LAB RESULT/UPPER LIMIT OF NORMAL", "0.7", "DERIVED", "CLINICAL STUDY SPONSOR"], ["CDISCPILOT01", "LB", "01-701-1148", "LBSEQ", "128", "LBTMSHI", "LAB RESULT/UPPER LIMIT OF NORMAL", "0.6", "DERIVED", "CLINICAL STUDY SPONSOR"], ["CDISCPILOT01", "LB", "01-701-1148", "LBSEQ", "130", "LBTMSHI", "LAB RESULT/UPPER LIMIT OF NORMAL", "0.8", "DERIVED", "CLINICAL STUDY SPONSOR"], ["CDISCPILOT01", "LB", "01-701-1148", "LBSEQ", "132", "LBTMSHI", "LAB RESULT/UPPER LIMIT OF NORMAL", "0.7", "DERIVED", "CLINICAL STUDY SPONSOR"], ["CDISCPILOT01", "LB", "01-701-1148", "LBSEQ", "137", "LBTMSHI", "LAB RESULT/UPPER LIMIT OF NORMAL", "0.3", "DERIVED", "CLINICAL STUDY SPONSOR"], ["CDISCPILOT01", "LB", "01-701-1148", "LBSEQ", "145", "LBTMSHI", "LAB RESULT/UPPER LIMIT OF NORMAL", "0.7", "DERIVED", "CLINICAL STUDY SPONSOR"], ["CDISCPILOT01", "LB", "01-701-1148", "LBSEQ", "148", "LBTMSHI", "LAB RESULT/UPPER LIMIT OF NORMAL", "0.8", "DERIVED", "CLINICAL STUDY SPONSOR"], ["CDISCPILOT01", "LB", "01-701-1148", "LBSEQ", "149", "LBTMSHI", "LAB RESULT/UPPER LIMIT OF NORMAL", "0.8", "DERIVED", "CLINICAL STUDY SPONSOR"], ["CDISCPILOT01", "LB", "01-701-1148", "LBSEQ", "151", "LBTMSHI", "LAB RESULT/UPPER LIMIT OF NORMAL", "0.5", "DERIVED", "CLINICAL STUDY SPONSOR"], ["CDISCPILOT01", "LB", "01-701-1148", "LBSEQ", "152", "LBTMSHI", "LAB RESULT/UPPER LIMIT OF NORMAL", "0.9", "DERIVED", "CLINICAL STUDY SPONSOR"], ["CDISCPILOT01", "LB", "01-701-1148", "LBSEQ", "153", "LBTMSHI", "LAB RESULT/UPPER LIMIT OF NORMAL", "0.9", "DERIVED", "CLINICAL STUDY SPONSOR"], ["CDISCPILOT01", "LB", "01-701-1148", "LBSEQ", "154", "LBTMSHI", "LAB RESULT/UPPER LIMIT OF NORMAL", "0.9", "DERIVED", "CLINICAL STUDY SPONSOR"], ["CDISCPILOT01", "LB", "01-701-1148", "LBSEQ", "155", "LBTMSHI", "LAB RESULT/UPPER LIMIT OF NORMAL", "0.6", "DERIVED", "CLINICAL STUDY SPONSOR"], ["CDISCPILOT01", "LB", "01-701-1148", "LBSEQ", "158", "LBTMSHI", "LAB RESULT/UPPER LIMIT OF NORMAL", "0.7", "DERIVED", "CLINICAL STUDY SPONSOR"], ["CDISCPILOT01", "LB", "01-701-1148", "LBSEQ", "160", "LBTMSHI", "LAB RESULT/UPPER LIMIT OF NORMAL", "0.8", "DERIVED", "CLINICAL STUDY SPONSOR"], ["CDISCPILOT01", "LB", "01-701-1148", "LBSEQ", "162", "LBTMSHI", "LAB RESULT/UPPER LIMIT OF NORMAL", "0.6", "DERIVED", "CLINICAL STUDY SPONSOR"], ["CDISCPILOT01", "LB", "01-701-1148", "LBSEQ", "167", "LBTMSHI", "LAB RESULT/UPPER LIMIT OF NORMAL", "0.2", "DERIVED", "CLINICAL STUDY SPONSOR"], ["CDISCPILOT01", "LB", "01-701-1148", "LBSEQ", "176", "LBTMSHI", "LAB RESULT/UPPER LIMIT OF NORMAL", "0.4", "DERIVED", "CLINICAL STUDY SPONSOR"], ["CDISCPILOT01", "LB", "01-701-1148", "LBSEQ", "179", "LBTMSHI", "LAB RESULT/UPPER LIMIT OF NORMAL", "0.8", "DERIVED", "CLINICAL STUDY SPONSOR"], ["CDISCPILOT01", "LB", "01-701-1148", "LBSEQ", "180", "LBTMSHI", "LAB RESULT/UPPER LIMIT OF NORMAL", "0.8", "DERIVED", "CLINICAL STUDY SPONSOR"], ["CDISCPILOT01", "LB", "01-701-1148", "LBSEQ", "183", "LBTMSHI", "LAB RESULT/UPPER LIMIT OF NORMAL", "0.5", "DERIVED", "CLINICAL STUDY SPONSOR"], ["CDISCPILOT01", "LB", "01-701-1148", "LBSEQ", "184", "LBTMSHI", "LAB RESULT/UPPER LIMIT OF NORMAL", "0.9", "DERIVED", "CLINICAL STUDY SPONSOR"], ["CDISCPILOT01", "LB", "01-701-1148", "LBSEQ", "185", "LBTMSHI", "LAB RESULT/UPPER LIMIT OF NORMAL", "0.9", "DERIVED", "CLINICAL STUDY SPONSOR"], ["CDISCPILOT01", "LB", "01-701-1148", "LBSEQ", "186", "LBTMSHI", "LAB RESULT/UPPER LIMIT OF NORMAL", "0.9", "DERIVED", "CLINICAL STUDY SPONSOR"], ["CDISCPILOT01", "LB", "01-701-1148", "LBSEQ", "187", "LBTMSHI", "LAB RESULT/UPPER LIMIT OF NORMAL", "0.5", "DERIVED", "CLINICAL STUDY SPONSOR"], ["CDISCPILOT01", "LB", "01-701-1148", "LBSEQ", "191", "LBTMSHI", "LAB RESULT/UPPER LIMIT OF NORMAL", "0.6", "DERIVED", "CLINICAL STUDY SPONSOR"], ["CDISCPILOT01", "LB", "01-701-1148", "LBSEQ", "193", "LBTMSHI", "LAB RESULT/UPPER LIMIT OF NORMAL", "0.8", "DERIVED", "CLINICAL STUDY SPONSOR"], ["CDISCPILOT01", "LB", "01-701-1148", "LBSEQ", "197", "LBTMSHI", "LAB RESULT/UPPER LIMIT OF NORMAL", "0.5", "DERIVED", "CLINICAL STUDY SPONSOR"], ["CDISCPILOT01", "LB", "01-701-1148", "LBSEQ", "202", "LBTMSHI", "LAB RESULT/UPPER LIMIT OF NORMAL", "0.2", "DERIVED", "CLINICAL STUDY SPONSOR"], ["CDISCPILOT01", "LB", "01-701-1148", "LBSEQ", "210", "LBTMSHI", "LAB RESULT/UPPER LIMIT OF NORMAL", "0.6", "DERIVED", "CLINICAL STUDY SPONSOR"], ["CDISCPILOT01", "LB", "01-701-1148", "LBSEQ", "213", "LBTMSHI", "LAB RESULT/UPPER LIMIT OF NORMAL", "0.8", "DERIVED", "CLINICAL STUDY SPONSOR"], ["CDISCPILOT01", "LB", "01-701-1148", "LBSEQ", "214", "LBTMSHI", "LAB RESULT/UPPER LIMIT OF NORMAL", "0.8", "DERIVED", "CLINICAL STUDY SPONSOR"], ["CDISCPILOT01", "LB", "01-701-1148", "LBSEQ", "216", "LBTMSHI", "LAB RESULT/UPPER LIMIT OF NORMAL", "0.5", "DERIVED", "CLINICAL STUDY SPONSOR"], ["CDISCPILOT01", "LB", "01-701-1148", "LBSEQ", "217", "LBTMSHI", "LAB RESULT/UPPER LIMIT OF NORMAL", "0.9", "DERIVED", "CLINICAL STUDY SPONSOR"], ["CDISCPILOT01", "LB", "01-701-1148", "LBSEQ", "218", "LBTMSHI", "LAB RESULT/UPPER LIMIT OF NORMAL", "0.9", "DERIVED", "CLINICAL STUDY SPONSOR"], ["CDISCPILOT01", "LB", "01-701-1148", "LBSEQ", "219", "LBTMSHI", "LAB RESULT/UPPER LIMIT OF NORMAL", "0.9", "DERIVED", "CLINICAL STUDY SPONSOR"], ["CDISCPILOT01", "LB", "01-701-1148", "LBSEQ", "220", "LBTMSHI", "LAB RESULT/UPPER LIMIT OF NORMAL", "0.6", "DERIVED", "CLINICAL STUDY SPONSOR"], ["CDISCPILOT01", "LB", "01-701-1148", "LBSEQ", "223", "LBTMSHI", "LAB RESULT/UPPER LIMIT OF NORMAL", "0.6", "DERIVED", "CLINICAL STUDY SPONSOR"], ["CDISCPILOT01", "LB", "01-701-1148", "LBSEQ", "225", "LBTMSHI", "LAB RESULT/UPPER LIMIT OF NORMAL", "0.8", "DERIVED", "CLINICAL STUDY SPONSOR"], ["CDISCPILOT01", "LB", "01-701-1148", "LBSEQ", "227", "LBTMSHI", "LAB RESULT/UPPER LIMIT OF NORMAL", "0.6", "DERIVED", "CLINICAL STUDY SPONSOR"], ["CDISCPILOT01", "LB", "01-701-1148", "LBSEQ", "232", "LBTMSHI", "LAB RESULT/UPPER LIMIT OF NORMAL", "0.3", "DERIVED", "CLINICAL STUDY SPONSOR"], ["CDISCPILOT01", "LB", "01-701-1148", "LBSEQ", "240", "LBTMSHI", "LAB RESULT/UPPER LIMIT OF NORMAL", "0.5", "DERIVED", "CLINICAL STUDY SPONSOR"], ["CDISCPILOT01", "LB", "01-701-1148", "LBSEQ", "243", "LBTMSHI", "LAB RESULT/UPPER LIMIT OF NORMAL", "0.9", "DERIVED", "CLINICAL STUDY SPONSOR"], ["CDISCPILOT01", "LB", "01-701-1148", "LBSEQ", "244", "LBTMSHI", "LAB RESULT/UPPER LIMIT OF NORMAL", "0.9", "DERIVED", "CLINICAL STUDY SPONSOR"], ["CDISCPILOT01", "LB", "01-701-1148", "LBSEQ", "246", "LBTMSHI", "LAB RESULT/UPPER LIMIT OF NORMAL", "0.4", "DERIVED", "CLINICAL STUDY SPONSOR"], ["CDISCPILOT01", "LB", "01-701-1148", "LBSEQ", "247", "LBTMSHI", "LAB RESULT/UPPER LIMIT OF NORMAL", "0.9", "DERIVED", "CLINICAL STUDY SPONSOR"], ["CDISCPILOT01", "LB", "01-701-1148", "LBSEQ", "248", "LBTMSHI", "LAB RESULT/UPPER LIMIT OF NORMAL", "0.9", "DERIVED", "CLINICAL STUDY SPONSOR"], ["CDISCPILOT01", "LB", "01-701-1148", "LBSEQ", "249", "LBTMSHI", "LAB RESULT/UPPER LIMIT OF NORMAL", "0.9", "DERIVED", "CLINICAL STUDY SPONSOR"], ["CDISCPILOT01", "LB", "01-701-1148", "LBSEQ", "250", "LBTMSHI", "LAB RESULT/UPPER LIMIT OF NORMAL", "0.4", "DERIVED", "CLINICAL STUDY SPONSOR"], ["CDISCPILOT01", "LB", "01-701-1148", "LBSEQ", "253", "LBTMSHI", "LAB RESULT/UPPER LIMIT OF NORMAL", "0.6", "DERIVED", "CLINICAL STUDY SPONSOR"], ["CDISCPILOT01", "LB", "01-701-1148", "LBSEQ", "255", "LBTMSHI", "LAB RESULT/UPPER LIMIT OF NORMAL", "0.8", "DERIVED", "CLINICAL STUDY SPONSOR"], ["CDISCPILOT01", "LB", "01-701-1148", "LBSEQ", "257", "LBTMSHI", "LAB RESULT/UPPER LIMIT OF NORMAL", "0.5", "DERIVED", "CLINICAL STUDY SPONSOR"], ["CDISCPILOT01", "LB", "01-701-1148", "LBSEQ", "262", "ENDPOINT", "ENDPOINT VALUE FLAG", "Y", "DERIVED", "CLINICAL STUDY SPONSOR"], ["CDISCPILOT01", "LB", "01-701-1148", "LBSEQ", "262", "LBTMSHI", "LAB RESULT/UPPER LIMIT OF NORMAL", "0.3", "DERIVED", "CLINICAL STUDY SPONSOR"], ["CDISCPILOT01", "LB", "01-701-1148", "LBSEQ", "271", "ENDPOINT", "ENDPOINT VALUE FLAG", "Y", "DERIVED", "CLINICAL STUDY SPONSOR"], ["CDISCPILOT01", "LB", "01-701-1148", "LBSEQ", "271", "LBTMSHI", "LAB RESULT/UPPER LIMIT OF NORMAL", "1.3", "DERIVED", "CLINICAL STUDY SPONSOR"], ["CDISCPILOT01", "LB", "01-701-1148", "LBSEQ", "274", "ENDPOINT", "ENDPOINT VALUE FLAG", "Y", "DERIVED", "CLINICAL STUDY SPONSOR"], ["CDISCPILOT01", "LB", "01-701-1148", "LBSEQ", "274", "LBTMSHI", "LAB RESULT/UPPER LIMIT OF NORMAL", "0.9", "DERIVED", "CLINICAL STUDY SPONSOR"], ["CDISCPILOT01", "LB", "01-701-1148", "LBSEQ", "275", "ENDPOINT", "ENDPOINT VALUE FLAG", "Y", "DERIVED", "CLINICAL STUDY SPONSOR"], ["CDISCPILOT01", "LB", "01-701-1148", "LBSEQ", "275", "LBTMSHI", "LAB RESULT/UPPER LIMIT OF NORMAL", "0.9", "DERIVED", "CLINICAL STUDY SPONSOR"], ["CDISCPILOT01", "LB", "01-701-1148", "LBSEQ", "278", "ENDPOINT", "ENDPOINT VALUE FLAG", "Y", "DERIVED", "CLINICAL STUDY SPONSOR"], ["CDISCPILOT01", "LB", "01-701-1148", "LBSEQ", "278", "LBTMSHI", "LAB RESULT/UPPER LIMIT OF NORMAL", "0.6", "DERIVED", "CLINICAL STUDY SPONSOR"], ["CDISCPILOT01", "LB", "01-701-1148", "LBSEQ", "279", "ENDPOINT", "ENDPOINT VALUE FLAG", "Y", "DERIVED", "CLINICAL STUDY SPONSOR"], ["CDISCPILOT01", "LB", "01-701-1148", "LBSEQ", "279", "LBTMSHI", "LAB RESULT/UPPER LIMIT OF NORMAL", "0.9", "DERIVED", "CLINICAL STUDY SPONSOR"], ["CDISCPILOT01", "LB", "01-701-1148", "LBSEQ", "280", "ENDPOINT", "ENDPOINT VALUE FLAG", "Y", "DERIVED", "CLINICAL STUDY SPONSOR"], ["CDISCPILOT01", "LB", "01-701-1148", "LBSEQ", "280", "LBTMSHI", "LAB RESULT/UPPER LIMIT OF NORMAL", "0.9", "DERIVED", "CLINICAL STUDY SPONSOR"], ["CDISCPILOT01", "LB", "01-701-1148", "LBSEQ", "281", "ENDPOINT", "ENDPOINT VALUE FLAG", "Y", "DERIVED", "CLINICAL STUDY SPONSOR"], ["CDISCPILOT01", "LB", "01-701-1148", "LBSEQ", "281", "LBTMSHI", "LAB RESULT/UPPER LIMIT OF NORMAL", "0.9", "DERIVED", "CLINICAL STUDY SPONSOR"], ["CDISCPILOT01", "LB", "01-701-1148", "LBSEQ", "282", "ENDPOINT", "ENDPOINT VALUE FLAG", "Y", "DERIVED", "CLINICAL STUDY SPONSOR"], ["CDISCPILOT01", "LB", "01-701-1148", "LBSEQ", "282", "LBTMSHI", "LAB RESULT/UPPER LIMIT OF NORMAL", "0.8", "DERIVED", "CLINICAL STUDY SPONSOR"], ["CDISCPILOT01", "LB", "01-701-1148", "LBSEQ", "286", "ENDPOINT", "ENDPOINT VALUE FLAG", "Y", "DERIVED", "CLINICAL STUDY SPONSOR"], ["CDISCPILOT01", "LB", "01-701-1148", "LBSEQ", "286", "LBTMSHI", "LAB RESULT/UPPER LIMIT OF NORMAL", "0.7", "DERIVED", "CLINICAL STUDY SPONSOR"], ["CDISCPILOT01", "LB", "01-701-1148", "LBSEQ", "288", "ENDPOINT", "ENDPOINT VALUE FLAG", "Y", "DERIVED", "CLINICAL STUDY SPONSOR"], ["CDISCPILOT01", "LB", "01-701-1148", "LBSEQ", "288", "LBTMSHI", "LAB RESULT/UPPER LIMIT OF NORMAL", "0.8", "DERIVED", "CLINICAL STUDY SPONSOR"], ["CDISCPILOT01", "LB", "01-701-1148", "LBSEQ", "292", "ENDPOINT", "ENDPOINT VALUE FLAG", "Y", "DERIVED", "CLINICAL STUDY SPONSOR"], ["CDISCPILOT01", "LB", "01-701-1148", "LBSEQ", "292", "LBTMSHI", "LAB RESULT/UPPER LIMIT OF NORMAL", "0.9", "DERIVED", "CLINICAL STUDY SPONSOR"], ["CDISCPILOT01", "LB", "01-701-1148", "LBSEQ", "297", "LBTMSHI", "LAB RESULT/UPPER LIMIT OF NORMAL", "0.2", "DERIVED", "CLINICAL STUDY SPONSOR"], ["CDISCPILOT01", "LB", "01-701-1148", "LBSEQ", "305", "LBTMSHI", "LAB RESULT/UPPER LIMIT OF NORMAL", "0.4", "DERIVED", "CLINICAL STUDY SPONSOR"], ["CDISCPILOT01", "LB", "01-701-1148", "LBSEQ", "308", "LBTMSHI", "LAB RESULT/UPPER LIMIT OF NORMAL", "0.8", "DERIVED", "CLINICAL STUDY SPONSOR"], ["CDISCPILOT01", "LB", "01-701-1148", "LBSEQ", "309", "LBTMSHI", "LAB RESULT/UPPER LIMIT OF NORMAL", "0.8", "DERIVED", "CLINICAL STUDY SPONSOR"], ["CDISCPILOT01", "LB", "01-701-1148", "LBSEQ", "311", "LBTMSHI", "LAB RESULT/UPPER LIMIT OF NORMAL", "0.5", "DERIVED", "CLINICAL STUDY SPONSOR"], ["CDISCPILOT01", "LB", "01-701-1148", "LBSEQ", "312", "LBTMSHI", "LAB RESULT/UPPER LIMIT OF NORMAL", "0.9", "DERIVED", "CLINICAL STUDY SPONSOR"], ["CDISCPILOT01", "LB", "01-701-1148", "LBSEQ", "313", "LBTMSHI", "LAB RESULT/UPPER LIMIT OF NORMAL", "0.9", "DERIVED", "CLINICAL STUDY SPONSOR"], ["CDISCPILOT01", "LB", "01-701-1148", "LBSEQ", "314", "LBTMSHI", "LAB RESULT/UPPER LIMIT OF NORMAL", "0.9", "DERIVED", "CLINICAL STUDY SPONSOR"], ["CDISCPILOT01", "LB", "01-701-1148", "LBSEQ", "315", "LBTMSHI", "LAB RESULT/UPPER LIMIT OF NORMAL", "0.6", "DERIVED", "CLINICAL STUDY SPONSOR"], ["CDISCPILOT01", "LB", "01-701-1148", "LBSEQ", "318", "LBTMSHI", "LAB RESULT/UPPER LIMIT OF NORMAL", "0.7", "DERIVED", "CLINICAL STUDY S