{"datasetJSONCreationDateTime": "2025-01-04T16:23:53", "datasetJSONVersion": "1.1.0", "fileOID": "UpdatedCDISCPILOT.CDISC SDTM.3.2.SUPPLBUR", "studyOID": "UpdatedCDISCPILOT.CDISC SDTM.3.2", "metaDataVersionOID": "MDV.UpdatedCDISCPILOT.CDISC SDTM.3.2", "itemGroupOID": "{SUPPLBUR", "records": 2721, "name": "SUPPLBUR", "label": "Supplemental Qualifiers for LB", "columns": [{"itemOID": "IT.SUPPLBUR.STUDYID", "name": "STUDYID", "label": "Study Identifier", "dataType": "string", "length": 12, "keySequence": 1}, {"itemOID": "IT.SUPPLBUR.RDOMAIN", "name": "RDOMAIN", "label": "Related Domain Abbreviation", "dataType": "string", "length": 2, "keySequence": 2}, {"itemOID": "IT.SUPPLBUR.USUBJID", "name": "USUBJID", "label": "Unique Subject Identifier", "dataType": "string", "length": 11, "keySequence": 3}, {"itemOID": "IT.SUPPLBUR.IDVAR", "name": "IDVAR", "label": "Identifying Variable", "dataType": "string", "length": 8, "keySequence": 4}, {"itemOID": "IT.SUPPLBUR.IDVARVAL", "name": "IDVARVAL", "label": "Identifying Variable Value", "dataType": "string", "length": 200, "keySequence": 5}, {"itemOID": "IT.SUPPLBUR.QNAM", "name": "QNAM", "label": "Qualifier Variable Name", "dataType": "string", "length": 8, "keySequence": 6}, {"itemOID": "IT.SUPPLBUR.QLABEL", "name": "QLABEL", "label": "Qualifier Variable Label", "dataType": "string", "length": 40}, {"itemOID": "IT.SUPPLBUR.QVAL", "name": "QVAL", "label": "Data Value", "dataType": "string", "length": 200}, {"itemOID": "IT.SUPPLBUR.QORIG", "name": "QORIG", "label": "Origin", "dataType": "string", "length": 200}, {"itemOID": "IT.SUPPLBUR.QEVAL", "name": "QEVAL", "label": "Evaluator", "dataType": "string", "length": 200}], "rows": [["CDISCPILOT01", "LB", "01-701-1015", "LBSEQ", "28", "LBTMSHI", "LAB RESULT/UPPER LIMIT OF NORMAL", "0.6", "DERIVED", "CLINICAL STUDY SPONSOR"], ["CDISCPILOT01", "LB", "01-701-1015", "LBSEQ", "33", "LBTMSHI", "LAB RESULT/UPPER LIMIT OF NORMAL", "1.0", "DERIVED", "CLINICAL STUDY SPONSOR"], ["CDISCPILOT01", "LB", "01-701-1015", "LBSEQ", "34", "LBTMSHI", "LAB RESULT/UPPER LIMIT OF NORMAL", "0.3", "DERIVED", "CLINICAL STUDY SPONSOR"], ["CDISCPILOT01", "LB", "01-701-1015", "LBSEQ", "37", "LBTMSHI", "LAB RESULT/UPPER LIMIT OF NORMAL", "0.4", "DERIVED", "CLINICAL STUDY SPONSOR"], ["CDISCPILOT01", "LB", "01-701-1015", "LBSEQ", "65", "LBTMSHI", "LAB RESULT/UPPER LIMIT OF NORMAL", "0.6", "DERIVED", "CLINICAL STUDY SPONSOR"], ["CDISCPILOT01", "LB", "01-701-1015", "LBSEQ", "70", "LBTMSHI", "LAB RESULT/UPPER LIMIT OF NORMAL", "1.0", "DERIVED", "CLINICAL STUDY SPONSOR"], ["CDISCPILOT01", "LB", "01-701-1015", "LBSEQ", "190", "LBTMSHI", "LAB RESULT/UPPER LIMIT OF NORMAL", "0.6", "DERIVED", "CLINICAL STUDY SPONSOR"], ["CDISCPILOT01", "LB", "01-701-1015", "LBSEQ", "195", "LBTMSHI", "LAB RESULT/UPPER LIMIT OF NORMAL", "1.0", "DERIVED", "CLINICAL STUDY SPONSOR"], ["CDISCPILOT01", "LB", "01-701-1015", "LBSEQ", "285", "ENDPOINT", "ENDPOINT VALUE FLAG", "Y", "DERIVED", "CLINICAL STUDY SPONSOR"], ["CDISCPILOT01", "LB", "01-701-1015", "LBSEQ", "285", "LBTMSHI", "LAB RESULT/UPPER LIMIT OF NORMAL", "0.6", "DERIVED", "CLINICAL STUDY SPONSOR"], ["CDISCPILOT01", "LB", "01-701-1015", "LBSEQ", "290", "ENDPOINT", "ENDPOINT VALUE FLAG", "Y", "DERIVED", "CLINICAL STUDY SPONSOR"], ["CDISCPILOT01", "LB", "01-701-1015", "LBSEQ", "290", "LBTMSHI", "LAB RESULT/UPPER LIMIT OF NORMAL", "1.0", "DERIVED", "CLINICAL STUDY SPONSOR"], ["CDISCPILOT01", "LB", "01-701-1023", "LBSEQ", "27", "LBTMSHI", "LAB RESULT/UPPER LIMIT OF NORMAL", "0.6", "DERIVED", "CLINICAL STUDY SPONSOR"], ["CDISCPILOT01", "LB", "01-701-1023", "LBSEQ", "32", "LBTMSHI", "LAB RESULT/UPPER LIMIT OF NORMAL", "1.0", "DERIVED", "CLINICAL STUDY SPONSOR"], ["CDISCPILOT01", "LB", "01-701-1023", "LBSEQ", "33", "LBTMSHI", "LAB RESULT/UPPER LIMIT OF NORMAL", "0.3", "DERIVED", "CLINICAL STUDY SPONSOR"], ["CDISCPILOT01", "LB", "01-701-1023", "LBSEQ", "36", "LBTMSHI", "LAB RESULT/UPPER LIMIT OF NORMAL", "0.6", "DERIVED", "CLINICAL STUDY SPONSOR"], ["CDISCPILOT01", "LB", "01-701-1023", "LBSEQ", "64", "LBTMSHI", "LAB RESULT/UPPER LIMIT OF NORMAL", "0.6", "DERIVED", "CLINICAL STUDY SPONSOR"], ["CDISCPILOT01", "LB", "01-701-1023", "LBSEQ", "69", "LBTMSHI", "LAB RESULT/UPPER LIMIT OF NORMAL", "1.0", "DERIVED", "CLINICAL STUDY SPONSOR"], ["CDISCPILOT01", "LB", "01-701-1023", "LBSEQ", "99", "ENDPOINT", "ENDPOINT VALUE FLAG", "Y", "DERIVED", "CLINICAL STUDY SPONSOR"], ["CDISCPILOT01", "LB", "01-701-1023", "LBSEQ", "99", "LBTMSHI", "LAB RESULT/UPPER LIMIT OF NORMAL", "0.6", "DERIVED", "CLINICAL STUDY SPONSOR"], ["CDISCPILOT01", "LB", "01-701-1023", "LBSEQ", "104", "ENDPOINT", "ENDPOINT VALUE FLAG", "Y", "DERIVED", "CLINICAL STUDY SPONSOR"], ["CDISCPILOT01", "LB", "01-701-1023", "LBSEQ", "104", "LBTMSHI", "LAB RESULT/UPPER LIMIT OF NORMAL", "1.0", "DERIVED", "CLINICAL STUDY SPONSOR"], ["CDISCPILOT01", "LB", "01-701-1028", "LBSEQ", "27", "LBTMSHI", "LAB RESULT/UPPER LIMIT OF NORMAL", "0.6", "DERIVED", "CLINICAL STUDY SPONSOR"], ["CDISCPILOT01", "LB", "01-701-1028", "LBSEQ", "32", "LBTMSHI", "LAB RESULT/UPPER LIMIT OF NORMAL", "1.0", "DERIVED", "CLINICAL STUDY SPONSOR"], ["CDISCPILOT01", "LB", "01-701-1028", "LBSEQ", "33", "LBTMSHI", "LAB RESULT/UPPER LIMIT OF NORMAL", "0.6", "DERIVED", "CLINICAL STUDY SPONSOR"], ["CDISCPILOT01", "LB", "01-701-1028", "LBSEQ", "36", "LBTMSHI", "LAB RESULT/UPPER LIMIT OF NORMAL", "0.3", "DERIVED", "CLINICAL STUDY SPONSOR"], ["CDISCPILOT01", "LB", "01-701-1028", "LBSEQ", "64", "LBTMSHI", "LAB RESULT/UPPER LIMIT OF NORMAL", "0.6", "DERIVED", "CLINICAL STUDY SPONSOR"], ["CDISCPILOT01", "LB", "01-701-1028", "LBSEQ", "69", "LBTMSHI", "LAB RESULT/UPPER LIMIT OF NORMAL", "1.0", "DERIVED", "CLINICAL STUDY SPONSOR"], ["CDISCPILOT01", "LB", "01-701-1028", "LBSEQ", "189", "LBTMSHI", "LAB RESULT/UPPER LIMIT OF NORMAL", "0.6", "DERIVED", "CLINICAL STUDY SPONSOR"], ["CDISCPILOT01", "LB", "01-701-1028", "LBSEQ", "194", "LBTMSHI", "LAB RESULT/UPPER LIMIT OF NORMAL", "1.0", "DERIVED", "CLINICAL STUDY SPONSOR"], ["CDISCPILOT01", "LB", "01-701-1028", "LBSEQ", "288", "ENDPOINT", "ENDPOINT VALUE FLAG", "Y", "DERIVED", "CLINICAL STUDY SPONSOR"], ["CDISCPILOT01", "LB", "01-701-1028", "LBSEQ", "288", "LBTMSHI", "LAB RESULT/UPPER LIMIT OF NORMAL", "0.6", "DERIVED", "CLINICAL STUDY SPONSOR"], ["CDISCPILOT01", "LB", "01-701-1028", "LBSEQ", "294", "ENDPOINT", "ENDPOINT VALUE FLAG", "Y", "DERIVED", "CLINICAL STUDY SPONSOR"], ["CDISCPILOT01", "LB", "01-701-1028", "LBSEQ", "294", "LBTMSHI", "LAB RESULT/UPPER LIMIT OF NORMAL", "1.0", "DERIVED", "CLINICAL STUDY SPONSOR"], ["CDISCPILOT01", "LB", "01-701-1033", "LBSEQ", "27", "LBTMSHI", "LAB RESULT/UPPER LIMIT OF NORMAL", "0.6", "DERIVED", "CLINICAL STUDY SPONSOR"], ["CDISCPILOT01", "LB", "01-701-1033", "LBSEQ", "32", "LBTMSHI", "LAB RESULT/UPPER LIMIT OF NORMAL", "1.0", "DERIVED", "CLINICAL STUDY SPONSOR"], ["CDISCPILOT01", "LB", "01-701-1033", "LBSEQ", "33", "LBTMSHI", "LAB RESULT/UPPER LIMIT OF NORMAL", "0.2", "DERIVED", "CLINICAL STUDY SPONSOR"], ["CDISCPILOT01", "LB", "01-701-1033", "LBSEQ", "36", "LBTMSHI", "LAB RESULT/UPPER LIMIT OF NORMAL", "0.6", "DERIVED", "CLINICAL STUDY SPONSOR"], ["CDISCPILOT01", "LB", "01-701-1033", "LBSEQ", "64", "LBTMSHI", "LAB RESULT/UPPER LIMIT OF NORMAL", "0.6", "DERIVED", "CLINICAL STUDY SPONSOR"], ["CDISCPILOT01", "LB", "01-701-1033", "LBSEQ", "69", "LBTMSHI", "LAB RESULT/UPPER LIMIT OF NORMAL", "1.0", "DERIVED", "CLINICAL STUDY SPONSOR"], ["CDISCPILOT01", "LB", "01-701-1033", "LBSEQ", "99", "ENDPOINT", "ENDPOINT VALUE FLAG", "Y", "DERIVED", "CLINICAL STUDY SPONSOR"], ["CDISCPILOT01", "LB", "01-701-1033", "LBSEQ", "99", "LBTMSHI", "LAB RESULT/UPPER LIMIT OF NORMAL", "0.6", "DERIVED", "CLINICAL STUDY SPONSOR"], ["CDISCPILOT01", "LB", "01-701-1033", "LBSEQ", "104", "ENDPOINT", "ENDPOINT VALUE FLAG", "Y", "DERIVED", "CLINICAL STUDY SPONSOR"], ["CDISCPILOT01", "LB", "01-701-1033", "LBSEQ", "104", "LBTMSHI", "LAB RESULT/UPPER LIMIT OF NORMAL", "1.0", "DERIVED", "CLINICAL STUDY SPONSOR"], ["CDISCPILOT01", "LB", "01-701-1034", "LBSEQ", "28", "LBTMSHI", "LAB RESULT/UPPER LIMIT OF NORMAL", "0.6", "DERIVED", "CLINICAL STUDY SPONSOR"], ["CDISCPILOT01", "LB", "01-701-1034", "LBSEQ", "33", "LBTMSHI", "LAB RESULT/UPPER LIMIT OF NORMAL", "1.0", "DERIVED", "CLINICAL STUDY SPONSOR"], ["CDISCPILOT01", "LB", "01-701-1034", "LBSEQ", "34", "LBTMSHI", "LAB RESULT/UPPER LIMIT OF NORMAL", "0.1", "DERIVED", "CLINICAL STUDY SPONSOR"], ["CDISCPILOT01", "LB", "01-701-1034", "LBSEQ", "37", "LBTMSHI", "LAB RESULT/UPPER LIMIT OF NORMAL", "0.7", "DERIVED", "CLINICAL STUDY SPONSOR"], ["CDISCPILOT01", "LB", "01-701-1034", "LBSEQ", "66", "LBTMSHI", "LAB RESULT/UPPER LIMIT OF NORMAL", "0.6", "DERIVED", "CLINICAL STUDY SPONSOR"], ["CDISCPILOT01", "LB", "01-701-1034", "LBSEQ", "71", "LBTMSHI", "LAB RESULT/UPPER LIMIT OF NORMAL", "1.0", "DERIVED", "CLINICAL STUDY SPONSOR"], ["CDISCPILOT01", "LB", "01-701-1034", "LBSEQ", "193", "LBTMSHI", "LAB RESULT/UPPER LIMIT OF NORMAL", "0.6", "DERIVED", "CLINICAL STUDY SPONSOR"], ["CDISCPILOT01", "LB", "01-701-1034", "LBSEQ", "198", "LBTMSHI", "LAB RESULT/UPPER LIMIT OF NORMAL", "1.0", "DERIVED", "CLINICAL STUDY SPONSOR"], ["CDISCPILOT01", "LB", "01-701-1034", "LBSEQ", "291", "ENDPOINT", "ENDPOINT VALUE FLAG", "Y", "DERIVED", "CLINICAL STUDY SPONSOR"], ["CDISCPILOT01", "LB", "01-701-1034", "LBSEQ", "291", "LBTMSHI", "LAB RESULT/UPPER LIMIT OF NORMAL", "0.6", "DERIVED", "CLINICAL STUDY SPONSOR"], ["CDISCPILOT01", "LB", "01-701-1034", "LBSEQ", "296", "ENDPOINT", "ENDPOINT VALUE FLAG", "Y", "DERIVED", "CLINICAL STUDY SPONSOR"], ["CDISCPILOT01", "LB", "01-701-1034", "LBSEQ", "296", "LBTMSHI", "LAB RESULT/UPPER LIMIT OF NORMAL", "1.0", "DERIVED", "CLINICAL STUDY SPONSOR"], ["CDISCPILOT01", "LB", "01-701-1047", "LBSEQ", "27", "LBTMSHI", "LAB RESULT/UPPER LIMIT OF NORMAL", "0.6", "DERIVED", "CLINICAL STUDY SPONSOR"], ["CDISCPILOT01", "LB", "01-701-1047", "LBSEQ", "32", "LBTMSHI", "LAB RESULT/UPPER LIMIT OF NORMAL", "1.0", "DERIVED", "CLINICAL STUDY SPONSOR"], ["CDISCPILOT01", "LB", "01-701-1047", "LBSEQ", "33", "LBTMSHI", "LAB RESULT/UPPER LIMIT OF NORMAL", "0.1", "DERIVED", "CLINICAL STUDY SPONSOR"], ["CDISCPILOT01", "LB", "01-701-1047", "LBSEQ", "36", "LBTMSHI", "LAB RESULT/UPPER LIMIT OF NORMAL", "0.7", "DERIVED", "CLINICAL STUDY SPONSOR"], ["CDISCPILOT01", "LB", "01-701-1047", "LBSEQ", "64", "LBTMSHI", "LAB RESULT/UPPER LIMIT OF NORMAL", "0.6", "DERIVED", "CLINICAL STUDY SPONSOR"], ["CDISCPILOT01", "LB", "01-701-1047", "LBSEQ", "69", "LBTMSHI", "LAB RESULT/UPPER LIMIT OF NORMAL", "1.0", "DERIVED", "CLINICAL STUDY SPONSOR"], ["CDISCPILOT01", "LB", "01-701-1047", "LBSEQ", "114", "LBTMSHI", "LAB RESULT/UPPER LIMIT OF NORMAL", "0.6", "DERIVED", "CLINICAL STUDY SPONSOR"], ["CDISCPILOT01", "LB", "01-701-1047", "LBSEQ", "117", "LBTMSHI", "LAB RESULT/UPPER LIMIT OF NORMAL", "1.0", "DERIVED", "CLINICAL STUDY SPONSOR"], ["CDISCPILOT01", "LB", "01-701-1097", "LBSEQ", "27", "LBTMSHI", "LAB RESULT/UPPER LIMIT OF NORMAL", "0.6", "DERIVED", "CLINICAL STUDY SPONSOR"], ["CDISCPILOT01", "LB", "01-701-1097", "LBSEQ", "32", "LBTMSHI", "LAB RESULT/UPPER LIMIT OF NORMAL", "1.0", "DERIVED", "CLINICAL STUDY SPONSOR"], ["CDISCPILOT01", "LB", "01-701-1097", "LBSEQ", "33", "LBTMSHI", "LAB RESULT/UPPER LIMIT OF NORMAL", "0.6", "DERIVED", "CLINICAL STUDY SPONSOR"], ["CDISCPILOT01", "LB", "01-701-1097", "LBSEQ", "36", "LBTMSHI", "LAB RESULT/UPPER LIMIT OF NORMAL", "0.5", "DERIVED", "CLINICAL STUDY SPONSOR"], ["CDISCPILOT01", "LB", "01-701-1097", "LBSEQ", "64", "LBTMSHI", "LAB RESULT/UPPER LIMIT OF NORMAL", "0.6", "DERIVED", "CLINICAL STUDY SPONSOR"], ["CDISCPILOT01", "LB", "01-701-1097", "LBSEQ", "69", "LBTMSHI", "LAB RESULT/UPPER LIMIT OF NORMAL", "1.0", "DERIVED", "CLINICAL STUDY SPONSOR"], ["CDISCPILOT01", "LB", "01-701-1097", "LBSEQ", "189", "LBTMSHI", "LAB RESULT/UPPER LIMIT OF NORMAL", "0.6", "DERIVED", "CLINICAL STUDY SPONSOR"], ["CDISCPILOT01", "LB", "01-701-1097", "LBSEQ", "194", "LBTMSHI", "LAB RESULT/UPPER LIMIT OF NORMAL", "1.0", "DERIVED", "CLINICAL STUDY SPONSOR"], ["CDISCPILOT01", "LB", "01-701-1097", "LBSEQ", "284", "ENDPOINT", "ENDPOINT VALUE FLAG", "Y", "DERIVED", "CLINICAL STUDY SPONSOR"], ["CDISCPILOT01", "LB", "01-701-1097", "LBSEQ", "284", "LBTMSHI", "LAB RESULT/UPPER LIMIT OF NORMAL", "0.6", "DERIVED", "CLINICAL STUDY SPONSOR"], ["CDISCPILOT01", "LB", "01-701-1097", "LBSEQ", "289", "ENDPOINT", "ENDPOINT VALUE FLAG", "Y", "DERIVED", "CLINICAL STUDY SPONSOR"], ["CDISCPILOT01", "LB", "01-701-1097", "LBSEQ", "289", "LBTMSHI", "LAB RESULT/UPPER LIMIT OF NORMAL", "1.0", "DERIVED", "CLINICAL STUDY SPONSOR"], ["CDISCPILOT01", "LB", "01-701-1097", "LBSEQ", "319", "LBTMSHI", "LAB RESULT/UPPER LIMIT OF NORMAL", "0.6", "DERIVED", "CLINICAL STUDY SPONSOR"], ["CDISCPILOT01", "LB", "01-701-1097", "LBSEQ", "324", "LBTMSHI", "LAB RESULT/UPPER LIMIT OF NORMAL", "1.0", "DERIVED", "CLINICAL STUDY SPONSOR"], ["CDISCPILOT01", "LB", "01-701-1111", "LBSEQ", "27", "LBTMSHI", "LAB RESULT/UPPER LIMIT OF NORMAL", "0.8", "DERIVED", "CLINICAL STUDY SPONSOR"], ["CDISCPILOT01", "LB", "01-701-1111", "LBSEQ", "32", "LBTMSHI", "LAB RESULT/UPPER LIMIT OF NORMAL", "1.0", "DERIVED", "CLINICAL STUDY SPONSOR"], ["CDISCPILOT01", "LB", "01-701-1111", "LBSEQ", "33", "LBTMSHI", "LAB RESULT/UPPER LIMIT OF NORMAL", "0.3", "DERIVED", "CLINICAL STUDY SPONSOR"], ["CDISCPILOT01", "LB", "01-701-1111", "LBSEQ", "36", "LBTMSHI", "LAB RESULT/UPPER LIMIT OF NORMAL", "0.6", "DERIVED", "CLINICAL STUDY SPONSOR"], ["CDISCPILOT01", "LB", "01-701-1111", "LBSEQ", "65", "ENDPOINT", "ENDPOINT VALUE FLAG", "Y", "DERIVED", "CLINICAL STUDY SPONSOR"], ["CDISCPILOT01", "LB", "01-701-1111", "LBSEQ", "65", "LBTMSHI", "LAB RESULT/UPPER LIMIT OF NORMAL", "0.6", "DERIVED", "CLINICAL STUDY SPONSOR"], ["CDISCPILOT01", "LB", "01-701-1111", "LBSEQ", "70", "ENDPOINT", "ENDPOINT VALUE FLAG", "Y", "DERIVED", "CLINICAL STUDY SPONSOR"], ["CDISCPILOT01", "LB", "01-701-1111", "LBSEQ", "70", "LBTMSHI", "LAB RESULT/UPPER LIMIT OF NORMAL", "1.0", "DERIVED", "CLINICAL STUDY SPONSOR"], ["CDISCPILOT01", "LB", "01-701-1115", "LBSEQ", "27", "LBTMSHI", "LAB RESULT/UPPER LIMIT OF NORMAL", "0.6", "DERIVED", "CLINICAL STUDY SPONSOR"], ["CDISCPILOT01", "LB", "01-701-1115", "LBSEQ", "32", "LBTMSHI", "LAB RESULT/UPPER LIMIT OF NORMAL", "1.0", "DERIVED", "CLINICAL STUDY SPONSOR"], ["CDISCPILOT01", "LB", "01-701-1115", "LBSEQ", "33", "LBTMSHI", "LAB RESULT/UPPER LIMIT OF NORMAL", "0.5", "DERIVED", "CLINICAL STUDY SPONSOR"], ["CDISCPILOT01", "LB", "01-701-1115", "LBSEQ", "36", "LBTMSHI", "LAB RESULT/UPPER LIMIT OF NORMAL", "0.7", "DERIVED", "CLINICAL STUDY SPONSOR"], ["CDISCPILOT01", "LB", "01-701-1115", "LBSEQ", "64", "LBTMSHI", "LAB RESULT/UPPER LIMIT OF NORMAL", "0.6", "DERIVED", "CLINICAL STUDY SPONSOR"], ["CDISCPILOT01", "LB", "01-701-1115", "LBSEQ", "69", "LBTMSHI", "LAB RESULT/UPPER LIMIT OF NORMAL", "1.0", "DERIVED", "CLINICAL STUDY SPONSOR"], ["CDISCPILOT01", "LB", "01-701-1115", "LBSEQ", "174", "ENDPOINT", "ENDPOINT VALUE FLAG", "Y", "DERIVED", "CLINICAL STUDY SPONSOR"], ["CDISCPILOT01", "LB", "01-701-1115", "LBSEQ", "174", "LBTMSHI", "LAB RESULT/UPPER LIMIT OF NORMAL", "0.6", "DERIVED", "CLINICAL STUDY SPONSOR"], ["CDISCPILOT01", "LB", "01-701-1115", "LBSEQ", "179", "ENDPOINT", "ENDPOINT VALUE FLAG", "Y", "DERIVED", "CLINICAL STUDY SPONSOR"], ["CDISCPILOT01", "LB", "01-701-1115", "LBSEQ", "179", "LBTMSHI", "LAB RESULT/UPPER LIMIT OF NORMAL", "1.0", "DERIVED", "CLINICAL STUDY SPONSOR"], ["CDISCPILOT01", "LB", "01-701-1118", "LBSEQ", "27", "LBTMSHI", "LAB RESULT/UPPER LIMIT OF NORMAL", "0.8", "DERIVED", "CLINICAL STUDY SPONSOR"], ["CDISCPILOT01", "LB", "01-701-1118", "LBSEQ", "32", "LBTMSHI", "LAB RESULT/UPPER LIMIT OF NORMAL", "1.0", "DERIVED", "CLINICAL STUDY SPONSOR"], ["CDISCPILOT01", "LB", "01-701-1118", "LBSEQ", "33", "LBTMSHI", "LAB RESULT/UPPER LIMIT OF NORMAL", "0.4", "DERIVED", "CLINICAL STUDY SPONSOR"], ["CDISCPILOT01", "LB", "01-701-1118", "LBSEQ", "36", "LBTMSHI", "LAB RESULT/UPPER LIMIT OF NORMAL", "0.3", "DERIVED", "CLINICAL STUDY SPONSOR"], ["CDISCPILOT01", "LB", "01-701-1118", "LBSEQ", "64", "LBTMSHI", "LAB RESULT/UPPER LIMIT OF NORMAL", "0.8", "DERIVED", "CLINICAL STUDY SPONSOR"], ["CDISCPILOT01", "LB", "01-701-1118", "LBSEQ", "69", "LBTMSHI", "LAB RESULT/UPPER LIMIT OF NORMAL", "1.0", "DERIVED", "CLINICAL STUDY SPONSOR"], ["CDISCPILOT01", "LB", "01-701-1118", "LBSEQ", "189", "LBTMSHI", "LAB RESULT/UPPER LIMIT OF NORMAL", "0.6", "DERIVED", "CLINICAL STUDY SPONSOR"], ["CDISCPILOT01", "LB", "01-701-1118", "LBSEQ", "194", "LBTMSHI", "LAB RESULT/UPPER LIMIT OF NORMAL", "1.0", "DERIVED", "CLINICAL STUDY SPONSOR"], ["CDISCPILOT01", "LB", "01-701-1118", "LBSEQ", "284", "ENDPOINT", "ENDPOINT VALUE FLAG", "Y", "DERIVED", "CLINICAL STUDY SPONSOR"], ["CDISCPILOT01", "LB", "01-701-1118", "LBSEQ", "284", "LBTMSHI", "LAB RESULT/UPPER LIMIT OF NORMAL", "0.8", "DERIVED", "CLINICAL STUDY SPONSOR"], ["CDISCPILOT01", "LB", "01-701-1118", "LBSEQ", "289", "ENDPOINT", "ENDPOINT VALUE FLAG", "Y", "DERIVED", "CLINICAL STUDY SPONSOR"], ["CDISCPILOT01", "LB", "01-701-1118", "LBSEQ", "289", "LBTMSHI", "LAB RESULT/UPPER LIMIT OF NORMAL", "1.0", "DERIVED", "CLINICAL STUDY SPONSOR"], ["CDISCPILOT01", "LB", "01-701-1130", "LBSEQ", "27", "LBTMSHI", "LAB RESULT/UPPER LIMIT OF NORMAL", "0.6", "DERIVED", "CLINICAL STUDY SPONSOR"], ["CDISCPILOT01", "LB", "01-701-1130", "LBSEQ", "32", "LBTMSHI", "LAB RESULT/UPPER LIMIT OF NORMAL", "1.0", "DERIVED", "CLINICAL STUDY SPONSOR"], ["CDISCPILOT01", "LB", "01-701-1130", "LBSEQ", "33", "LBTMSHI", "LAB RESULT/UPPER LIMIT OF NORMAL", "0.7", "DERIVED", "CLINICAL STUDY SPONSOR"], ["CDISCPILOT01", "LB", "01-701-1130", "LBSEQ", "36", "LBTMSHI", "LAB RESULT/UPPER LIMIT OF NORMAL", "0.4", "DERIVED", "CLINICAL STUDY SPONSOR"], ["CDISCPILOT01", "LB", "01-701-1130", "LBSEQ", "64", "LBTMSHI", "LAB RESULT/UPPER LIMIT OF NORMAL", "0.6", "DERIVED", "CLINICAL STUDY SPONSOR"], ["CDISCPILOT01", "LB", "01-701-1130", "LBSEQ", "69", "LBTMSHI", "LAB RESULT/UPPER LIMIT OF NORMAL", "1.0", "DERIVED", "CLINICAL STUDY SPONSOR"], ["CDISCPILOT01", "LB", "01-701-1130", "LBSEQ", "189", "LBTMSHI", "LAB RESULT/UPPER LIMIT OF NORMAL", "0.6", "DERIVED", "CLINICAL STUDY SPONSOR"], ["CDISCPILOT01", "LB", "01-701-1130", "LBSEQ", "194", "LBTMSHI", "LAB RESULT/UPPER LIMIT OF NORMAL", "1.0", "DERIVED", "CLINICAL STUDY SPONSOR"], ["CDISCPILOT01", "LB", "01-701-1130", "LBSEQ", "284", "ENDPOINT", "ENDPOINT VALUE FLAG", "Y", "DERIVED", "CLINICAL STUDY SPONSOR"], ["CDISCPILOT01", "LB", "01-701-1130", "LBSEQ", "284", "LBTMSHI", "LAB RESULT/UPPER LIMIT OF NORMAL", "0.8", "DERIVED", "CLINICAL STUDY SPONSOR"], ["CDISCPILOT01", "LB", "01-701-1130", "LBSEQ", "289", "ENDPOINT", "ENDPOINT VALUE FLAG", "Y", "DERIVED", "CLINICAL STUDY SPONSOR"], ["CDISCPILOT01", "LB", "01-701-1130", "LBSEQ", "289", "LBTMSHI", "LAB RESULT/UPPER LIMIT OF NORMAL", "1.0", "DERIVED", "CLINICAL STUDY SPONSOR"], ["CDISCPILOT01", "LB", "01-701-1133", "LBSEQ", "27", "LBTMSHI", "LAB RESULT/UPPER LIMIT OF NORMAL", "0.6", "DERIVED", "CLINICAL STUDY SPONSOR"], ["CDISCPILOT01", "LB", "01-701-1133", "LBSEQ", "32", "LBTMSHI", "LAB RESULT/UPPER LIMIT OF NORMAL", "1.0", "DERIVED", "CLINICAL STUDY SPONSOR"], ["CDISCPILOT01", "LB", "01-701-1133", "LBSEQ", "33", "LBTMSHI", "LAB RESULT/UPPER LIMIT OF NORMAL", "0.2", "DERIVED", "CLINICAL STUDY SPONSOR"], ["CDISCPILOT01", "LB", "01-701-1133", "LBSEQ", "36", "LBTMSHI", "LAB RESULT/UPPER LIMIT OF NORMAL", "0.3", "DERIVED", "CLINICAL STUDY SPONSOR"], ["CDISCPILOT01", "LB", "01-701-1133", "LBSEQ", "49", "LBTMSHI", "LAB RESULT/UPPER LIMIT OF NORMAL", "0.6", "DERIVED", "CLINICAL STUDY SPONSOR"], ["CDISCPILOT01", "LB", "01-701-1133", "LBSEQ", "52", "LBTMSHI", "LAB RESULT/UPPER LIMIT OF NORMAL", "1.0", "DERIVED", "CLINICAL STUDY SPONSOR"], ["CDISCPILOT01", "LB", "01-701-1133", "LBSEQ", "171", "LBTMSHI", "LAB RESULT/UPPER LIMIT OF NORMAL", "0.6", "DERIVED", "CLINICAL STUDY SPONSOR"], ["CDISCPILOT01", "LB", "01-701-1133", "LBSEQ", "176", "LBTMSHI", "LAB RESULT/UPPER LIMIT OF NORMAL", "1.0", "DERIVED", "CLINICAL STUDY SPONSOR"], ["CDISCPILOT01", "LB", "01-701-1133", "LBSEQ", "266", "ENDPOINT", "ENDPOINT VALUE FLAG", "Y", "DERIVED", "CLINICAL STUDY SPONSOR"], ["CDISCPILOT01", "LB", "01-701-1133", "LBSEQ", "266", "LBTMSHI", "LAB RESULT/UPPER LIMIT OF NORMAL", "0.8", "DERIVED", "CLINICAL STUDY SPONSOR"], ["CDISCPILOT01", "LB", "01-701-1133", "LBSEQ", "271", "ENDPOINT", "ENDPOINT VALUE FLAG", "Y", "DERIVED", "CLINICAL STUDY SPONSOR"], ["CDISCPILOT01", "LB", "01-701-1133", "LBSEQ", "271", "LBTMSHI", "LAB RESULT/UPPER LIMIT OF NORMAL", "1.0", "DERIVED", "CLINICAL STUDY SPONSOR"], ["CDISCPILOT01", "LB", "01-701-1146", "LBSEQ", "27", "LBTMSHI", "LAB RESULT/UPPER LIMIT OF NORMAL", "0.6", "DERIVED", "CLINICAL STUDY SPONSOR"], ["CDISCPILOT01", "LB", "01-701-1146", "LBSEQ", "32", "LBTMSHI", "LAB RESULT/UPPER LIMIT OF NORMAL", "1.0", "DERIVED", "CLINICAL STUDY SPONSOR"], ["CDISCPILOT01", "LB", "01-701-1146", "LBSEQ", "33", "LBTMSHI", "LAB RESULT/UPPER LIMIT OF NORMAL", "0.4", "DERIVED", "CLINICAL STUDY SPONSOR"], ["CDISCPILOT01", "LB", "01-701-1146", "LBSEQ", "36", "LBTMSHI", "LAB RESULT/UPPER LIMIT OF NORMAL", "0.4", "DERIVED", "CLINICAL STUDY SPONSOR"], ["CDISCPILOT01", "LB", "01-701-1146", "LBSEQ", "64", "LBTMSHI", "LAB RESULT/UPPER LIMIT OF NORMAL", "0.6", "DERIVED", "CLINICAL STUDY SPONSOR"], ["CDISCPILOT01", "LB", "01-701-1146", "LBSEQ", "69", "LBTMSHI", "LAB RESULT/UPPER LIMIT OF NORMAL", "1.0", "DERIVED", "CLINICAL STUDY SPONSOR"], ["CDISCPILOT01", "LB", "01-701-1146", "LBSEQ", "129", "ENDPOINT", "ENDPOINT VALUE FLAG", "Y", "DERIVED", "CLINICAL STUDY SPONSOR"], ["CDISCPILOT01", "LB", "01-701-1146", "LBSEQ", "129", "LBTMSHI", "LAB RESULT/UPPER LIMIT OF NORMAL", "0.6", "DERIVED", "CLINICAL STUDY SPONSOR"], ["CDISCPILOT01", "LB", "01-701-1146", "LBSEQ", "134", "ENDPOINT", "ENDPOINT VALUE FLAG", "Y", "DERIVED", "CLINICAL STUDY SPONSOR"], ["CDISCPILOT01", "LB", "01-701-1146", "LBSEQ", "134", "LBTMSHI", "LAB RESULT/UPPER LIMIT OF NORMAL", "1.0", "DERIVED", "CLINICAL STUDY SPONSOR"], ["CDISCPILOT01", "LB", "01-701-1148", "LBSEQ", "27", "LBTMSHI", "LAB RESULT/UPPER LIMIT OF NORMAL", "0.6", "DERIVED", "CLINICAL STUDY SPONSOR"], ["CDISCPILOT01", "LB", "01-701-1148", "LBSEQ", "32", "LBTMSHI", "LAB RESULT/UPPER LIMIT OF NORMAL", "1.0", "DERIVED", "CLINICAL STUDY SPONSOR"], ["CDISCPILOT01", "LB", "01-701-1148", "LBSEQ", "33", "LBTMSHI", "LAB RESULT/UPPER LIMIT OF NORMAL", "0.4", "DERIVED", "CLINICAL STUDY SPONSOR"], ["CDISCPILOT01", "LB", "01-701-1148", "LBSEQ", "36", "LBTMSHI", "LAB RESULT/UPPER LIMIT OF NORMAL", "0.6", "DERIVED", "CLINICAL STUDY SPONSOR"], ["CDISCPILOT01", "LB", "01-701-1148", "LBSEQ", "64", "LBTMSHI", "LAB RESULT/UPPER LIMIT OF NORMAL", "0.9", "DERIVED", "CLINICAL STUDY SPONSOR"], ["CDISCPILOT01", "LB", "01-701-1148", "LBSEQ", "69", "LBTMSHI", "LAB RESULT/UPPER LIMIT OF NORMAL", "1.0", "DERIVED", "CLINICAL STUDY SPONSOR"], ["CDISCPILOT01", "LB", "01-701-1148", "LBSEQ", "189", "LBTMSHI", "LAB RESULT/UPPER LIMIT OF NORMAL", "0.6", "DERIVED", "CLINICAL STUDY SPONSOR"], ["CDISCPILOT01", "LB", "01-701-1148", "LBSEQ", "194", "LBTMSHI", "LAB RESULT/UPPER LIMIT OF NORMAL", "1.0", "DERIVED", "CLINICAL STUDY SPONSOR"], ["CDISCPILOT01", "LB", "01-701-1148", "LBSEQ", "284", "ENDPOINT", "ENDPOINT VALUE FLAG", "Y", "DERIVED", "CLINICAL STUDY SPONSOR"], ["CDISCPILOT01", "LB", "01-701-1148", "LBSEQ", "284", "LBTMSHI", "LAB RESULT/UPPER LIMIT OF NORMAL", "0.6", "DERIVED", "CLINICAL STUDY SPONSOR"], ["CDISCPILOT01", "LB", "01-701-1148", "LBSEQ", "289", "ENDPOINT", "ENDPOINT VALUE FLAG", "Y", "DERIVED", "CLINICAL STUDY SPONSOR"], ["CDISCPILOT01", "LB", "01-701-1148", "LBSEQ", "289", "LBTMSHI", "LAB RESULT/UPPER LIMIT OF NORMAL", "1.0", "DERIVED", "CLINICAL STUDY SPONSOR"], ["CDISCPILOT01", "LB", "01-701-1153", "LBSEQ", "27", "LBTMSHI", "LAB RESULT/UPPER LIMIT OF NORMAL", "0.6", "DERIVED", "CLINICAL STUDY SPONSOR"], ["CDISCPILOT01", "LB", "01-701-1153", "LBSEQ", "32", "LBTMSHI", "LAB RESULT/UPPER LIMIT OF NORMAL", "1.0", "DERIVED", "CLINICAL STUDY SPONSOR"], ["CDISCPILOT01", "LB", "01-701-1153", "LBSEQ", "33", "LBTMSHI", "LAB RESULT/UPPER LIMIT OF NORMAL", "0.1", "DERIVED", "CLINICAL STUDY SPONSOR"], ["CDISCPILOT01", "LB", "01-701-1153", "LBSEQ", "36", "LBTMSHI", "LAB RESULT/UPPER LIMIT OF NORMAL", "0.4", "DERIVED", "CLINICAL STUDY SPONSOR"], ["CDISCPILOT01", "LB", "01-701-1153", "LBSEQ", "64", "LBTMSHI", "LAB RESULT/UPPER LIMIT OF NORMAL", "0.6", "DERIVED", "CLINICAL STUDY SPONSOR"], ["CDISCPILOT01", "LB", "01-701-1153", "LBSEQ", "69", "LBTMSHI", "LAB RESULT/UPPER LIMIT OF NORMAL", "1.0", "DERIVED", "CLINICAL STUDY SPONSOR"], ["CDISCPILOT01", "LB", "01-701-1153", "LBSEQ", "105", "LBTMSHI", "LAB RESULT/UPPER LIMIT OF NORMAL", "0.6", "DERIVED", "CLINICAL STUDY SPONSOR"], ["CDISCPILOT01", "LB", "01-701-1153", "LBSEQ", "106", "LBTMSHI", "LAB RESULT/UPPER LIMIT OF NORMAL", "1.0", "DERIVED", "CLINICAL STUDY SPONSOR"], ["CDISCPILOT01", "LB", "01-701-1153", "LBSEQ", "194", "LBTMSHI", "LAB RESULT/UPPER LIMIT OF NORMAL", "0.6", "DERIVED", "CLINICAL STUDY SPONSOR"], ["CDISCPILOT01", "LB", "01-701-1153", "LBSEQ", "199", "LBTMSHI", "LAB RESULT/UPPER LIMIT OF NORMAL", "1.0", "DERIVED", "CLINICAL STUDY SPONSOR"], ["CDISCPILOT01", "LB", "01-701-1153", "LBSEQ", "205", "LBTMSHI", "LAB RESULT/UPPER LIMIT OF NORMAL", "0.6", "DERIVED", "CLINICAL STUDY SPONSOR"], ["CDISCPILOT01", "LB", "01-701-1153", "LBSEQ", "206", "LBTMSHI", "LAB RESULT/UPPER LIMIT OF NORMAL", "1.0", "DERIVED", "CLINICAL STUDY SPONSOR"], ["CDISCPILOT01", "LB", "01-701-1153", "LBSEQ", "210", "LBTMSHI", "LAB RESULT/UPPER LIMIT OF NORMAL", "0.9", "DERIVED", "CLINICAL STUDY SPONSOR"], ["CDISCPILOT01", "LB", "01-701-1153", "LBSEQ", "211", "LBTMSHI", "LAB RESULT/UPPER LIMIT OF NORMAL", "1.0", "DERIVED", "CLINICAL STUDY SPONSOR"], ["CDISCPILOT01", "LB", "01-701-1153", "LBSEQ", "299", "ENDPOINT", "ENDPOINT VALUE FLAG", "Y", "DERIVED", "CLINICAL STUDY SPONSOR"], ["CDISCPILOT01", "LB", "01-701-1153", "LBSEQ", "299", "LBTMSHI", "LAB RESULT/UPPER LIMIT OF NORMAL", "0.9", "DERIVED", "CLINICAL STUDY SPONSOR"], ["CDISCPILOT01", "LB", "01-701-1153", "LBSEQ", "304", "ENDPOINT", "ENDPOINT VALUE FLAG", "Y", "DERIVED", "CLINICAL STUDY SPONSOR"], ["CDISCPILOT01", "LB", "01-701-1153", "LBSEQ", "304", "LBTMSHI", "LAB RESULT/UPPER LIMIT OF NORMAL", "1.0", "DERIVED", "CLINICAL STUDY SPONSOR"], ["CDISCPILOT01", "LB", "01-701-1180", "LBSEQ", "27", "LBTMSHI", "LAB RESULT/UPPER LIMIT OF NORMAL", "0.6", "DERIVED", "CLINICAL STUDY SPONSOR"], ["CDISCPILOT01", "LB", "01-701-1180", "LBSEQ", "32", "LBTMSHI", "LAB RESULT/UPPER LIMIT OF NORMAL", "1.0", "DERIVED", "CLINICAL STUDY SPONSOR"], ["CDISCPILOT01", "LB", "01-701-1180", "LBSEQ", "33", "LBTMSHI", "LAB RESULT/UPPER LIMIT OF NORMAL", "0.9", "DERIVED", "CLINICAL STUDY SPONSOR"], ["CDISCPILOT01", "LB", "01-701-1180", "LBSEQ", "36", "LBTMSHI", "LAB RESULT/UPPER LIMIT OF NORMAL", "0.7", "DERIVED", "CLINICAL STUDY SPONSOR"], ["CDISCPILOT01", "LB", "01-701-1180", "LBSEQ", "64", "LBTMSHI", "LAB RESULT/UPPER LIMIT OF NORMAL", "0.6", "DERIVED", "CLINICAL STUDY SPONSOR"], ["CDISCPILOT01", "LB", "01-701-1180", "LBSEQ", "69", "LBTMSHI", "LAB RESULT/UPPER LIMIT OF NORMAL", "1.0", "DERIVED", "CLINICAL STUDY SPONSOR"], ["CDISCPILOT01", "LB", "01-701-1180", "LBSEQ", "129", "ENDPOINT", "ENDPOINT VALUE FLAG", "Y", "DERIVED", "CLINICAL STUDY SPONSOR"], ["CDISCPILOT01", "LB", "01-701-1180", "LBSEQ", "129", "LBTMSHI", "LAB RESULT/UPPER LIMIT OF NORMAL", "0.8", "DERIVED", "CLINICAL STUDY SPONSOR"], ["CDISCPILOT01", "LB", "01-701-1180", "LBSEQ", "134", "ENDPOINT", "ENDPOINT VALUE FLAG", "Y", "DERIVED", "CLINICAL STUDY SPONSOR"], ["CDISCPILOT01", "LB", "01-701-1180", "LBSEQ", "134", "LBTMSHI", "LAB RESULT/UPPER LIMIT OF NORMAL", "1.0", "DERIVED", "CLINICAL STUDY SPONSOR"], ["CDISCPILOT01", "LB", "01-701-1181", "LBSEQ", "27", "LBTMSHI", "LAB RESULT/UPPER LIMIT OF NORMAL", "0.6", "DERIVED", "CLINICAL STUDY SPONSOR"], ["CDISCPILOT01", "LB", "01-701-1181", "LBSEQ", "32", "LBTMSHI", "LAB RESULT/UPPER LIMIT OF NORMAL", "1.0", "DERIVED", "CLINICAL STUDY SPONSOR"], ["CDISCPILOT01", "LB", "01-701-1181", "LBSEQ", "33", "LBTMSHI", "LAB RESULT/UPPER LIMIT OF NORMAL", "0.3", "DERIVED", "CLINICAL STUDY SPONSOR"], ["CDISCPILOT01", "LB", "01-701-1181", "LBSEQ", "36", "LBTMSHI", "LAB RESULT/UPPER LIMIT OF NORMAL", "0.5", "DERIVED", "CLINICAL STUDY SPONSOR"], ["CDISCPILOT01", "LB", "01-701-1181", "LBSEQ", "64", "ENDPOINT", "ENDPOINT VALUE FLAG", "Y", "DERIVED", "CLINICAL STUDY SPONSOR"], ["CDISCPILOT01", "LB", "01-701-1181", "LBSEQ", "64", "LBTMSHI", "LAB RESULT/UPPER LIMIT OF NORMAL", "0.6", "DERIVED", "CLINICAL STUDY SPONSOR"], ["CDISCPILOT01", "LB", "01-701-1181", "LBSEQ", "69", "ENDPOINT", "ENDPOINT VALUE FLAG", "Y", "DERIVED", "CLINICAL STUDY SPONSOR"], ["CDISCPILOT01", "LB", "01-701-1181", "LBSEQ", "69", "LBTMSHI", "LAB RESULT/UPPER LIMIT OF NORMAL", "1.0", "DERIVED", "CLINICAL STUDY SPONSOR"], ["CDISCPILOT01", "LB", "01-701-1188", "LBSEQ", "27", "LBTMSHI", "LAB RESULT/UPPER LIMIT OF NORMAL", "0.8", "DERIVED", "CLINICAL STUDY SPONSOR"], ["CDISCPILOT01", "LB", "01-701-1188", "LBSEQ", "32", "LBTMSHI", "LAB RESULT/UPPER LIMIT OF NORMAL", "1.0", "DERIVED", "CLINICAL STUDY SPONSOR"], ["CDISCPILOT01", "LB", "01-701-1188", "LBSEQ", "33", "LBTMSHI", "LAB RESULT/UPPER LIMIT OF NORMAL", "0.3", "DERIVED", "CLINICAL STUDY SPONSOR"], ["CDISCPILOT01", "LB", "01-701-1188", "LBSEQ", "36", "LBTMSHI", "LAB RESULT/UPPER LIMIT OF NORMAL", "0.3", "DERIVED", "CLINICAL STUDY SPONSOR"], ["CDISCPILOT01", "LB", "01-701-1188", "LBSEQ", "64", "LBTMSHI", "LAB RESULT/UPPER LIMIT OF NORMAL", "0.6", "DERIVED", "CLINICAL STUDY SPONSOR"], ["CDISCPILOT01", "LB", "01-701-1188", "LBSEQ", "69", "LBTMSHI", "LAB RESULT/UPPER LIMIT OF NORMAL", "1.0", "DERIVED", "CLINICAL STUDY SPONSOR"], ["CDISCPILOT01", "LB", "01-701-1188", "LBSEQ", "129", "ENDPOINT", "ENDPOINT VALUE FLAG", "Y", "DERIVED", "CLINICAL STUDY SPONSOR"], ["CDISCPILOT01", "LB", "01-701-1188", "LBSEQ", "129", "LBTMSHI", "LAB RESULT/UPPER LIMIT OF NORMAL", "0.6", "DERIVED", "CLINICAL STUDY SPONSOR"], ["CDISCPILOT01", "LB", "01-701-1188", "LBSEQ", "134", "ENDPOINT", "ENDPOINT VALUE FLAG", "Y", "DERIVED", "CLINICAL STUDY SPONSOR"], ["CDISCPILOT01", "LB", "01-701-1188", "LBSEQ", "134", "LBTMSHI", "LAB RESULT/UPPER LIMIT OF NORMAL", "1.0", "DERIVED", "CLINICAL STUDY SPONSOR"], ["CDISCPILOT01", "LB", "01-701-1192", "LBSEQ", "27", "LBTMSHI", "LAB RESULT/UPPER LIMIT OF NORMAL", "0.6", "DERIVED", "CLINICAL STUDY SPONSOR"], ["CDISCPILOT01", "LB", "01-701-1192", "LBSEQ", "32", "LBTMSHI", "LAB RESULT/UPPER LIMIT OF NORMAL", "1.0", "DERIVED", "CLINICAL STUDY SPONSOR"], ["CDISCPILOT01", "LB", "01-701-1192", "LBSEQ", "33", "LBTMSHI", "LAB RESULT/UPPER LIMIT OF NORMAL", "0.2", "DERIVED", "CLINICAL STUDY SPONSOR"], ["CDISCPILOT01", "LB", "01-701-1192", "LBSEQ", "36", "LBTMSHI", "LAB RESULT/UPPER LIMIT OF NORMAL", "0.4", "DERIVED", "CLINICAL STUDY SPONSOR"], ["CDISCPILOT01", "LB", "01-701-1192", "LBSEQ", "64", "LBTMSHI", "LAB RESULT/UPPER LIMIT OF NORMAL", "0.6", "DERIVED", "CLINICAL STUDY SPONSOR"], ["CDISCPILOT01", "LB", "01-701-1192", "LBSEQ", "69", "LBTMSHI", "LAB RESULT/UPPER LIMIT OF NORMAL", "1.0", "DERIVED", "CLINICAL STUDY SPONSOR"], ["CDISCPILOT01", "LB", "01-701-1192", "LBSEQ", "105", "LBTMSHI", "LAB RESULT/UPPER LIMIT OF NORMAL", "0.6", "DERIVED", "CLINICAL STUDY SPONSOR"], ["CDISCPILOT01", "LB", "01-701-1192", "LBSEQ", "106", "LBTMSHI", "LAB RESULT/UPPER LIMIT OF NORMAL", "1.0", "DERIVED", "CLINICAL STUDY SPONSOR"], ["CDISCPILOT01", "LB", "01-701-1192", "LBSEQ", "194", "LBTMSHI", "LAB RESULT/UPPER LIMIT OF NORMAL", "0.6", "DERIVED", "CLINICAL STUDY SPONSOR"], ["CDISCPILOT01", "LB", "01-701-1192", "LBSEQ", "199", "LBTMSHI", "LAB RESULT/UPPER LIMIT OF NORMAL", "1.0", "DERIVED", "CLINICAL STUDY SPONSOR"], ["CDISCPILOT01", "LB", "01-701-1192", "LBSEQ", "289", "ENDPOINT", "ENDPOINT VALUE FLAG", "Y", "DERIVED", "CLINICAL STUDY SPONSOR"], ["CDISCPILOT01", "LB", "01-701-1192", "LBSEQ", "289", "LBTMSHI", "LAB RESULT/UPPER LIMIT OF NORMAL", "0.8", "DERIVED", "CLINICAL STUDY SPONSOR"], ["CDISCPILOT01", "LB", "01-701-1192", "LBSEQ", "294", "ENDPOINT", "ENDPOINT VALUE FLAG", "Y", "DERIVED", "CLINICAL STUDY SPONSOR"], ["CDISCPILOT01", "LB", "01-701-1192", "LBSEQ", "294", "LBTMSHI", "LAB RESULT/UPPER LIMIT OF NORMAL", "1.0", "DERIVED", "CLINICAL STUDY SPONSOR"], ["CDISCPILOT01", "LB", "01-701-1203", "LBSEQ", "27", "LBTMSHI", "LAB RESULT/UPPER LIMIT OF NORMAL", "0.6", "DERIVED", "CLINICAL STUDY SPONSOR"], ["CDISCPILOT01", "LB", "01-701-1203", "LBSEQ", "32", "LBTMSHI", "LAB RESULT/UPPER LIMIT OF NORMAL", "1.0", "DERIVED", "CLINICAL STUDY SPONSOR"], ["CDISCPILOT01", "LB", "01-701-1203", "LBSEQ", "33", "LBTMSHI", "LAB RESULT/UPPER LIMIT OF NORMAL", "1.0", "DERIVED", "CLINICAL STUDY SPONSOR"], ["CDISCPILOT01", "LB", "01-701-1203", "LBSEQ", "36", "LBTMSHI", "LAB RESULT/UPPER LIMIT OF NORMAL", "0.5", "DERIVED", "CLINICAL STUDY SPONSOR"], ["CDISCPILOT01", "LB", "01-701-1203", "LBSEQ", "64", "LBTMSHI", "LAB RESULT/UPPER LIMIT OF NORMAL", "0.6", "DERIVED", "CLINICAL STUDY SPONSOR"], ["CDISCPILOT01", "LB", "01-701-1203", "LBSEQ", "69", "LBTMSHI", "LAB RESULT/UPPER LIMIT OF NORMAL", "1.0", "DERIVED", "CLINICAL STUDY SPONSOR"], ["CDISCPILOT01", "LB", "01-701-1203", "LBSEQ", "189", "LBTMSHI", "LAB RESULT/UPPER LIMIT OF NORMAL", "0.8", "DERIVED", "CLINICAL STUDY SPONSOR"], ["CDISCPILOT01", "LB", "01-701-1203", "LBSEQ", "194", "LBTMSHI", "LAB RESULT/UPPER LIMIT OF NORMAL", "1.0", "DERIVED", "CLINICAL STUDY SPONSOR"], ["CDISCPILOT01", "LB", "01-701-1203", "LBSEQ", "284", "ENDPOINT", "ENDPOINT VALUE FLAG", "Y", "DERIVED", "CLINICAL STUDY SPONSOR"], ["CDISCPILOT01", "LB", "01-701-1203", "LBSEQ", "284", "LBTMSHI", "LAB RESULT/UPPER LIMIT OF NORMAL", "0.6", "DERIVED", "CLINICAL STUDY SPONSOR"], ["CDISCPILOT01", "LB", "01-701-1203", "LBSEQ", "289", "ENDPOINT", "ENDPOINT VALUE FLAG", "Y", "DERIVED", "CLINICAL STUDY SPONSOR"], ["CDISCPILOT01", "LB", "01-701-1203", "LBSEQ", "289", "LBTMSHI", "LAB RESULT/UPPER LIMIT OF NORMAL", "1.0", "DERIVED", "CLINICAL STUDY SPONSOR"], ["CDISCPILOT01", "LB", "01-701-1211", "LBSEQ", "27", "LBTMSHI", "LAB RESULT/UPPER LIMIT OF NORMAL", "0.6", "DERIVED", "CLINICAL STUDY SPONSOR"], ["CDISCPILOT01", "LB", "01-701-1211", "LBSEQ", "32", "LBTMSHI", "LAB RESULT/UPPER LIMIT OF NORMAL", "1.0", "DERIVED", "CLINICAL STUDY SPONSOR"], ["CDISCPILOT01", "LB", "01-701-1211", "LBSEQ", "33", "LBTMSHI", "LAB RESULT/UPPER LIMIT OF NORMAL", "0.4", "DERIVED", "CLINICAL STUDY SPONSOR"], ["CDISCPILOT01", "LB", "01-701-1211", "LBSEQ", "36", "LBTMSHI", "LAB RESULT/UPPER LIMIT OF NORMAL", "0.5", "DERIVED", "CLINICAL STUDY SPONSOR"], ["CDISCPILOT01", "LB", "01-701-1211", "LBSEQ", "64", "LBTMSHI", "LAB RESULT/UPPER LIMIT OF NORMAL", "0.6", "DERIVED", "CLINICAL STUDY SPONSOR"], ["CDISCPILOT01", "LB", "01-701-1211", "LBSEQ", "69", "LBTMSHI", "LAB RESULT/UPPER LIMIT OF NORMAL", "1.0", "DERIVED", "CLINICAL STUDY SPONSOR"], ["CDISCPILOT01", "LB", "01-701-1234", "LBSEQ", "28", "LBTMSHI", "LAB RESULT/UPPER LIMIT OF NORMAL", "0.6", "DERIVED", "CLINICAL STUDY SPONSOR"], ["CDISCPILOT01", "LB", "01-701-1234", "LBSEQ", "33", "LBTMSHI", "LAB RESULT/UPPER LIMIT OF NORMAL", "1.0", "DERIVED", "CLINICAL STUDY SPONSOR"], ["CDISCPILOT01", "LB", "01-701-1234", "LBSEQ", "34", "LBTMSHI", "LAB RESULT/UPPER LIMIT OF NORMAL", "0.1", "DERIVED", "CLINICAL STUDY SPONSOR"], ["CDISCPILOT01", "LB", "01-701-1234", "LBSEQ", "37", "LBTMSHI", "LAB RESULT/UPPER LIMIT OF NORMAL", "0.6", "DERIVED", "CLINICAL STUDY SPONSOR"], ["CDISCPILOT01", "LB", "01-701-1234", "LBSEQ", "65", "LBTMSHI", "LAB RESULT/UPPER LIMIT OF NORMAL", "0.6", "DERIVED", "CLINICAL STUDY SPONSOR"], ["CDISCPILOT01", "LB", "01-701-1234", "LBSEQ", "70", "LBTMSHI", "LAB RESULT/UPPER LIMIT OF NORMAL", "1.0", "DERIVED", "CLINICAL STUDY SPONSOR"], ["CDISCPILOT01", "LB", "01-701-1234", "LBSEQ", "190", "LBTMSHI", "LAB RESULT/UPPER LIMIT OF NORMAL", "0.9", "DERIVED", "CLINICAL STUDY SPONSOR"], ["CDISCPILOT01", "LB", "01-701-1234", "LBSEQ", "195", "LBTMSHI", "LAB RESULT/UPPER LIMIT OF NORMAL", "1.0", "DERIVED", "CLINICAL STUDY SPONSOR"], ["CDISCPILOT01", "LB", "01-701-1234", "LBSEQ", "285", "ENDPOINT", "ENDPOINT VALUE FLAG", "Y", "DERIVED", "CLINICAL STUDY SPONSOR"], ["CDISCPILOT01", "LB", "01-701-1234", "LBSEQ", "285", "LBTMSHI", "LAB RESULT/UPPER LIMIT OF NORMAL", "0.8", "DERIVED", "CLINICAL STUDY SPONSOR"], ["CDISCPILOT01", "LB", "01-701-1234", "LBSEQ", "290", "ENDPOINT", "ENDPOINT VALUE FLAG", "Y", "DERIVED", "CLINICAL STUDY SPONSOR"], ["CDISCPILOT01", "LB", "01-701-1234", "LBSEQ", "290", "LBTMSHI", "LAB RESULT/UPPER LIMIT OF NORMAL", "1.0", "DERIVED", "CLINICAL STUDY SPONSOR"], ["CDISCPILOT01", "LB", "01-701-1239", "LBSEQ", "27", "LBTMSHI", "LAB RESULT/UPPER LIMIT OF NORMAL", "0.6", "DERIVED", "CLINICAL STUDY SPONSOR"], ["CDISCPILOT01", "LB", "01-701-1239", "LBSEQ", "32", "LBTMSHI", "LAB RESULT/UPPER LIMIT OF NORMAL", "1.0", "DERIVED", "CLINICAL STUDY SPONSOR"], ["CDISCPILOT01", "LB", "01-701-1239", "LBSEQ", "33", "LBTMSHI", "LAB RESULT/UPPER LIMIT OF NORMAL", "0.3", "DERIVED", "CLINICAL STUDY SPONSOR"], ["CDISCPILOT01", "LB", "01-701-1239", "LBSEQ", "36", "LBTMSHI", "LAB RESULT/UPPER LIMIT OF NORMAL", "0.7", "DERIVED", "CLINICAL STUDY SPONSOR"], ["CDISCPILOT01", "LB", "01-701-1239", "LBSEQ", "79", "LBTMSHI", "LAB RESULT/UPPER LIMIT OF NORMAL", "0.8", "DERIVED", "CLINICAL STUDY SPONSOR"], ["CDISCPILOT01", "LB", "01-701-1239", "LBSEQ", "84", "LBTMSHI", "LAB RESULT/UPPER LIMIT OF NORMAL", "1.0", "DERIVED", "CLINICAL STUDY SPONSOR"], ["CDISCPILOT01", "LB", "01-701-1239", "LBSEQ", "204", "LBTMSHI", "LAB RESULT/UPPER LIMIT OF NORMAL", "0.6", "DERIVED", "CLINICAL STUDY SPONSOR"], ["CDISCPILOT01", "LB", "01-701-1239", "LBSEQ", "209", "LBTMSHI", "LAB RESULT/UPPER LIMIT OF NORMAL", "1.0", "DERIVED", "CLINICAL STUDY SPONSOR"], ["CDISCPILOT01", "LB", "01-701-1239", "LBSEQ", "299", "ENDPOINT", "ENDPOINT VALUE FLAG", "Y", "DERIVED", "CLINICAL STUDY SPONSOR"], ["CDISCPILOT01", "LB", "01-701-1239", "LBSEQ", "299", "LBTMSHI", "LAB RESULT/UPPER LIMIT OF NORMAL", "0.8", "DERIVED", "CLINICAL STUDY SPONSOR"], ["CDISCPILOT01", "LB", "01-701-1239", "LBSEQ", "304", "ENDPOINT", "ENDPOINT VALUE FLAG", "Y", "DERIVED", "CLINICAL STUDY SPONSOR"], ["CDISCPILOT01", "LB", "01-701-1239", "LBSEQ", "304", "LBTMSHI", "LAB RESULT/UPPER LIMIT OF NORMAL", "1.0", "DERIVED", "CLINICAL STUDY SPONSOR"], ["CDISCPILOT01", "LB", "01-701-1275", "LBSEQ", "27", "LBTMSHI", "LAB RESULT/UPPER LIMIT OF NORMAL", "0.6", "DERIVED", "CLINICAL STUDY SPONSOR"], ["CDISCPILOT01", "LB", "01-701-1275", "LBSEQ", "32", "LBTMSHI", "LAB RESULT/UPPER LIMIT OF NORMAL", "1.0", "DERIVED", "CLINICAL STUDY SPONSOR"], ["CDISCPILOT01", "LB", "01-701-1275", "LBSEQ", "33", "LBTMSHI", "LAB RESULT/UPPER LIMIT OF NORMAL", "0.3", "DERIVED", "CLINICAL STUDY SPONSOR"], ["CDISCPILOT01", "LB", "01-701-1275", "LBSEQ", "36", "LBTMSHI", "LAB RESULT/UPPER LIMIT OF NORMAL", "0.3", "DERIVED", "CLINICAL STUDY SPONSOR"], ["CDISCPILOT01", "LB", "01-701-1275", "LBSEQ", "64", "LBTMSHI", "LAB RESULT/UPPER LIMIT OF NORMAL", "0.9", "DERIVED", "CLINICAL STUDY SPONSOR"], ["CDISCPILOT01", "LB", "01-701-1275", "LBSEQ", "69", "LBTMSHI", "LAB RESULT/UPPER LIMIT OF NORMAL", "1.0", "DERIVED", "CLINICAL STUDY SPONSOR"], ["CDISCPILOT01", "LB", "01-701-1275", "LBSEQ", "186", "LBTMSHI", "LAB RESULT/UPPER LIMIT OF NORMAL", "0.8", "DERIVED", "CLINICAL STUDY SPONSOR"], ["CDISCPILOT01", "LB", "01-701-1275", "LBSEQ", "191", "LBTMSHI", "LAB RESULT/UPPER LIMIT OF NORMAL", "1.0", "DERIVED", "CLINICAL STUDY SPONSOR"], ["CDISCPILOT01", "LB", "01-701-1275", "LBSEQ", "221", "ENDPOINT", "ENDPOINT VALUE FLAG", "Y", "DERIVED", "CLINICAL STUDY SPONSOR"], ["CDISCPILOT01", "LB", "01-701-1275", "LBSEQ", "221", "LBTMSHI", "LAB RESULT/UPPER LIMIT OF NORMAL", "0.8", "DERIVED", "CLINICAL STUDY SPONSOR"], ["CDISCPILOT01", "LB", "01-701-1275", "LBSEQ", "226", "ENDPOINT", "ENDPOINT VALUE FLAG", "Y", "DERIVED", "CLINICAL STUDY SPONSOR"], ["CDISCPILOT01", "LB", "01-701-1275", "LBSEQ", "226", "LBTMSHI", "LAB RESULT/UPPER LIMIT OF NORMAL", "1.0", "DERIVED", "CLINICAL STUDY SPONSOR"], ["CDISCPILOT01", "LB", "01-701-1287", "LBSEQ", "27", "LBTMSHI", "LAB RESULT/UPPER LIMIT OF NORMAL", "0.8", "DERIVED", "CLINICAL STUDY SPONSOR"], ["CDISCPILOT01", "LB", "01-701-1287", "LBSEQ", "32", "LBTMSHI", "LAB RESULT/UPPER LIMIT OF NORMAL", "1.0", "DERIVED", "CLINICAL STUDY SPONSOR"], ["CDISCPILOT01", "LB", "01-701-1287", "LBSEQ", "33", "LBTMSHI", "LAB RESULT/UPPER LIMIT OF NORMAL", "0.4", "DERIVED", "CLINICAL STUDY SPONSOR"], ["CDISCPILOT01", "LB", "01-701-1287", "LBSEQ", "36", "LBTMSHI", "LAB RESULT/UPPER LIMIT OF NORMAL", "0.5", "DERIVED", "CLINICAL STUDY SPONSOR"], ["CDISCPILOT01", "LB", "01-701-1287", "LBSEQ", "64", "LBTMSHI", "LAB RESULT/UPPER LIMIT OF NORMAL", "0.6", "DERIVED", "CLINICAL STUDY SPONSOR"], ["CDISCPILOT01", "LB", "01-701-1287", "LBSEQ", "69", "LBTMSHI", "LAB RESULT/UPPER LIMIT OF NORMAL", "1.0", "DERIVED", "CLINICAL STUDY SPONSOR"], ["CDISCPILOT01", "LB", "01-701-1287", "LBSEQ", "189", "LBTMSHI", "LAB RESULT/UPPER LIMIT OF NORMAL", "0.6", "DERIVED", "CLINICAL STUDY SPONSOR"], ["CDISCPILOT01", "LB", "01-701-1287", "LBSEQ", "194", "LBTMSHI", "LAB RESULT/UPPER LIMIT OF NORMAL", "1.0", "DERIVED", "CLINICAL STUDY SPONSOR"], ["CDISCPILOT01", "LB", "01-701-1287", "LBSEQ", "286", "ENDPOINT", "ENDPOINT VALUE FLAG", "Y", "DERIVED", "CLINICAL STUDY SPONSOR"], ["CDISCPILOT01", "LB", "01-701-1287", "LBSEQ", "286", "LBTMSHI", "LAB RESULT/UPPER LIMIT OF NORMAL", "0.9", "DERIVED", "CLINICAL STUDY SPONSOR"], ["CDISCPILOT01", "LB", "01-701-1287", "LBSEQ", "291", "ENDPOINT", "ENDPOINT VALUE FLAG", "Y", "DERIVED", "CLINICAL STUDY SPONSOR"], ["CDISCPILOT01", "LB", "01-701-1287", "LBSEQ", "291", "LBTMSHI", "LAB RESULT/UPPER LIMIT OF NORMAL", "1.0", "DERIVED", "CLINICAL STUDY SPONSOR"], ["CDISCPILOT01", "LB", "01-701-1294", "LBSEQ", "27", "LBTMSHI", "LAB RESULT/UPPER LIMIT OF NORMAL", "0.6", "DERIVED", "CLINICAL STUDY SPONSOR"], ["CDISCPILOT01", "LB", "01-701-1294", "LBSEQ", "32", "LBTMSHI", "LAB RESULT/UPPER LIMIT OF NORMAL", "1.0", "DERIVED", "CLINICAL STUDY SPONSOR"], ["CDISCPILOT01", "LB", "01-701-1294", "LBSEQ", "33", "LBTMSHI", "LAB RESULT/UPPER LIMIT OF NORMAL", "0.4", "DERIVED", "CLINICAL STUDY SPONSOR"], ["CDISCPILOT01", "LB", "01-701-1294", "LBSEQ", "36", "LBTMSHI", "LAB RESULT/UPPER LIMIT OF NORMAL", "0.4", "DERIVED", "CLINICAL STUDY SPONSOR"], ["CDISCPILOT01", "LB", "01-701-1294", "LBSEQ", "64", "LBTMSHI", "LAB RESULT/UPPER LIMIT OF NORMAL", "0.6", "DERIVED", "CLINICAL STUDY SPONSOR"], ["CDISCPILOT01", "LB", "01-701-1294", "LBSEQ", "69", "LBTMSHI", "LAB RESULT/UPPER LIMIT OF NORMAL", "1.0", "DERIVED", "CLINICAL STUDY SPONSOR"], ["CDISCPILOT01", "LB", "01-701-1294", "LBSEQ", "189", "ENDPOINT", "ENDPOINT VALUE FLAG", "Y", "DERIVED", "CLINICAL STUDY SPONSOR"], ["CDISCPILOT01", "LB", "01-701-1294", "LBSEQ", "189", "LBTMSHI", "LAB RESULT/UPPER LIMIT OF NORMAL", "0.6", "DERIVED", "CLINICAL STUDY SPONSOR"], ["CDISCPILOT01", "LB", "01-701-1294", "LBSEQ", "194", "ENDPOINT", "ENDPOINT VALUE FLAG", "Y", "DERIVED", "CLINICAL STUDY SPONSOR"], ["CDISCPILOT01", "LB", "01-701-1294", "LBSEQ", "194", "LBTMSHI", "LAB RESULT/UPPER LIMIT OF NORMAL", "1.0", "DERIVED", "CLINICAL STUDY SPONSOR"], ["CDISCPILOT01", "LB", "01-701-1302", "LBSEQ", "27", "LBTMSHI", "LAB RESULT/UPPER LIMIT OF NORMAL", "0.6", "DERIVED", "CLINICAL STUDY SPONSOR"], ["CDISCPILOT01", "LB", "01-701-1302", "LBSEQ", "32", "LBTMSHI", "LAB RESULT/UPPER LIMIT OF NORMAL", "1.0", "DERIVED", "CLINICAL STUDY SPONSOR"], ["CDISCPILOT01", "LB", "01-701-1302", "LBSEQ", "33", "LBTMSHI", "LAB RESULT/UPPER LIMIT OF NORMAL", "0.4", "DERIVED", "CLINICAL STUDY SPONSOR"], ["CDISCPILOT01", "LB", "01-701-1302", "LBSEQ", "36", "LBTMSHI", "LAB RESULT/UPPER LIMIT OF NORMAL", "0.8", "DERIVED", "CLINICAL STUDY SPONSOR"], ["CDISCPILOT01", "LB", "01-701-1302", "LBSEQ", "64", "LBTMSHI", "LAB RESULT/UPPER LIMIT OF NORMAL", "0.6", "DERIVED", "CLINICAL STUDY SPONSOR"], ["CDISCPILOT01", "LB", "01-701-1302", "LBSEQ", "69", "LBTMSHI", "LAB RESULT/UPPER LIMIT OF NORMAL", "1.0", "DERIVED", "CLINICAL STUDY SPONSOR"], ["CDISCPILOT01", "LB", "01-701-1302", "LBSEQ", "189", "ENDPOINT", "ENDPOINT VALUE FLAG", "Y", "DERIVED", "CLINICAL STUDY SPONSOR"], ["CDISCPILOT01", "LB", "01-701-1302", "LBSEQ", "189", "LBTMSHI", "LAB RESULT/UPPER LIMIT OF NORMAL", "0.6", "DERIVED", "CLINICAL STUDY SPONSOR"], ["CDISCPILOT01", "LB", "01-701-1302", "LBSEQ", "194", "ENDPOINT", "ENDPOINT VALUE FLAG", "Y", "DERIVED", "CLINICAL STUDY SPONSOR"], ["CDISCPILOT01", "LB", "01-701-1302", "LBSEQ", "194", "LBTMSHI", "LAB RESULT/UPPER LIMIT OF NORMAL", "1.0", "DERIVED", "CLINICAL STUDY SPONSOR"], ["CDISCPILOT01", "LB", "01-701-1317", "LBSEQ", "27", "LBTMSHI", "LAB RESULT/UPPER LIMIT OF NORMAL", "0.6", "DERIVED", "CLINICAL STUDY SPONSOR"], ["CDISCPILOT01", "LB", "01-701-1317", "LBSEQ", "32", "LBTMSHI", "LAB RESULT/UPPER LIMIT OF NORMAL", "1.0", "DERIVED", "CLINICAL STUDY SPONSOR"], ["CDISCPILOT01", "LB", "01-701-1317", "LBSEQ", "33", "LBTMSHI", "LAB RESULT/UPPER LIMIT OF NORMAL", "0.2", "DERIVED", "CLINICAL STUDY SPONSOR"], ["CDISCPILOT01", "LB", "01-701-1317", "LBSEQ", "36", "LBTMSHI", "LAB RESULT/UPPER LIMIT OF NORMAL", "0.6", "DERIVED", "CLINICAL STUDY SPONSOR"], ["CDISCPILOT01", "LB", "01-701-1317", "LBSEQ", "59", "LBTMSHI", "LAB RESULT/UPPER LIMIT OF NORMAL", "0.8", "DERIVED", "CLINICAL STUDY SPONSOR"], ["CDISCPILOT01", "LB", "01-701-1317", "LBSEQ", "63", "LBTMSHI", "LAB RESULT/UPPER LIMIT OF NORMAL", "1.0", "DERIVED", "CLINICAL STUDY SPONSOR"], ["CDISCPILOT01", "LB", "01-701-1317", "LBSEQ", "64", "LBTMSHI", "LAB RESULT/UPPER LIMIT OF NORMAL", "0.2", "DERIVED", "CLINICAL STUDY SPONSOR"], ["CDISCPILOT01", "LB", "01-701-1317", "LBSEQ", "67", "LBTMSHI", "LAB RESULT/UPPER LIMIT OF NORMAL", "0.9", "DERIVED", "CLINICAL STUDY SPONSOR"], ["CDISCPILOT01", "LB", "01-701-1317", "LBSEQ", "95", "LBTMSHI", "LAB RESULT/UPPER LIMIT OF NORMAL", "0.6", "DERIVED", "CLINICAL STUDY SPONSOR"], ["CDISCPILOT01", "LB", "01-701-1317", "LBSEQ", "100", "LBTMSHI", "LAB RESULT/UPPER LIMIT OF NORMAL", "1.0", "DERIVED", "CLINICAL STUDY SPONSOR"], ["CDISCPILOT01", "LB", "01-701-1317", "LBSEQ", "220", "LBTMSHI", "LAB RESULT/UPPER LIMIT OF NORMAL", "0.6", "DERIVED", "CLINICAL STUDY SPONSOR"], ["CDISCPILOT01", "LB", "01-701-1317", "LBSEQ", "225", "LBTMSHI", "LAB RESULT/UPPER LIMIT OF NORMAL", "1.0", "DERIVED", "CLINICAL STUDY SPONSOR"], ["CDISCPILOT01", "LB", "01-701-1317", "LBSEQ", "315", "ENDPOINT", "ENDPOINT VALUE FLAG", "Y", "DERIVED", "CLINICAL STUDY SPONSOR"], ["CDISCPILOT01", "LB", "01-701-1317", "LBSEQ", "315", "LBTMSHI", "LAB RESULT/UPPER LIMIT OF NORMAL", "0.8", "DERIVED", "CLINICAL STUDY SPONSOR"], ["CDISCPILOT01", "LB", "01-701-1317", "LBSEQ", "320", "ENDPOINT", "ENDPOINT VALUE FLAG", "Y", "DERIVED", "CLINICAL STUDY SPONSOR"], ["CDISCPILOT01", "LB", "01-701-1317", "LBSEQ", "320", "LBTMSHI", "LAB RESULT/UPPER LIMIT OF NORMAL", "1.0", "DERIVED", "CLINICAL STUDY SPONSOR"], ["CDISCPILOT01", "LB", "01-701-1324", "LBSEQ", "27", "LBTMSHI", "LAB RESULT/UPPER LIMIT OF NORMAL", "0.6", "DERIVED", "CLINICAL STUDY SPONSOR"], ["CDISCPILOT01", "LB", "01-701-1324", "LBSEQ", "31", "LBTMSHI", "LAB RESULT/UPPER LIMIT OF NORMAL", "1.0", "DERIVED", "CLINICAL STUDY SPONSOR"], ["CDISCPILOT01", "LB", "01-701-1324", "LBSEQ", "32", "LBTMSHI", "LAB RESULT/UPPER LIMIT OF NORMAL", "0.3", "DERIVED", "CLINICAL STUDY SPONSOR"], ["CDISCPILOT01", "LB", "01-701-1324", "LBSEQ", "35", "LBTMSHI", "LAB RESULT/UPPER LIMIT OF NORMAL", "0.4", "DERIVED", "CLINICAL STUDY SPONSOR"], ["CDISCPILOT01", "LB", "01-701-1324", "LBSEQ", "72", "LBTMSHI", "LAB RESULT/UPPER LIMIT OF NORMAL", "0.6", "DERIVED", "CLINICAL STUDY SPONSOR"], ["CDISCPILOT01", "LB", "01-701-1324", "LBSEQ", "77", "LBTMSHI", "LAB RESULT/UPPER LIMIT OF NORMAL", "1.0", "DERIVED", "CLINICAL STUDY SPONSOR"], ["CDISCPILOT01", "LB", "01-701-1324", "LBSEQ", "80", "LBTMSHI", "LAB RESULT/UPPER LIMIT OF NORMAL", "0.5", "DERIVED", "CLINICAL STUDY SPONSOR"], ["CDISCPILOT01", "LB", "01-701-1324", "LBSEQ", "198", "LBTMSHI", "LAB RESULT/UPPER LIMIT OF NORMAL", "0.6", "DERIVED", "CLINICAL STUDY SPONSOR"], ["CDISCPILOT01", "LB", "01-701-1324", "LBSEQ", "203", "LBTMSHI", "LAB RESULT/UPPER LIMIT OF NORMAL", "1.0", "DERIVED", "CLINICAL STUDY SPONSOR"], ["CDISCPILOT01", "LB", "01-701-1324", "LBSEQ", "293", "ENDPOINT", "ENDPOINT VALUE FLAG", "Y", "DERIVED", "CLINICAL STUDY SPONSOR"], ["CDISCPILOT01", "LB", "01-701-1324", "LBSEQ", "293", "LBTMSHI", "LAB RESULT/UPPER LIMIT OF NORMAL", "0.6", "DERIVED", "CLINICAL STUDY SPONSOR"], ["CDISCPILOT01", "LB", "01-701-1324", "LBSEQ", "298", "ENDPOINT", "ENDPOINT VALUE FLAG", "Y", "DERIVED", "CLINICAL STUDY SPONSOR"], ["CDISCPILOT01", "LB", "01-701-1324", "LBSEQ", "298", "LBTMSHI", "LAB RESULT/UPPER LIMIT OF NORMAL", "1.0", "DERIVED", "CLINICAL STUDY SPONSOR"], ["CDISCPILOT01", "LB", "01-701-1341", "LBSEQ", "27", "LBTMSHI", "LAB RESULT/UPPER LIMIT OF NORMAL", "0.6", "DERIVED", "CLINICAL STUDY SPONSOR"], ["CDISCPILOT01", "LB", "01-701-1341", "LBSEQ", "32", "LBTMSHI", "LAB RESULT/UPPER LIMIT OF NORMAL", "1.0", "DERIVED", "CLINICAL STUDY SPONSOR"], ["CDISCPILOT01", "LB", "01-701-1341", "LBSEQ", "33", "LBTMSHI", "LAB RESULT/UPPER LIMIT OF NORMAL", "0.0", "DERIVED", "CLINICAL STUDY SPONSOR"], ["CDISCPILOT01", "LB", "01-701-1341", "LBSEQ", "36", "LBTMSHI", "LAB RESULT/UPPER LIMIT OF NORMAL", "0.7", "DERIVED", "CLINICAL STUDY SPONSOR"], ["CDISCPILOT01", "LB", "01-701-1341", "LBSEQ", "52", "LBTMSHI", "LAB RESULT/UPPER LIMIT OF NORMAL", "0.1", "DERIVED", "CLINICAL STUDY SPONSOR"], ["CDISCPILOT01", "LB", "01-701-1341", "LBSEQ", "80", "LBTMSHI", "LAB RESULT/UPPER LIMIT OF NORMAL", "0.9", "DERIVED", "CLINICAL STUDY SPONSOR"], ["CDISCPILOT01", "LB", "01-701-1341", "LBSEQ", "85", "LBTMSHI", "LAB RESULT/UPPER LIMIT OF NORMAL", "1.0", "DERIVED", "CLINICAL STUDY SPONSOR"], ["CDISCPILOT01", "LB", "01-701-1341", "LBSEQ", "115", "ENDPOINT", "ENDPOINT VALUE FLAG", "Y", "DERIVED", "CLINICAL STUDY SPONSOR"], ["CDISCPILOT01", "LB", "01-701-1341", "LBSEQ", "115", "LBTMSHI", "LAB RESULT/UPPER LIMIT OF NORMAL", "0.6", "DERIVED", "CLINICAL STUDY SPONSOR"], ["CDISCPILOT01", "LB", "01-701-1341", "LBSEQ", "120", "ENDPOINT", "ENDPOINT VALUE FLAG", "Y", "DERIVED", "CLINICAL STUDY SPONSOR"], ["CDISCPILOT01", "LB", "01-701-1341", "LBSEQ", "120", "LBTMSHI", "LAB RESULT/UPPER LIMIT OF NORMAL", "1.0", "DERIVED", "CLINICAL STUDY SPONSOR"], ["CDISCPILOT01", "LB", "01-701-1345", "LBSEQ", "27", "LBTMSHI", "LAB RESULT/UPPER LIMIT OF NORMAL", "0.6", "DERIVED", "CLINICAL STUDY SPONSOR"], ["CDISCPILOT01", "LB", "01-701-1345", "LBSEQ", "32", "LBTMSHI", "LAB RESULT/UPPER LIMIT OF NORMAL", "1.0", "DERIVED", "CLINICAL STUDY SPONSOR"], ["CDISCPILOT01", "LB", "01-701-1345", "LBSEQ", "33", "LBTMSHI", "LAB RESULT/UPPER LIMIT OF NORMAL", "0.2", "DERIVED", "CLINICAL STUDY SPONSOR"], ["CDISCPILOT01", "LB", "01-701-1345", "LBSEQ", "36", "LBTMSHI", "LAB RESULT/UPPER LIMIT OF NORMAL", "0.3", "DERIVED", "CLINICAL STUDY SPONSOR"], ["CDISCPILOT01", "LB", "01-701-1345", "LBSEQ", "64", "LBTMSHI", "LAB RESULT/UPPER LIMIT OF NORMAL", "0.6", "DERIVED", "CLINICAL STUDY SPONSOR"], ["CDISCPILOT01", "LB", "01-701-1345", "LBSEQ", "69", "LBTMSHI", "LAB RESULT/UPPER LIMIT OF NORMAL", "1.0", "DERIVED", "CLINICAL STUDY SPONSOR"], ["CDISCPILOT01", "LB", "01-701-1345", "LBSEQ", "189", "LBTMSHI", "LAB RESULT/UPPER LIMIT OF NORMAL", "0.6", "DERIVED", "CLINICAL STUDY SPONSOR"], ["CDISCPILOT01", "LB", "01-701-1345", "LBSEQ", "194", "LBTMSHI", "LAB RESULT/UPPER LIMIT OF NORMAL", "1.0", "DERIVED", "CLINICAL STUDY SPONSOR"], ["CDISCPILOT01", "LB", "01-701-1345", "LBSEQ", "284", "ENDPOINT", "ENDPOINT VALUE FLAG", "Y", "DERIVED", "CLINICAL STUDY SPONSOR"], ["CDISCPILOT01", "LB", "01-701-1345", "LBSEQ", "284", "LBTMSHI", "LAB RESULT/UPPER LIMIT OF NORMAL", "0.6", "DERIVED", "CLINICAL STUDY SPONSOR"], ["CDISCPILOT01", "LB", "01-701-1345", "LBSEQ", "289", "ENDPOINT", "ENDPOINT VALUE FLAG", "Y", "DERIVED", "CLINICAL STUDY SPONSOR"], ["CDISCPILOT01", "LB", "01-701-1345", "LBSEQ", "289", "LBTMSHI", "LAB RESULT/UPPER LIMIT OF NORMAL", "1.0", "DERIVED", "CLINICAL STUDY SPONSOR"], ["CDISCPILOT01", "LB", "01-701-1360", "LBSEQ", "27", "LBTMSHI", "LAB RESULT/UPPER LIMIT OF NORMAL", "0.6", "DERIVED", "CLINICAL STUDY SPONSOR"], ["CDISCPILOT01", "LB", "01-701-1360", "LBSEQ", "32", "LBTMSHI", "LAB RESULT/UPPER LIMIT OF NORMAL", "1.0", "DERIVED", "CLINICAL STUDY SPONSOR"], ["CDISCPILOT01", "LB", "01-701-1360", "LBSEQ", "33", "LBTMSHI", "LAB RESULT/UPPER LIMIT OF NORMAL", "0.2", "DERIVED", "CLINICAL STUDY SPONSOR"], ["CDISCPILOT01", "LB", "01-701-1360", "LBSEQ", "36", "LBTMSHI", "LAB RESULT/UPPER LIMIT OF NORMAL", "0.3", "DERIVED", "CLINICAL STUDY SPONSOR"], ["CDISCPILOT01", "LB", "01-701-1360", "LBSEQ", "64", "ENDPOINT", "ENDPOINT VALUE FLAG", "Y", "DERIVED", "CLINICAL STUDY SPONSOR"], ["CDISCPILOT01", "LB", "01-701-1360", "LBSEQ", "64", "LBTMSHI", "LAB RESULT/UPPER LIMIT OF NORMAL", "0.6", "DERIVED", "CLINICAL STUDY SPONSOR"], ["CDISCPILOT01", "LB", "01-701-1360", "LBSEQ", "69", "ENDPOINT", "ENDPOINT VALUE FLAG", "Y", "DERIVED", "CLINICAL STUDY SPONSOR"], ["CDISCPILOT01", "LB", "01-701-1360", "LBSEQ", "69", "LBTMSHI", "LAB RESULT/UPPER LIMIT OF NORMAL", "1.0", "DERIVED", "CLINICAL STUDY SPONSOR"], ["CDISCPILOT01", "LB", "01-701-1363", "LBSEQ", "27", "LBTMSHI", "LAB RESULT/UPPER LIMIT OF NORMAL", "0.6", "DERIVED", "CLINICAL STUDY SPONSOR"], ["CDISCPILOT01", "LB", "01-701-1363", "LBSEQ", "32", "LBTMSHI", "LAB RESULT/UPPER LIMIT OF NORMAL", "1.0", "DERIVED", "CLINICAL STUDY SPONSOR"], ["CDISCPILOT01", "LB", "01-701-1363", "LBSEQ", "33", "LBTMSHI", "LAB RESULT/UPPER LIMIT OF NORMAL", "0.3", "DERIVED", "CLINICAL STUDY SPONSOR"], ["CDISCPILOT01", "LB", "01-701-1363", "LBSEQ", "36", "LBTMSHI", "LAB RESULT/UPPER LIMIT OF NORMAL", "0.8", "DERIVED", "CLINICAL STUDY SPONSOR"], ["CDISCPILOT01", "LB", "01-701-1363", "LBSEQ", "64", "LBTMSHI", "LAB RESULT/UPPER LIMIT OF NORMAL", "0.6", "DERIVED", "CLINICAL STUDY SPONSOR"], ["CDISCPILOT01", "LB", "01-701-1363", "LBSEQ", "69", "LBTMSHI", "LAB RESULT/UPPER LIMIT OF NORMAL", "1.0", "DERIVED", "CLINICAL STUDY SPONSOR"], ["CDISCPILOT01", "LB", "01-701-1363", "LBSEQ", "189", "LBTMSHI", "LAB RESULT/UPPER LIMIT OF NORMAL", "0.6", "DERIVED", "CLINICAL STUDY SPONSOR"], ["CDISCPILOT01", "LB", "01-701-1363", "LBSEQ", "194", "LBTMSHI", "LAB RESULT/UPPER LIMIT OF NORMAL", "1.0", "DERIVED", "CLINICAL STUDY SPONSOR"], ["CDISCPILOT01", "LB", "01-701-1363", "LBSEQ", "284", "ENDPOINT", "ENDPOINT VALUE FLAG", "Y", "DERIVED", "CLINICAL STUDY SPONSOR"], ["CDISCPILOT01", "LB", "01-701-1363", "LBSEQ", "284", "LBTMSHI", "LAB RESULT/UPPER LIMIT OF NORMAL", "0.8", "DERIVED", "CLINICAL STUDY SPONSOR"], ["CDISCPILOT01", "LB", "01-701-1363", "LBSEQ", "289", "ENDPOINT", "ENDPOINT VALUE FLAG", "Y", "DERIVED", "CLINICAL STUDY SPONSOR"], ["CDISCPILOT01", "LB", "01-701-1363", "LBSEQ", "289", "LBTMSHI", "LAB RESULT/UPPER LIMIT OF NORMAL", "1.0", "DERIVED", "CLINICAL STUDY SPONSOR"], ["CDISCPILOT01", "LB", "01-701-1383", "LBSEQ", "27", "LBTMSHI", "LAB RESULT/UPPER LIMIT OF NORMAL", "0.8", "DERIVED", "CLINICAL STUDY SPONSOR"], ["CDISCPILOT01", "LB", "01-701-1383", "LBSEQ", "32", "LBTMSHI", "LAB RESULT/UPPER LIMIT OF NORMAL", "1.0", "DERIVED", "CLINICAL STUDY SPONSOR"], ["CDISCPILOT01", "LB", "01-701-1383", "LBSEQ", "33", "LBTMSHI", "LAB RESULT/UPPER LIMIT OF NORMAL", "0.7", "DERIVED", "CLINICAL STUDY SPONSOR"], ["CDISCPILOT01", "LB", "01-701-1383", "LBSEQ", "36", "LBTMSHI", "LAB RESULT/UPPER LIMIT OF NORMAL", "0.6", "DERIVED", "CLINICAL STUDY SPONSOR"], ["CDISCPILOT01", "LB", "01-701-1383", "LBSEQ", "64", "LBTMSHI", "LAB RESULT/UPPER LIMIT OF NORMAL", "0.8", "DERIVED", "CLINICAL STUDY SPONSOR"], ["CDISCPILOT01", "LB", "01-701-1383", "LBSEQ", "69", "LBTMSHI", "LAB RESULT/UPPER LIMIT OF NORMAL", "1.0", "DERIVED", "CLINICAL STUDY SPONSOR"], ["CDISCPILOT01", "LB", "01-701-1383", "LBSEQ", "189", "LBTMSHI", "LAB RESULT/UPPER LIMIT OF NORMAL", "0.6", "DERIVED", "CLINICAL STUDY SPONSOR"], ["CDISCPILOT01", "LB", "01-701-1383", "LBSEQ", "194", "LBTMSHI", "LAB RESULT/UPPER LIMIT OF NORMAL", "1.0", "DERIVED", "CLINICAL STUDY SPONSOR"], ["CDISCPILOT01", "LB", "01-701-1383", "LBSEQ", "284", "ENDPOINT", "ENDPOINT VALUE FLAG", "Y", "DERIVED", "CLINICAL STUDY SPONSOR"], ["CDISCPILOT01", "LB", "01-701-1383", "LBSEQ", "284", "LBTMSHI", "LAB RESULT/UPPER LIMIT OF NORMAL", "0.9", "DERIVED", "CLINICAL STUDY SPONSOR"], ["CDISCPILOT01", "LB", "01-701-1383", "LBSEQ", "289", "ENDPOINT", "ENDPOINT VALUE FLAG", "Y", "DERIVED", "CLINICAL STUDY SPONSOR"], ["CDISCPILOT01", "LB", "01-701-1383", "LBSEQ", "289", "LBTMSHI", "LAB RESULT/UPPER LIMIT OF NORMAL", "1.0", "DERIVED", "CLINICAL STUDY SPONSOR"], ["CDISCPILOT01", "LB", "01-701-1387", "LBSEQ", "27", "LBTMSHI", "LAB RESULT/UPPER LIMIT OF NORMAL", "0.6", "DERIVED", "CLINICAL STUDY SPONSOR"], ["CDISCPILOT01", "LB", "01-701-1387", "LBSEQ", "32", "LBTMSHI", "LAB RESULT/UPPER LIMIT OF NORMAL", "1.0", "DERIVED", "CLINICAL STUDY SPONSOR"], ["CDISCPILOT01", "LB", "01-701-1387", "LBSEQ", "33", "LBTMSHI", "LAB RESULT/UPPER LIMIT OF NORMAL", "0.2", "DERIVED", "CLINICAL STUDY SPONSOR"], ["CDISCPILOT01", "LB", "01-701-1387", "LBSEQ", "36", "LBTMSHI", "LAB RESULT/UPPER LIMIT OF NORMAL", "0.4", "DERIVED", "CLINICAL STUDY SPONSOR"], ["CDISCPILOT01", "LB", "01-701-1387", "LBSEQ", "64", "ENDPOINT", "ENDPOINT VALUE FLAG", "Y", "DERIVED", "CLINICAL STUDY SPONSOR"], ["CDISCPILOT01", "LB", "01-701-1387", "LBSEQ", "64", "LBTMSHI", "LAB RESULT/UPPER LIMIT OF NORMAL", "0.6", "DERIVED", "CLINICAL STUDY SPONSOR"], ["CDISCPILOT01", "LB", "01-701-1387", "LBSEQ", "69", "ENDPOINT", "ENDPOINT VALUE FLAG", "Y", "DERIVED", "CLINICAL STUDY SPONSOR"], ["CDISCPILOT01", "LB", "01-701-1387", "LBSEQ", "69", "LBTMSHI", "LAB RESULT/UPPER LIMIT OF NORMAL", "1.0", "DERIVED", "CLINICAL STUDY SPONSOR"], ["CDISCPILOT01", "LB", "01-701-1392", "LBSEQ", "27", "LBTMSHI", "LAB RESULT/UPPER LIMIT OF NORMAL", "0.6", "DERIVED", "CLINICAL STUDY SPONSOR"], ["CDISCPILOT01", "LB", "01-701-1392", "LBSEQ", "32", "LBTMSHI", "LAB RESULT/UPPER LIMIT OF NORMAL", "1.0", "DERIVED", "CLINICAL STUDY SPONSOR"], ["CDISCPILOT01", "LB", "01-701-1392", "LBSEQ", "33", "LBTMSHI", "LAB RESULT/UPPER LIMIT OF NORMAL", "0.3", "DERIVED", "CLINICAL STUDY SPONSOR"], ["CDISCPILOT01", "LB", "01-701-1392", "LBSEQ", "36", "LBTMSHI", "LAB RESULT/UPPER LIMIT OF NORMAL", "0.7", "DERIVED", "CLINICAL STUDY SPONSOR"], ["CDISCPILOT01", "LB", "01-701-1392", "LBSEQ", "64", "LBTMSHI", "LAB RESULT/UPPER LIMIT OF NORMAL", "0.6", "DERIVED", "CLINICAL STUDY SPONSOR"], ["CDISCPILOT01", "LB", "01-701-1392", "LBSEQ", "69", "LBTMSHI", "LAB RESULT/UPPER LIMIT OF NORMAL", "1.0", "DERIVED", "CLINICAL STUDY SPONSOR"], ["CDISCPILOT01", "LB", "01-701-1392", "LBSEQ", "189", "LBTMSHI", "LAB RESULT/UPPER LIMIT OF NORMAL", "0.6", "DERIVED", "CLINICAL STUDY SPONSOR"], ["CDISCPILOT01", "LB", "01-701-1392", "LBSEQ", "194", "LBTMSHI", "LAB RESULT/UPPER LIMIT OF NORMAL", "1.0", "DERIVED", "CLINICAL STUDY SPONSOR"], ["CDISCPILOT01", "LB", "01-701-1392", "LBSEQ", "284", "ENDPOINT", "ENDPOINT VALUE FLAG", "Y", "DERIVED", "CLINICAL STUDY SPONSOR"], ["CDISCPILOT01", "LB", "01-701-1392", "LBSEQ", "284", "LBTMSHI", "LAB RESULT/UPPER LIMIT OF NORMAL", "0.8", "DERIVED", "CLINICAL STUDY SPONSOR"], ["CDISCPILOT01", "LB", "01-701-1392", "LBSEQ", "289", "ENDPOINT", "ENDPOINT VALUE FLAG", "Y", "DERIVED", "CLINICAL STUDY SPONSOR"], ["CDISCPILOT01", "LB", "01-701-1392", "LBSEQ", "289", "LBTMSHI", "LAB RESULT/UPPER LIMIT OF NORMAL", "1.0", "DERIVED", "CLINICAL STUDY SPONSOR"], ["CDISCPILOT01", "LB", "01-701-1415", "LBSEQ", "27", "LBTMSHI", "LAB RESULT/UPPER LIMIT OF NORMAL", "0.6", "DERIVED", "CLINICAL STUDY SPONSOR"], ["CDISCPILOT01", "LB", "01-701-1415", "LBSEQ", "32", "LBTMSHI", "LAB RESULT/UPPER LIMIT OF NORMAL", "1.0", "DERIVED", "CLINICAL STUDY SPONSOR"], ["CDISCPILOT01", "LB", "01-701-1415", "LBSEQ", "33", "LBTMSHI", "LAB RESULT/UPPER LIMIT OF NORMAL", "0.2", "DERIVED", "CLINICAL STUDY SPONSOR"], ["CDISCPILOT01", "LB", "01-701-1415", "LBSEQ", "36", "LBTMSHI", "LAB RESULT/UPPER LIMIT OF NORMAL", "0.4", "DERIVED", "CLINICAL STUDY SPONSOR"], ["CDISCPILOT01", "LB", "01-701-1415", "LBSEQ", "40", "LBTMSHI", "LAB RESULT/UPPER LIMIT OF NORMAL", "0.8", "DERIVED", "CLINICAL STUDY SPONSOR"], ["CDISCPILOT01", "LB", "01-701-1415", "LBSEQ", "41", "LBTMSHI", "LAB RESULT/UPPER LIMIT OF NORMAL", "1.0", "DERIVED", "CLINICAL STUDY SPONSOR"], ["CDISCPILOT01", "LB", "01-701-1415", "LBSEQ", "69", "LBTMSHI", "LAB RESULT/UPPER LIMIT OF NORMAL", "0.6", "DERIVED", "CLINICAL STUDY SPONSOR"], ["CDISCPILOT01", "LB", "01-701-1415", "LBSEQ", "74", "LBTMSHI", "LAB RESULT/UPPER LIMIT OF NORMAL", "1.0", "DERIVED", "CLINICAL STUDY SPONSOR"], ["CDISCPILOT01", "LB", "01-701-1415", "LBSEQ", "196", "LBTMSHI", "LAB RESULT/UPPER LIMIT OF NORMAL", "0.6", "DERIVED", "CLINICAL STUDY SPONSOR"], ["CDISCPILOT01", "LB", "01-701-1415", "LBSEQ", "200", "LBTMSHI", "LAB RESULT/UPPER LIMIT OF NORMAL", "1.0", "DERIVED", "CLINICAL STUDY SPONSOR"], ["CDISCPILOT01", "LB", "01-701-1415", "LBSEQ", "290", "ENDPOINT", "ENDPOINT VALUE FLAG", "Y", "DERIVED", "CLINICAL STUDY SPONSOR"], ["CDISCPILOT01", "LB", "01-701-1415", "LBSEQ", "290", "LBTMSHI", "LAB RESULT/UPPER LIMIT OF NORMAL", "0.6", "DERIVED", "CLINICAL STUDY SPONSOR"], ["CDISCPILOT01", "LB", "01-701-1415", "LBSEQ", "295", "ENDPOINT", "ENDPOINT VALUE FLAG", "Y", "DERIVED", "CLINICAL STUDY SPONSOR"], ["CDISCPILOT01", "LB", "01-701-1415", "LBSEQ", "295", "LBTMSHI", "LAB RESULT/UPPER LIMIT OF NORMAL", "1.0", "DERIVED", "CLINICAL STUDY SPONSOR"], ["CDISCPILOT01", "LB", "01-701-1429", "LBSEQ", "27", "LBTMSHI", "LAB RESULT/UPPER LIMIT OF NORMAL", "0.8", "DERIVED", "CLINICAL STUDY SPONSOR"], ["CDISCPILOT01", "LB", "01-701-1429", "LBSEQ", "32", "LBTMSHI", "LAB RESULT/UPPER LIMIT OF NORMAL", "1.0", "DERIVED", "CLINICAL STUDY SPONSOR"], ["CDISCPILOT01", "LB", "01-701-1429", "LBSEQ", "33", "LBTMSHI", "LAB RESULT/UPPER LIMIT OF NORMAL", "0.2", "DERIVED", "CLINICAL STUDY SPONSOR"], ["CDISCPILOT01", "LB", "01-701-1429", "LBSEQ", "36", "LBTMSHI", "LAB RESULT/UPPER LIMIT OF NORMAL", "0.4", "DERIVED", "CLINICAL STUDY SPONSOR"], ["CDISCPILOT01", "LB", "01-701-1429", "LBSEQ", "64", "LBTMSHI", "LAB RESULT/UPPER LIMIT OF NORMAL", "0.6", "DERIVED", "CLINICAL STUDY SPONSOR"], ["CDISCPILOT01", "LB", "01-701-1429", "LBSEQ", "69", "LBTMSHI", "LAB RESULT/UPPER LIMIT OF NORMAL", "1.0", "DERIVED", "CLINICAL STUDY SPONSOR"], ["CDISCPILOT01", "LB", "01-701-1429", "LBSEQ", "129", "ENDPOINT", "ENDPOINT VALUE FLAG", "Y", "DERIVED", "CLINICAL STUDY SPONSOR"], ["CDISCPILOT01", "LB", "01-701-1429", "LBSEQ", "129", "LBTMSHI", "LAB RESULT/UPPER LIMIT OF NORMAL", "0.8", "DERIVED", "CLINICAL STUDY SPONSOR"], ["CDISCPILOT01", "LB", "01-701-1429", "LBSEQ", "134", "ENDPOINT", "ENDPOINT VALUE FLAG", "Y", "DERIVED", "CLINICAL STUDY SPONSOR"], ["CDISCPILOT01", "LB", "01-701-1429", "LBSEQ", "134", "LBTMSHI", "LAB RESULT/UPPER LIMIT OF NORMAL", "1.0", "DERIVED", "CLINICAL STUDY SPONSOR"], ["CDISCPILOT01", "LB", "01-701-1440", "LBSEQ", "27", "LBTMSHI", "LAB RESULT/UPPER LIMIT OF NORMAL", "0.6", "DERIVED", "CLINICAL STUDY SPONSOR"], ["CDISCPILOT01", "LB", "01-701-1440", "LBSEQ", "32", "LBTMSHI", "LAB RESULT/UPPER LIMIT OF NORMAL", "1.0", "DERIVED", "CLINICAL STUDY SPONSOR"], ["CDISCPILOT01", "LB", "01-701-1440", "LBSEQ", "33", "LBTMSHI", "LAB RESULT/UPPER LIMIT OF NORMAL", "0.1", "DERIVED", "CLINICAL STUDY SPONSOR"], ["CDISCPILOT01", "LB", "01-701-1440", "LBSEQ", "36", "LBTMSHI", "LAB RESULT/UPPER LIMIT OF NORMAL", "0.3", "DERIVED", "CLINICAL STUDY SPONSOR"], ["CDISCPILOT01", "LB", "01-701-1440", "LBSEQ", "64", "LBTMSHI", "LAB RESULT/UPPER LIMIT OF NORMAL", "0.6", "DERIVED", "CLINICAL STUDY SPONSOR"], ["CDISCPILOT01", "LB", "01-701-1440", "LBSEQ", "69", "LBTMSHI", "LAB RESULT/UPPER LIMIT OF NORMAL", "1.0", "DERIVED", "CLINICAL STUDY SPONSOR"], ["CDISCPILOT01", "LB", "01-701-1440", "LBSEQ", "189", "LBTMSHI", "LAB RESULT/UPPER LIMIT OF NORMAL", "0.8", "DERIVED", "CLINICAL STUDY SPONSOR"], ["CDISCPILOT01", "LB", "01-701-1440", "LBSEQ", "194", "LBTMSHI", "LAB RESULT/UPPER LIMIT OF NORMAL", "1.0", "DERIVED", "CLINICAL STUDY SPONSOR"], ["CDISCPILOT01", "LB", "01-701-1440", "LBSEQ", "284", "ENDPOINT", "ENDPOINT VALUE FLAG", "Y", "DERIVED", "CLINICAL STUDY SPONSOR"], ["CDISCPILOT01", "LB", "01-701-1440", "LBSEQ", "284", "LBTMSHI", "LAB RESULT/UPPER LIMIT OF NORMAL", "0.8", "DERIVED", "CLINICAL STUDY SPONSOR"], ["CDISCPILOT01", "LB", "01-701-1440", "LBSEQ", "289", "ENDPOINT", "ENDPOINT VALUE FLAG", "Y", "DERIVED", "CLINICAL STUDY SPONSOR"], ["CDISCPILOT01", "LB", "01-701-1440", "LBSEQ", "289", "LBTMSHI", "LAB RESULT/UPPER LIMIT OF NORMAL", "1.0", "DERIVED", "CLINICAL STUDY SPONSOR"], ["CDISCPILOT01", "LB", "01-701-1442", "LBSEQ", "27", "LBTMSHI", "LAB RESULT/UPPER LIMIT OF NORMAL", "0.6", "DERIVED", "CLINICAL STUDY SPONSOR"], ["CDISCPILOT01", "LB", "01-701-1442", "LBSEQ", "32", "LBTMSHI", "LAB RESULT/UPPER LIMIT OF NORMAL", "1.0", "DERIVED", "CLINICAL STUDY SPONSOR"], ["CDISCPILOT01", "LB", "01-701-1442", "LBSEQ", "33", "LBTMSHI", "LAB RESULT/UPPER LIMIT OF NORMAL", "0.7", "DERIVED", "CLINICAL STUDY SPONSOR"], ["CDISCPILOT01", "LB", "01-701-1442", "LBSEQ", "36", "LBTMSHI", "LAB RESULT/UPPER LIMIT OF NORMAL", "0.8", "DERIVED", "CLINICAL STUDY SPONSOR"], ["CDISCPILOT01", "LB", "01-701-1442", "LBSEQ", "64", "LBTMSHI", "LAB RESULT/UPPER LIMIT OF NORMAL", "0.6", "DERIVED", "CLINICAL STUDY SPONSOR"], ["CDISCPILOT01", "LB", "01-701-1442", "LBSEQ", "69", "LBTMSHI", "LAB RESULT/UPPER LIMIT OF NORMAL", "1.0", "DERIVED", "CLINICAL STUDY SPONSOR"], ["CDISCPILOT01", "LB", "01-701-1442", "LBSEQ", "189", "LBTMSHI", "LAB RESULT/UPPER LIMIT OF NORMAL", "0.6", "DERIVED", "CLINICAL STUDY SPONSOR"], ["CDISCPILOT01", "LB", "01-701-1442", "LBSEQ", "194", "LBTMSHI", "LAB RESULT/UPPER LIMIT OF NORMAL", "1.0", "DERIVED", "CLINICAL STUDY SPONSOR"], ["CDISCPILOT01", "LB", "01-701-1442", "LBSEQ", "284", "ENDPOINT", "ENDPOINT VALUE FLAG", "Y", "DERIVED", "CLINICAL STUDY SPONSOR"], ["CDISCPILOT01", "LB", "01-701-1442", "LBSEQ", "284", "LBTMSHI", "LAB RESULT/UPPER LIMIT OF NORMAL", "0.8", "DERIVED", "CLINICAL STUDY SPONSOR"], ["CDISCPILOT01", "LB", "01-701-1442", "LBSEQ", "289", "ENDPOINT", "ENDPOINT VALUE FLAG", "Y", "DERIVED", "CLINICAL STUDY SPONSOR"], ["CDISCPILOT01", "LB", "01-701-1442", "LBSEQ", "289", "LBTMSHI", "LAB RESULT/UPPER LIMIT OF NORMAL", "1.0", "DERIVED", "CLINICAL STUDY SPONSOR"], ["CDISCPILOT01", "LB", "01-701-1444", "LBSEQ", "27", "LBTMSHI", "LAB RESULT/UPPER LIMIT OF NORMAL", "0.6", "DERIVED", "CLINICAL STUDY SPONSOR"], ["CDISCPILOT01", "LB", "01-701-1444", "LBSEQ", "32", "LBTMSHI", "LAB RESULT/UPPER LIMIT OF NORMAL", "1.0", "DERIVED", "CLINICAL STUDY SPONSOR"], ["CDISCPILOT01", "LB", "01-701-1444", "LBSEQ", "33", "LBTMSHI", "LAB RESULT/UPPER LIMIT OF NORMAL", "0.3", "DERIVED", "CLINICAL STUDY SPONSOR"], ["CDISCPILOT01", "LB", "01-701-1444", "LBSEQ", "36", "LBTMSHI", "LAB RESULT/UPPER LIMIT OF NORMAL", "0.3", "DERIVED", "CLINICAL STUDY SPONSOR"], ["CDISCPILOT01", "LB", "01-701-1444", "LBSEQ", "64", "LBTMSHI", "LAB RESULT/UPPER LIMIT OF NORMAL", "0.6", "DERIVED", "CLINICAL STUDY SPONSOR"], ["CDISCPILOT01", "LB", "01-701-1444", "LBSEQ", "69", "LBTMSHI", "LAB RESULT/UPPER LIMIT OF NORMAL", "1.0", "DERIVED", "CLINICAL STUDY SPONSOR"], ["CDISCPILOT01", "LB", "01-701-1444", "LBSEQ", "129", "ENDPOINT", "ENDPOINT VALUE FLAG", "Y", "DERIVED", "CLINICAL STUDY SPONSOR"], ["CDISCPILOT01", "LB", "01-701-1444", "LBSEQ", "129", "LBTMSHI", "LAB RESULT/UPPER LIMIT OF NORMAL", "0.6", "DERIVED", "CLINICAL STUDY SPONSOR"], ["CDISCPILOT01", "LB", "01-701-1444", "LBSEQ", "134", "ENDPOINT", "ENDPOINT VALUE FLAG", "Y", "DERIVED", "CLINICAL STUDY SPONSOR"], ["CDISCPILOT01", "LB", "01-701-1444", "LBSEQ", "134", "LBTMSHI", "LAB RESULT/UPPER LIMIT OF NORMAL", "1.0", "DERIVED", "CLINICAL STUDY SPONSOR"], ["CDISCPILOT01", "LB", "01-702-1082", "LBSEQ", "27", "LBTMSHI", "LAB RESULT/UPPER LIMIT OF NORMAL", "0.6", "DERIVED", "CLINICAL STUDY SPONSOR"], ["CDISCPILOT01", "LB", "01-702-1082", "LBSEQ", "32", "LBTMSHI", "LAB RESULT/UPPER LIMIT OF NORMAL", "1.0", "DERIVED", "CLINICAL STUDY SPONSOR"], ["CDISCPILOT01", "LB", "01-702-1082", "LBSEQ", "33", "LBTMSHI", "LAB RESULT/UPPER LIMIT OF NORMAL", "0.5", "DERIVED", "CLINICAL STUDY SPONSOR"], ["CDISCPILOT01", "LB", "01-702-1082", "LBSEQ", "36", "LBTMSHI", "LAB RESULT/UPPER LIMIT OF NORMAL", "1.1", "DERIVED", "CLINICAL STUDY SPONSOR"], ["CDISCPILOT01", "LB", "01-702-1082", "LBSEQ", "55", "LBTMSHI", "LAB RESULT/UPPER LIMIT OF NORMAL", "0.6", "DERIVED", "CLINICAL STUDY SPONSOR"], ["CDISCPILOT01", "LB", "01-702-1082", "LBSEQ", "58", "LBTMSHI", "LAB RESULT/UPPER LIMIT OF NORMAL", "1.0", "DERIVED", "CLINICAL STUDY SPONSOR"], ["CDISCPILOT01", "LB", "01-702-1082", "LBSEQ", "59", "LBTMSHI", "LAB RESULT/UPPER LIMIT OF NORMAL", "0.7", "DERIVED", "CLINICAL STUDY SPONSOR"], ["CDISCPILOT01", "LB", "01-702-1082", "LBSEQ", "100", "LBTMSHI", "LAB RESULT/UPPER LIMIT OF NORMAL", "0.8", "DERIVED", "CLINICAL STUDY SPONSOR"], ["CDISCPILOT01", "LB", "01-702-1082", "LBSEQ", "105", "LBTMSHI", "LAB RESULT/UPPER LIMIT OF NORMAL", "1.0", "DERIVED", "CLINICAL STUDY SPONSOR"], ["CDISCPILOT01", "LB", "01-702-1082", "LBSEQ", "225", "ENDPOINT", "ENDPOINT VALUE FLAG", "Y", "DERIVED", "CLINICAL STUDY SPONSOR"], ["CDISCPILOT01", "LB", "01-702-1082", "LBSEQ", "225", "LBTMSHI", "LAB RESULT/UPPER LIMIT OF NORMAL", "0.6", "DERIVED", "CLINICAL STUDY SPONSOR"], ["CDISCPILOT01", "LB", "01-702-1082", "LBSEQ", "230", "ENDPOINT", "ENDPOINT VALUE FLAG", "Y", "DERIVED", "CLINICAL STUDY SPONSOR"], ["CDISCPILOT01", "LB", "01-702-1082", "LBSEQ", "230", "LBTMSHI", "LAB RESULT/UPPER LIMIT OF NORMAL", "1.0", "DERIVED", "CLINICAL STUDY SPONSOR"], ["CDISCPILOT01", "LB", "01-703-1042", "LBSEQ", "27", "LBTMSHI", "LAB RESULT/UPPER LIMIT OF NORMAL", "0.6", "DERIVED", "CLINICAL STUDY SPONSOR"], ["CDISCPILOT01", "LB", "01-703-1042", "LBSEQ", "32", "LBTMSHI", "LAB RESULT/UPPER LIMIT OF NORMAL", "1.0", "DERIVED", "CLINICAL STUDY SPONSOR"], ["CDISCPILOT01", "LB", "01-703-1042", "LBSEQ", "33", "LBTMSHI", "LAB RESULT/UPPER LIMIT OF NORMAL", "0.2", "DERIVED", "CLINICAL STUDY SPONSOR"], ["CDISCPILOT01", "LB", "01-703-1042", "LBSEQ", "36", "LBTMSHI", "LAB RESULT/UPPER LIMIT OF NORMAL", "0.3", "DERIVED", "CLINICAL STUDY SPONSOR"], ["CDISCPILOT01", "LB", "01-703-1042", "LBSEQ", "64", "LBTMSHI", "LAB RESULT/UPPER LIMIT OF NORMAL", "0.6", "DERIVED", "CLINICAL STUDY SPONSOR"], ["CDISCPILOT01", "LB", "01-703-1042", "LBSEQ", "69", "LBTMSHI", "LAB RESULT/UPPER LIMIT OF NORMAL", "1.0", "DERIVED", "CLINICAL STUDY SPONSOR"], ["CDISCPILOT01", "LB", "01-703-1042", "LBSEQ", "70", "LBTMSHI", "LAB RESULT/UPPER LIMIT OF NORMAL", "0.1", "DERIVED", "CLINICAL STUDY SPONSOR"], ["CDISCPILOT01", "LB", "01-703-1042", "LBSEQ", "73", "LBTMSHI", "LAB RESULT/UPPER LIMIT OF NORMAL", "0.2", "DERIVED", "CLINICAL STUDY SPONSOR"], ["CDISCPILOT01", "LB", "01-703-1042", "LBSEQ", "101", "LBTMSHI", "LAB RESULT/UPPER LIMIT OF NORMAL", "0.9", "DERIVED", "CLINICAL STUDY SPONSOR"], ["CDISCPILOT01", "LB", "01-703-1042", "LBSEQ", "106", "LBTMSHI", "LAB RESULT/UPPER LIMIT OF NORMAL", "1.0", "DERIVED", "CLINICAL STUDY SPONSOR"], ["CDISCPILOT01", "LB", "01-703-1042", "LBSEQ", "227", "LBTMSHI", "LAB RESULT/UPPER LIMIT OF NORMAL", "0.6", "DERIVED", "CLINICAL STUDY SPONSOR"], ["CDISCPILOT01", "LB", "01-703-1042", "LBSEQ", "232", "LBTMSHI", "LAB RESULT/UPPER LIMIT OF NORMAL", "1.0", "DERIVED", "CLINICAL STUDY SPONSOR"], ["CDISCPILOT01", "LB", "01-703-1042", "LBSEQ", "322", "ENDPOINT", "ENDPOINT VALUE FLAG", "Y", "DERIVED", "CLINICAL STUDY SPONSOR"], ["CDISCPILOT01", "LB", "01-703-1042", "LBSEQ", "322", "LBTMSHI", "LAB RESULT/UPPER LIMIT OF NORMAL", "0.6", "DERIVED", "CLINICAL STUDY SPONSOR"], ["CDISCPILOT01", "LB", "01-703-1042", "LBSEQ", "327", "ENDPOINT", "ENDPOINT VALUE FLAG", "Y", "DERIVED", "CLINICAL STUDY SPONSOR"], ["CDISCPILOT01", "LB", "01-703-1042", "LBSEQ", "327", "LBTMSHI", "LAB RESULT/UPPER LIMIT OF NORMAL", "1.0", "DERIVED", "CLINICAL STUDY SPONSOR"], ["CDISCPILOT01", "LB", "01-703-1076", "LBSEQ", "27", "LBTMSHI", "LAB RESULT/UPPER LIMIT OF NORMAL", "0.6", "DERIVED", "CLINICAL STUDY SPONSOR"], ["CDISCPILOT01", "LB", "01-703-1076", "LBSEQ", "32", "LBTMSHI", "LAB RESULT/UPPER LIMIT OF NORMAL", "1.0", "DERIVED", "CLINICAL STUDY SPONSOR"], ["CDISCPILOT01", "LB", "01-703-1076", "LBSEQ", "33", "LBTMSHI", "LAB RESULT/UPPER LIMIT OF NORMAL", "0.7", "DERIVED", "CLINICAL STUDY SPONSOR"], ["CDISCPILOT01", "LB", "01-703-1076", "LBSEQ", "36", "LBTMSHI", "LAB RESULT/UPPER LIMIT OF NORMAL", "0.7", "DERIVED", "CLINICAL STUDY SPONSOR"], ["CDISCPILOT01", "LB", "01-703-1076", "LBSEQ", "64", "LBTMSHI", "LAB RESULT/UPPER LIMIT OF NORMAL", "0.8", "DERIVED", "CLINICAL STUDY SPONSOR"], ["CDISCPILOT01", "LB", "01-703-1076", "LBSEQ", "69", "LBTMSHI", "LAB RESULT/UPPER LIMIT OF NORMAL", "1.0", "DERIVED", "CLINICAL STUDY SPONSOR"], ["CDISCPILOT01", "LB", "01-703-1076", "LBSEQ", "189", "ENDPOINT", "ENDPOINT VALUE FLAG", "Y", "DERIVED", "CLINICAL STUDY SPONSOR"], ["CDISCPILOT01", "LB", "01-703-1076", "LBSEQ", "189", "LBTMSHI", "LAB RESULT/UPPER LIMIT OF NORMAL", "0.6", "DERIVED", "CLINICAL STUDY SPONSOR"], ["CDISCPILOT01", "LB", "01-703-1076", "LBSEQ", "194", "ENDPOINT", "ENDPOINT VALUE FLAG", "Y", "DERIVED", "CLINICAL STUDY SPONSOR"], ["CDISCPILOT01", "LB", "01-703-1076", "LBSEQ", "194", "LBTMSHI", "LAB RESULT/UPPER LIMIT OF NORMAL", "1.0", "DERIVED", "CLINICAL STUDY SPONSOR"], ["CDISCPILOT01", "LB", "01-703-1086", "LBSEQ", "18", "LBTMSHI", "LAB RESULT/UPPER LIMIT OF NORMAL", "0.8", "DERIVED", "CLINICAL STUDY SPONSOR"], ["CDISCPILOT01", "LB", "01-703-1086", "LBSEQ", "21", "LBTMSHI", "LAB RESULT/UPPER LIMIT OF NORMAL", "1.0", "DERIVED", "CLINICAL STUDY SPONSOR"], ["CDISCPILOT01", "LB", "01-703-1086", "LBSEQ", "22", "LBTMSHI", "LAB RESULT/UPPER LIMIT OF NORMAL", "0.2", "DERIVED", "CLINICAL STUDY SPONSOR"], ["CDISCPILOT01", "LB", "01-703-1086", "LBSEQ", "25", "LBTMSHI", "LAB RESULT/UPPER LIMIT OF NORMAL", "0.6", "DERIVED", "CLINICAL STUDY SPONSOR"], ["CDISCPILOT01", "LB", "01-703-1086", "LBSEQ", "64", "LBTMSHI", "LAB RESULT/UPPER LIMIT OF NORMAL", "0.9", "DERIVED", "CLINICAL STUDY SPONSOR"], ["CDISCPILOT01", "LB", "01-703-1086", "LBSEQ", "69", "LBTMSHI", "LAB RESULT/UPPER LIMIT OF NORMAL", "1.0", "DERIVED", "CLINICAL STUDY SPONSOR"], ["CDISCPILOT01", "LB", "01-703-1086", "LBSEQ", "189", "LBTMSHI", "LAB RESULT/UPPER LIMIT OF NORMAL", "0.8", "DERIVED", "CLINICAL STUDY SPONSOR"], ["CDISCPILOT01", "LB", "01-703-1086", "LBSEQ", "194", "LBTMSHI", "LAB RESULT/UPPER LIMIT OF NORMAL", "1.0", "DERIVED", "CLINICAL STUDY SPONSOR"], ["CDISCPILOT01", "LB", "01-703-1086", "LBSEQ", "224", "ENDPOINT", "ENDPOINT VALUE FLAG", "Y", "DERIVED", "CLINICAL STUDY SPONSOR"], ["CDISCPILOT01", "LB", "01-703-1086", "LBSEQ", "224", "LBTMSHI", "LAB RESULT/UPPER LIMIT OF NORMAL", "0.9", "DERIVED", "CLINICAL STUDY SPONSOR"], ["CDISCPILOT01", "LB", "01-703-1086", "LBSEQ", "229", "ENDPOINT", "ENDPOINT VALUE FLAG", "Y", "DERIVED", "CLINICAL STUDY SPONSOR"], ["CDISCPILOT01", "LB", "01-703-1086", "LBSEQ", "229", "LBTMSHI", "LAB RESULT/UPPER LIMIT OF NORMAL", "1.0", "DERIVED", "CLINICAL STUDY SPONSOR"], ["CDISCPILOT01", "LB", "01-703-1096", "LBSEQ", "27", "LBTMSHI", "LAB RESULT/UPPER LIMIT OF NORMAL", "0.6", "DERIVED", "CLINICAL STUDY SPONSOR"], ["CDISCPILOT01", "LB", "01-703-1096", "LBSEQ", "32", "LBTMSHI", "LAB RESULT/UPPER LIMIT OF NORMAL", "1.0", "DERIVED", "CLINICAL STUDY SPONSOR"], ["CDISCPILOT01", "LB", "01-703-1096", "LBSEQ", "33", "LBTMSHI", "LAB RESULT/UPPER LIMIT OF NORMAL", "0.2", "DERIVED", "CLINICAL STUDY SPONSOR"], ["CDISCPILOT01", "LB", "01-703-1096", "LBSEQ", "49", "LBTMSHI", "LAB RESULT/UPPER LIMIT OF NORMAL", "0.2", "DERIVED", "CLINICAL STUDY SPONSOR"], ["CDISCPILOT01", "LB", "01-703-1096", "LBSEQ", "76", "LBTMSHI", "LAB RESULT/UPPER LIMIT OF NORMAL", "0.6", "DERIVED", "CLINICAL STUDY SPONSOR"], ["CDISCPILOT01", "LB", "01-703-1096", "LBSEQ", "81", "LBTMSHI", "LAB RESULT/UPPER LIMIT OF NORMAL", "1.0", "DERIVED", "CLINICAL STUDY SPONSOR"], ["CDISCPILOT01", "LB", "01-703-1096", "LBSEQ", "82", "LBTMSHI", "LAB RESULT/UPPER LIMIT OF NORMAL", "0.2", "DERIVED", "CLINICAL STUDY SPONSOR"], ["CDISCPILOT01", "LB", "01-703-1096", "LBSEQ", "85", "LBTMSHI", "LAB RESULT/UPPER LIMIT OF NORMAL", "0.3", "DERIVED", "CLINICAL STUDY SPONSOR"], ["CDISCPILOT01", "LB", "01-703-1100", "LBSEQ", "18", "LBTMSHI", "LAB RESULT/UPPER LIMIT OF NORMAL", "0.6", "DERIVED", "CLINICAL STUDY SPONSOR"], ["CDISCPILOT01", "LB", "01-703-1100", "LBSEQ", "21", "LBTMSHI", "LAB RESULT/UPPER LIMIT OF NORMAL", "1.0", "DERIVED", "CLINICAL STUDY SPONSOR"], ["CDISCPILOT01", "LB", "01-703-1100", "LBSEQ", "22", "LBTMSHI", "LAB RESULT/UPPER LIMIT OF NORMAL", "3.6", "DERIVED", "CLINICAL STUDY SPONSOR"], ["CDISCPILOT01", "LB", "01-703-1100", "LBSEQ", "25", "LBTMSHI", "LAB RESULT/UPPER LIMIT OF NORMAL", "0.2", "DERIVED", "CLINICAL STUDY SPONSOR"], ["CDISCPILOT01", "LB", "01-703-1100", "LBSEQ", "37", "LBTMSHI", "LAB RESULT/UPPER LIMIT OF NORMAL", "3.5", "DERIVED", "CLINICAL STUDY SPONSOR"], ["CDISCPILOT01", "LB", "01-703-1100", "LBSEQ", "65", "LBTMSHI", "LAB RESULT/UPPER LIMIT OF NORMAL", "0.6", "DERIVED", "CLINICAL STUDY SPONSOR"], ["CDISCPILOT01", "LB", "01-703-1100", "LBSEQ", "70", "LBTMSHI", "LAB RESULT/UPPER LIMIT OF NORMAL", "1.0", "DERIVED", "CLINICAL STUDY SPONSOR"], ["CDISCPILOT01", "LB", "01-703-1100", "LBSEQ", "71", "LBTMSHI", "LAB RESULT/UPPER LIMIT OF NORMAL", "0.6", "DERIVED", "CLINICAL STUDY SPONSOR"], ["CDISCPILOT01", "LB", "01-703-1100", "LBSEQ", "74", "LBTMSHI", "LAB RESULT/UPPER LIMIT OF NORMAL", "0.5", "DERIVED", "CLINICAL STUDY SPONSOR"], ["CDISCPILOT01", "LB", "01-703-1100", "LBSEQ", "102", "LBTMSHI", "LAB RESULT/UPPER LIMIT OF NORMAL", "0.6", "DERIVED", "CLINICAL STUDY SPONSOR"], ["CDISCPILOT01", "LB", "01-703-1100", "LBSEQ", "107", "LBTMSHI", "LAB RESULT/UPPER LIMIT OF NORMAL", "1.0", "DERIVED", "CLINICAL STUDY SPONSOR"], ["CDISCPILOT01", "LB", "01-703-1100", "LBSEQ", "227", "LBTMSHI", "LAB RESULT/UPPER LIMIT OF NORMAL", "0.6", "DERIVED", "CLINICAL STUDY SPONSOR"], ["CDISCPILOT01", "LB", "01-703-1100", "LBSEQ", "232", "LBTMSHI", "LAB RESULT/UPPER LIMIT OF NORMAL", "1.0", "DERIVED", "CLINICAL STUDY SPONSOR"], ["CDISCPILOT01", "LB", "01-703-1100", "LBSEQ", "322", "ENDPOINT", "ENDPOINT VALUE FLAG", "Y", "DERIVED", "CLINICAL STUDY SPONSOR"], ["CDISCPILOT01", "LB", "01-703-1100", "LBSEQ", "322", "LBTMSHI", "LAB RESULT/UPPER LIMIT OF NORMAL", "0.6", "DERIVED", "CLINICAL STUDY SPONSOR"], ["CDISCPILOT01", "LB", "01-703-1100", "LBSEQ", "327", "ENDPOINT", "ENDPOINT VALUE FLAG", "Y", "DERIVED", "CLINICAL STUDY SPONSOR"], ["CDISCPILOT01", "LB", "01-703-1100", "LBSEQ", "327", "LBTMSHI", "LAB RESULT/UPPER LIMIT OF NORMAL", "1.0", "DERIVED", "CLINICAL STUDY SPONSOR"], ["CDISCPILOT01", "LB", "01-703-1119", "LBSEQ", "1", "LBTMSHI", "LAB RESULT/UPPER LIMIT OF NORMAL", "0.9", "DERIVED", "CLINICAL STUDY SPONSOR"], ["CDISCPILOT01", "LB", "01-703-1119", "LBSEQ", "2", "LBTMSHI", "LAB RESULT/UPPER LIMIT OF NORMAL", "1.1", "DERIVED", "CLINICAL STUDY SPONSOR"], ["CDISCPILOT01", "LB", "01-703-1119", "LBSEQ", "29", "LBTMSHI", "LAB RESULT/UPPER LIMIT OF NORMAL", "0.6", "DERIVED", "CLINICAL STUDY SPONSOR"], ["CDISCPILOT01", "LB", "01-703-1119", "LBSEQ", "34", "LBTMSHI", "LAB RESULT/UPPER LIMIT OF NORMAL", "1.0", "DERIVED", "CLINICAL STUDY SPONSOR"], ["CDISCPILOT01", "LB", "01-703-1119", "LBSEQ", "35", "LBTMSHI", "LAB RESULT/UPPER LIMIT OF NORMAL", "1.1", "DERIVED", "CLINICAL STUDY SPONSOR"], ["CDISCPILOT01", "LB", "01-703-1119", "LBSEQ", "65", "LBTMSHI", "LAB RESULT/UPPER LIMIT OF NORMAL", "0.6", "DERIVED", "CLINICAL STUDY SPONSOR"], ["CDISCPILOT01", "LB", "01-703-1119", "LBSEQ", "70", "LBTMSHI", "LAB RESULT/UPPER LIMIT OF NORMAL", "1.0", "DERIVED", "CLINICAL STUDY SPONSOR"], ["CDISCPILOT01", "LB", "01-703-1119", "LBSEQ", "190", "LBTMSHI", "LAB RESULT/UPPER LIMIT OF NORMAL", "0.6", "DERIVED", "CLINICAL STUDY SPONSOR"], ["CDISCPILOT01", "LB", "01-703-1119", "LBSEQ", "195", "LBTMSHI", "LAB RESULT/UPPER LIMIT OF NORMAL", "1.0", "DERIVED", "CLINICAL STUDY SPONSOR"], ["CDISCPILOT01", "LB", "01-703-1119", "LBSEQ", "225", "ENDPOINT", "ENDPOINT VALUE FLAG", "Y", "DERIVED", "CLINICAL STUDY SPONSOR"], ["CDISCPILOT01", "LB", "01-703-1119", "LBSEQ", "225", "LBTMSHI", "LAB RESULT/UPPER LIMIT OF NORMAL", "0.6", "DERIVED", "CLINICAL STUDY SPONSOR"], ["CDISCPILOT01", "LB", "01-703-1119", "LBSEQ", "230", "ENDPOINT", "ENDPOINT VALUE FLAG", "Y", "DERIVED", "CLINICAL STUDY SPONSOR"], ["CDISCPILOT01", "LB", "01-703-1119", "LBSEQ", "230", "LBTMSHI", "LAB RESULT/UPPER LIMIT OF NORMAL", "1.0", "DERIVED", "CLINICAL STUDY SPONSOR"], ["CDISCPILOT01", "LB", "01-703-1175", "LBSEQ", "27", "LBTMSHI", "LAB RESULT/UPPER LIMIT OF NORMAL", "0.8", "DERIVED", "CLINICAL STUDY SPONSOR"], ["CDISCPILOT01", "LB", "01-703-1175", "LBSEQ", "32", "LBTMSHI", "LAB RESULT/UPPER LIMIT OF NORMAL", "1.0", "DERIVED", "CLINICAL STUDY SPONSOR"], ["CDISCPILOT01", "LB", "01-703-1175", "LBSEQ", "33", "LBTMSHI", "LAB RESULT/UPPER LIMIT OF NORMAL", "0.2", "DERIVED", "CLINICAL STUDY SPONSOR"], ["CDISCPILOT01", "LB", "01-703-1175", "LBSEQ", "36", "LBTMSHI", "LAB RESULT/UPPER LIMIT OF NORMAL", "0.4", "DERIVED", "CLINICAL STUDY SPONSOR"], ["CDISCPILOT01", "LB", "01-703-1182", "LBSEQ", "27", "LBTMSHI", "LAB RESULT/UPPER LIMIT OF NORMAL", "0.6", "DERIVED", "CLINICAL STUDY SPONSOR"], ["CDISCPILOT01", "LB", "01-703-1182", "LBSEQ", "32", "LBTMSHI", "LAB RESULT/UPPER LIMIT OF NORMAL", "1.0", "DERIVED", "CLINICAL STUDY SPONSOR"], ["CDISCPILOT01", "LB", "01-703-1182", "LBSEQ", "33", "LBTMSHI", "LAB RESULT/UPPER LIMIT OF NORMAL", "0.5", "DERIVED", "CLINICAL STUDY SPONSOR"], ["CDISCPILOT01", "LB", "01-703-1182", "LBSEQ", "36", "LBTMSHI", "LAB RESULT/UPPER LIMIT OF NORMAL", "0.5", "DERIVED", "CLINICAL STUDY SPONSOR"], ["CDISCPILOT01", "LB", "01-703-1182", "LBSEQ", "64", "LBTMSHI", "LAB RESULT/UPPER LIMIT OF NORMAL", "0.6", "DERIVED", "CLINICAL STUDY SPONSOR"], ["CDISCPILOT01", "LB", "01-703-1182", "LBSEQ", "69", "LBTMSHI", "LAB RESULT/UPPER LIMIT OF NORMAL", "1.0", "DERIVED", "CLINICAL STUDY SPONSOR"], ["CDISCPILOT01", "LB", "01-703-1182", "LBSEQ", "159", "ENDPOINT", "ENDPOINT VALUE FLAG", "Y", "DERIVED", "CLINICAL STUDY SPONSOR"], ["CDISCPILOT01", "LB", "01-703-1182", "LBSEQ", "159", "LBTMSHI", "LAB RESULT/UPPER LIMIT OF NORMAL", "0.6", "DERIVED", "CLINICAL STUDY SPONSOR"], ["CDISCPILOT01", "LB", "01-703-1182", "LBSEQ", "164", "ENDPOINT", "ENDPOINT VALUE FLAG", "Y", "DERIVED", "CLINICAL STUDY SPONSOR"], ["CDISCPILOT01", "LB", "01-703-1182", "LBSEQ", "164", "LBTMSHI", "LAB RESULT/UPPER LIMIT OF NORMAL", "1.0", "DERIVED", "CLINICAL STUDY SPONSOR"], ["CDISCPILOT01", "LB", "01-703-1197", "LBSEQ", "27", "LBTMSHI", "LAB RESULT/UPPER LIMIT OF NORMAL", "0.6", "DERIVED", "CLINICAL STUDY SPONSOR"], ["CDISCPILOT01", "LB", "01-703-1197", "LBSEQ", "32", "LBTMSHI", "LAB RESULT/UPPER LIMIT OF NORMAL", "1.0", "DERIVED", "CLINICAL STUDY SPONSOR"], ["CDISCPILOT01", "LB", "01-703-1197", "LBSEQ", "33", "LBTMSHI", "LAB RESULT/UPPER LIMIT OF NORMAL", "0.1", "DERIVED", "CLINICAL STUDY SPONSOR"], ["CDISCPILOT01", "LB", "01-703-1197", "LBSEQ", "36", "LBTMSHI", "LAB RESULT/UPPER LIMIT OF NORMAL", "0.3", "DERIVED", "CLINICAL STUDY SPONSOR"], ["CDISCPILOT01", "LB", "01-703-1197", "LBSEQ", "64", "LBTMSHI", "LAB RESULT/UPPER LIMIT OF NORMAL", "0.6", "DERIVED", "CLINICAL STUDY SPONSOR"], ["CDISCPILOT01", "LB", "01-703-1197", "LBSEQ", "69", "LBTMSHI", "LAB RESULT/UPPER LIMIT OF NORMAL", "1.0", "DERIVED", "CLINICAL STUDY SPONSOR"], ["CDISCPILOT01", "LB", "01-703-1197", "LBSEQ", "70", "LBTMSHI", "LAB RESULT/UPPER LIMIT OF NORMAL", "0.1", "DERIVED", "CLINICAL STUDY SPONSOR"], ["CDISCPILOT01", "LB", "01-703-1197", "LBSEQ", "73", "LBTMSHI", "LAB RESULT/UPPER LIMIT OF NORMAL", "0.3", "DERIVED", "CLINICAL STUDY SPONSOR"], ["CDISCPILOT01", "LB", "01-703-1210", "LBSEQ", "27", "LBTMSHI", "LAB RESULT/UPPER LIMIT OF NORMAL", "0.6", "DERIVED", "CLINICAL STUDY SPONSOR"], ["CDISCPILOT01", "LB", "01-703-1210", "LBSEQ", "32", "LBTMSHI", "LAB RESULT/UPPER LIMIT OF NORMAL", "1.0", "DERIVED", "CLINICAL STUDY SPONSOR"], ["CDISCPILOT01", "LB", "01-703-1210", "LBSEQ", "33", "LBTMSHI", "LAB RESULT/UPPER LIMIT OF NORMAL", "0.8", "DERIVED", "CLINICAL STUDY SPONSOR"], ["CDISCPILOT01", "LB", "01-703-1210", "LBSEQ", "36", "LBTMSHI", "LAB RESULT/UPPER LIMIT OF NORMAL", "0.4", "DERIVED", "CLINICAL STUDY SPONSOR"], ["CDISCPILOT01", "LB", "01-703-1210", "LBSEQ", "64", "LBTMSHI", "LAB RESULT/UPPER LIMIT OF NORMAL", "0.6", "DERIVED", "CLINICAL STUDY SPONSOR"], ["CDISCPILOT01", "LB", "01-703-1210", "LBSEQ", "69", "LBTMSHI", "LAB RESULT/UPPER LIMIT OF NORMAL", "1.0", "DERIVED", "CLINICAL STUDY SPONSOR"], ["CDISCPILOT01", "LB", "01-703-1210", "LBSEQ", "171", "LBTMSHI", "LAB RESULT/UPPER LIMIT OF NORMAL", "0.6", "DERIVED", "CLINICAL STUDY SPONSOR"], ["CDISCPILOT01", "LB", "01-703-1210", "LBSEQ", "176", "LBTMSHI", "LAB RESULT/UPPER LIMIT OF NORMAL", "1.0", "DERIVED", "CLINICAL STUDY SPONSOR"], ["CDISCPILOT01", "LB", "01-703-1210", "LBSEQ", "266", "ENDPOINT", "ENDPOINT VALUE FLAG", "Y", "DERIVED", "CLINICAL STUDY SPONSOR"], ["CDISCPILOT01", "LB", "01-703-1210", "LBSEQ", "266", "LBTMSHI", "LAB RESULT/UPPER LIMIT OF NORMAL", "0.6", "DERIVED", "CLINICAL STUDY SPONSOR"], ["CDISCPILOT01", "LB", "01-703-1210", "LBSEQ", "271", "ENDPOINT", "ENDPOINT VALUE FLAG", "Y", "DERIVED", "CLINICAL STUDY SPONSOR"], ["CDISCPILOT01", "LB", "01-703-1210", "LBSEQ", "271", "LBTMSHI", "LAB RESULT/UPPER LIMIT OF NORMAL", "1.0", "DERIVED", "CLINICAL STUDY SPONSOR"], ["CDISCPILOT01", "LB", "01-703-1258", "LBSEQ", "27", "LBTMSHI", "LAB RESULT/UPPER LIMIT OF NORMAL", "0.6", "DERIVED", "CLINICAL STUDY SPONSOR"], ["CDISCPILOT01", "LB", "01-703-1258", "LBSEQ", "32", "LBTMSHI", "LAB RESULT/UPPER LIMIT OF NORMAL", "1.0", "DERIVED", "CLINICAL STUDY SPONSOR"], ["CDISCPILOT01", "LB", "01-703-1258", "LBSEQ", "33", "LBTMSHI", "LAB RESULT/UPPER LIMIT OF NORMAL", "0.4", "DERIVED", "CLINICAL STUDY SPONSOR"], ["CDISCPILOT01", "LB", "01-703-1258", "LBSEQ", "36", "LBTMSHI", "LAB RESULT/UPPER LIMIT OF NORMAL", "0.5", "DERIVED", "CLINICAL STUDY SPONSOR"], ["CDISCPILOT01", "LB", "01-703-1258", "LBSEQ", "184", "LBTMSHI", "LAB RESULT/UPPER LIMIT OF NORMAL", "0.9", "DERIVED", "CLINICAL STUDY SPONSOR"], ["CDISCPILOT01", "LB", "01-703-1258", "LBSEQ", "189", "LBTMSHI", "LAB RESULT/UPPER LIMIT OF NORMAL", "1.0", "DERIVED", "CLINICAL STUDY SPONSOR"], ["CDISCPILOT01", "LB", "01-703-1258", "LBSEQ", "279", "ENDPOINT", "ENDPOINT VALUE FLAG", "Y", "DERIVED", "CLINICAL STUDY SPONSOR"], ["CDISCPILOT01", "LB", "01-703-1258", "LBSEQ", "279", "LBTMSHI", "LAB RESULT/UPPER LIMIT OF NORMAL", "0.9", "DERIVED", "CLINICAL STUDY SPONSOR"], ["CDISCPILOT01", "LB", "01-703-1258", "LBSEQ", "284", "ENDPOINT", "ENDPOINT VALUE FLAG", "Y", "DERIVED", "CLINICAL STUDY SPONSOR"], ["CDISCPILOT01", "LB", "01-703-1258", "LBSEQ", "284", "LBTMSHI", "LAB RESULT/UPPER LIMIT OF NORMAL", "1.0", "DERIVED", "CLINICAL STUDY SPONSOR"], ["CDISCPILOT01", "LB", "01-703-1279", "LBSEQ", "27", "LBTMSHI", "LAB RESULT/UPPER LIMIT OF NORMAL", "0.6", "DERIVED", "CLINICAL STUDY SPONSOR"], ["CDISCPILOT01", "LB", "01-703-1279", "LBSEQ", "32", "LBTMSHI", "LAB RESULT/UPPER LIMIT OF NORMAL", "1.0", "DERIVED", "CLINICAL STUDY SPONSOR"], ["CDISCPILOT01", "LB", "01-703-1279", "LBSEQ", "33", "LBTMSHI", "LAB RESULT/UPPER LIMIT OF NORMAL", "0.1", "DERIVED", "CLINICAL STUDY SPONSOR"], ["CDISCPILOT01", "LB", "01-703-1279", "LBSEQ", "36", "LBTMSHI", "LAB RESULT/UPPER LIMIT OF NORMAL", "0.6", "DERIVED", "CLINICAL STUDY SPONSOR"], ["CDISCPILOT01", "LB", "01-703-1295", "LBSEQ", "27", "LBTMSHI", "LAB RESULT/UPPER LIMIT OF NORMAL", "0.6", "DERIVED", "CLINICAL STUDY SPONSOR"], ["CDISCPILOT01", "LB", "01-703-1295", "LBSEQ", "32", "LBTMSHI", "LAB RESULT/UPPER LIMIT OF NORMAL", "1.0", "DERIVED", "CLINICAL STUDY SPONSOR"], ["CDISCPILOT01", "LB", "01-703-1295", "LBSEQ", "33", "LBTMSHI", "LAB RESULT/UPPER LIMIT OF NORMAL", "0.3", "DERIVED", "CLINICAL STUDY SPONSOR"], ["CDISCPILOT01", "LB", "01-703-1295", "LBSEQ", "36", "LBTMSHI", "LAB RESULT/UPPER LIMIT OF NORMAL", "0.8", "DERIVED", "CLINICAL STUDY SPONSOR"], ["CDISCPILOT01", "LB", "01-703-1295", "LBSEQ", "64", "LBTMSHI", "LAB RESULT/UPPER LIMIT OF NORMAL", "0.6", "DERIVED", "CLINICAL STUDY SPONSOR"], ["CDISCPILOT01", "LB", "01-703-1295", "LBSEQ", "92", "LBTMSHI", "LAB RESULT/UPPER LIMIT OF NORMAL", "0.8", "DERIVED", "CLINICAL STUDY SPONSOR"], ["CDISCPILOT01", "LB", "01-703-1295", "LBSEQ", "97", "LBTMSHI", "LAB RESULT/UPPER LIMIT OF NORMAL", "1.0", "DERIVED", "CLINICAL STUDY SPONSOR"], ["CDISCPILOT01", "LB", "01-703-1295", "LBSEQ", "217", "LBTMSHI", "LAB RESULT/UPPER LIMIT OF NORMAL", "0.6", "DERIVED", "CLINICAL STUDY SPONSOR"], ["CDISCPILOT01", "LB", "01-703-1295", "LBSEQ", "222", "LBTMSHI", "LAB RESULT/UPPER LIMIT OF NORMAL", "1.0", "DERIVED", "CLINICAL STUDY SPONSOR"], ["CDISCPILOT01", "LB", "01-703-1295", "LBSEQ", "282", "ENDPOINT", "ENDPOINT VALUE FLAG", "Y", "DERIVED", "CLINICAL STUDY SPONSOR"], ["CDISCPILOT01", "LB", "01-703-1295", "LBSEQ", "282", "LBTMSHI", "LAB RESULT/UPPER LIMIT OF NORMAL", "0.6", "DERIVED", "CLINICAL STUDY SPONSOR"], ["CDISCPILOT01", "LB", "01-703-1295", "LBSEQ", "287", "ENDPOINT", "ENDPOINT VALUE FLAG", "Y", "DERIVED", "CLINICAL STUDY SPONSOR"], ["CDISCPILOT01", "LB", "01-703-1295", "LBSEQ", "287", "LBTMSHI", "LAB RESULT/UPPER LIMIT OF NORMAL", "1.0", "DERIVED", "CLINICAL STUDY SPONSOR"], ["CDISCPILOT01", "LB", "01-703-1299", "LBSEQ", "27", "LBTMSHI", "LAB RESULT/UPPER LIMIT OF NORMAL", "0.8", "DERIVED", "CLINICAL STUDY SPONSOR"], ["CDISCPILOT01", "LB", "01-703-1299", "LBSEQ", "32", "LBTMSHI", "LAB RESULT/UPPER LIMIT OF NORMAL", "1.0", "DERIVED", "CLINICAL STUDY SPONSOR"], ["CDISCPILOT01", "LB", "01-703-1299", "LBSEQ", "33", "LBTMSHI", "LAB RESULT/UPPER LIMIT OF NORMAL", "0.3", "DERIVED", "CLINICAL STUDY SPONSOR"], ["CDISCPILOT01", "LB", "01-703-1299", "LBSEQ", "36", "LBTMSHI", "LAB RESULT/UPPER LIMIT OF NORMAL", "0.3", "DERIVED", "CLINICAL STUDY SPONSOR"], ["CDISCPILOT01", "LB", "01-703-1299", "LBSEQ", "64", "LBTMSHI", "LAB RESULT/UPPER LIMIT OF NORMAL", "0.6", "DERIVED", "CLINICAL STUDY SPONSOR"], ["CDISCPILOT01", "LB", "01-703-1299", "LBSEQ", "69", "LBTMSHI", "LAB RESULT/UPPER LIMIT OF NORMAL", "1.0", "DERIVED", "CLINICAL STUDY SPONSOR"], ["CDISCPILOT01", "LB", "01-703-1299", "LBSEQ", "189", "LBTMSHI", "LAB RESULT/UPPER LIMIT OF NORMAL", "0.6", "DERIVED", "CLINICAL STUDY SPONSOR"], ["CDISCPILOT01", "LB", "01-703-1299", "LBSEQ", "194", "LBTMSHI", "LAB RESULT/UPPER LIMIT OF NORMAL", "1.0", "DERIVED", "CLINICAL STUDY SPONSOR"], ["CDISCPILOT01", "LB", "01-703-1299", "LBSEQ", "284", "ENDPOINT", "ENDPOINT VALUE FLAG", "Y", "DERIVED", "CLINICAL STUDY SPONSOR"], ["CDISCPILOT01", "LB", "01-703-1299", "LBSEQ", "284", "LBTMSHI", "LAB RESULT/UPPER LIMIT OF NORMAL", "0.6", "DERIVED", "CLINICAL STUDY SPONSOR"], ["CDISCPILOT01", "LB", "01-703-1299", "LBSEQ", "289", "ENDPOINT", "ENDPOINT VALUE FLAG", "Y", "DERIVED", "CLINICAL STUDY SPONSOR"], ["CDISCPILOT01", "LB", "01-703-1299", "LBSEQ", "289", "LBTMSHI", "LAB RESULT/UPPER LIMIT OF NORMAL", "1.0", "DERIVED", "CLINICAL STUDY SPONSOR"], ["CDISCPILOT01", "LB", "01-703-1335", "LBSEQ", "15", "LBTMSHI", "LAB RESULT/UPPER LIMIT OF NORMAL", "0.6", "DERIVED", "CLINICAL STUDY SPONSOR"], ["CDISCPILOT01", "LB", "01-703-1335", "LBSEQ", "18", "LBTMSHI", "LAB RESULT/UPPER LIMIT OF NORMAL", "1.0", "DERIVED", "CLINICAL STUDY SPONSOR"], ["CDISCPILOT01", "LB", "01-703-1335", "LBSEQ", "47", "LBTMSHI", "LAB RESULT/UPPER LIMIT OF NORMAL", "0.6", "DERIVED", "CLINICAL STUDY SPONSOR"], ["CDISCPILOT01", "LB", "01-703-1335", "LBSEQ", "52", "LBTMSHI", "LAB RESULT/UPPER LIMIT OF NORMAL", "1.0", "DERIVED", "CLINICAL STUDY SPONSOR"], ["CDISCPILOT01", "LB", "01-703-1335", "LBSEQ", "53", "LBTMSHI", "LAB RESULT/UPPER LIMIT OF NORMAL", "0.2", "DERIVED", "CLINICAL STUDY SPONSOR"], ["CDISCPILOT01", "LB", "01-703-1335", "LBSEQ", "56", "LBTMSHI", "LAB RESULT/UPPER LIMIT OF NORMAL", "0.3", "DERIVED", "CLINICAL STUDY SPONSOR"], ["CDISCPILOT01", "LB", "01-703-1335", "LBSEQ", "114", "LBTMSHI", "LAB RESULT/UPPER LIMIT OF NORMAL", "0.6", "DERIVED", "CLINICAL STUDY SPONSOR"], ["CDISCPILOT01", "LB", "01-703-1335", "LBSEQ", "119", "LBTMSHI", "LAB RESULT/UPPER LIMIT OF NORMAL", "1.0", "DERIVED", "CLINICAL STUDY SPONSOR"], ["CDISCPILOT01", "LB", "01-703-1335", "LBSEQ", "149", "ENDPOINT", "ENDPOINT VALUE FLAG", "Y", "DERIVED", "CLINICAL STUDY SPONSOR"], ["CDISCPILOT01", "LB", "01-703-1335", "LBSEQ", "149", "LBTMSHI", "LAB RESULT/UPPER LIMIT OF NORMAL", "0.6", "DERIVED", "CLINICAL STUDY SPONSOR"], ["CDISCPILOT01", "LB", "01-703-1335", "LBSEQ", "154", "ENDPOINT", "ENDPOINT VALUE FLAG", "Y", "DERIVED", "CLINICAL STUDY SPONSOR"], ["CDISCPILOT01", "LB", "01-703-1335", "LBSEQ", "154", "LBTMSHI", "LAB RESULT/UPPER LIMIT OF NORMAL", "1.0", "DERIVED", "CLINICAL STUDY SPONSOR"], ["CDISCPILOT01", "LB", "01-703-1379", "LBSEQ", "27", "LBTMSHI", "LAB RESULT/UPPER LIMIT OF NORMAL", "0.6", "DERIVED", "CLINICAL STUDY SPONSOR"], ["CDISCPILOT01", "LB", "01-703-1379", "LBSEQ", "32", "LBTMSHI", "LAB RESULT/UPPER LIMIT OF NORMAL", "1.0", "DERIVED", "CLINICAL STUDY SPONSOR"], ["CDISCPILOT01", "LB", "01-703-1379", "LBSEQ", "33", "LBTMSHI", "LAB RESULT/UPPER LIMIT OF NORMAL", "0.1", "DERIVED", "CLINICAL STUDY SPONSOR"], ["CDISCPILOT01", "LB", "01-703-1379", "LBSEQ", "36", "LBTMSHI", "LAB RESULT/UPPER LIMIT OF NORMAL", "0.4", "DERIVED", "CLINICAL STUDY SPONSOR"], ["CDISCPILOT01", "LB", "01-703-1379", "LBSEQ", "184", "LBTMSHI", "LAB RESULT/UPPER LIMIT OF NORMAL", "0.8", "DERIVED", "CLINICAL STUDY SPONSOR"], ["CDISCPILOT01", "LB", "01-703-1379", "LBSEQ", "189", "LBTMSHI", "LAB RESULT/UPPER LIMIT OF NORMAL", "1.0", "DERIVED", "CLINICAL STUDY SPONSOR"], ["CDISCPILOT01", "LB", "01-703-1379", "LBSEQ", "279", "ENDPOINT", "ENDPOINT VALUE FLAG", "Y", "DERIVED", "CLINICAL STUDY SPONSOR"], ["CDISCPILOT01", "LB", "01-703-1379", "LBSEQ", "279", "LBTMSHI", "LAB RESULT/UPPER LIMIT OF NORMAL", "0.6", "DERIVED", "CLINICAL STUDY SPONSOR"], ["CDISCPILOT01", "LB", "01-703-1379", "LBSEQ", "284", "ENDPOINT", "ENDPOINT VALUE FLAG", "Y", "DERIVED", "CLINICAL STUDY SPONSOR"], ["CDISCPILOT01", "LB", "01-703-1379", "LBSEQ", "284", "LBTMSHI", "LAB RESULT/UPPER LIMIT OF NORMAL", "1.0", "DERIVED", "CLINICAL STUDY SPONSOR"], ["CDISCPILOT01", "LB", "01-703-1403", "LBSEQ", "27", "LBTMSHI", "LAB RESULT/UPPER LIMIT OF NORMAL", "0.6", "DERIVED", "CLINICAL STUDY SPONSOR"], ["CDISCPILOT01", "LB", "01-703-1403", "LBSEQ", "32", "LBTMSHI", "LAB RESULT/UPPER LIMIT OF NORMAL", "1.0", "DERIVED", "CLINICAL STUDY SPONSOR"], ["CDISCPILOT01", "LB", "01-703-1403", "LBSEQ", "33", "LBTMSHI", "LAB RESULT/UPPER LIMIT OF NORMAL", "0.3", "DERIVED", "CLINICAL STUDY SPONSOR"], ["CDISCPILOT01", "LB", "01-703-1403", "LBSEQ", "36", "LBTMSHI", "LAB RESULT/UPPER LIMIT OF NORMAL", "0.3", "DERIVED", "CLINICAL STUDY SPONSOR"], ["CDISCPILOT01", "LB", "01-703-1439", "LBSEQ", "27", "LBTMSHI", "LAB RESULT/UPPER LIMIT OF NORMAL", "0.8", "DERIVED", "CLINICAL STUDY SPONSOR"], ["CDISCPILOT01", "LB", "01-703-1439", "LBSEQ", "32", "LBTMSHI", "LAB RESULT/UPPER LIMIT OF NORMAL", "1.0", "DERIVED", "CLINICAL STUDY SPONSOR"], ["CDISCPILOT01", "LB", "01-703-1439", "LBSEQ", "33", "LBTMSHI", "LAB RESULT/UPPER LIMIT OF NORMAL", "0.1", "DERIVED", "CLINICAL STUDY SPONSOR"], ["CDISCPILOT01", "LB", "01-703-1439", "LBSEQ", "36", "LBTMSHI", "LAB RESULT/UPPER LIMIT OF NORMAL", "0.4", "DERIVED", "CLINICAL STUDY SPONSOR"], ["CDISCPILOT01", "LB", "01-703-1439", "LBSEQ", "64", "LBTMSHI", "LAB RESULT/UPPER LIMIT OF NORMAL", "0.8", "DERIVED", "CLINICAL STUDY SPONSOR"], ["CDISCPILOT01", "LB", "01-703-1439", "LBSEQ", "69", "LBTMSHI", "LAB RESULT/UPPER LIMIT OF NORMAL", "1.0", "DERIVED", "CLINICAL STUDY SPONSOR"], ["CDISCPILOT01", "LB", "01-703-1439", "LBSEQ", "189", "LBTMSHI", "LAB RESULT/UPPER LIMIT OF NORMAL", "0.6", "DERIVED", "CLINICAL STUDY SPONSOR"], ["CDISCPILOT01", "LB", "01-703-1439", "LBSEQ", "194", "LBTMSHI", "LAB RESULT/UPPER LIMIT OF NORMAL", "1.0", "DERIVED", "CLINICAL STUDY SPONSOR"], ["CDISCPILOT01", "LB", "01-703-1439", "LBSEQ", "288", "ENDPOINT", "ENDPOINT VALUE FLAG", "Y", "DERIVED", "CLINICAL STUDY SPONSOR"], ["CDISCPILOT01", "LB", "01-703-1439", "LBSEQ", "288", "LBTMSHI", "LAB RESULT/UPPER LIMIT OF NORMAL", "0.6", "DERIVED", "CLINICAL STUDY SPONSOR"], ["CDISCPILOT01", "LB", "01-703-1439", "LBSEQ", "293", "ENDPOINT", "ENDPOINT VALUE FLAG", "Y", "DERIVED", "CLINICAL STUDY SPONSOR"], ["CDISCPILOT01", "LB", "01-703-1439", "LBSEQ", "293", "LBTMSHI", "LAB RESULT/UPPER LIMIT OF NORMAL", "1.0", "DERIVED", "CLINICAL STUDY SPONSOR"], ["CDISCPILOT01", "LB", "01-704-1008", "LBSEQ", "27", "LBTMSHI", "LAB RESULT/UPPER LIMIT OF NORMAL", "0.6", "DERIVED", "CLINICAL STUDY SPONSOR"], ["CDISCPILOT01", "LB", "01-704-1008", "LBSEQ", "32", "LBTMSHI", "LAB RESULT/UPPER LIMIT OF NORMAL", "1.0", "DERIVED", "CLINICAL STUDY SPONSOR"], ["CDISCPILOT01", "LB", "01-704-1008", "LBSEQ", "33", "LBTMSHI", "LAB RESULT/UPPER LIMIT OF NORMAL", "0.0", "DERIVED", "CLINICAL STUDY SPONSOR"], ["CDISCPILOT01", "LB", "01-704-1008", "LBSEQ", "36", "LBTMSHI", "LAB RESULT/UPPER LIMIT OF NORMAL", "0.6", "DERIVED", "CLINICAL STUDY SPONSOR"], ["CDISCPILOT01", "LB", "01-704-1008", "LBSEQ", "64", "LBTMSHI", "LAB RESULT/UPPER LIMIT OF NORMAL", "0.6", "DERIVED", "CLINICAL STUDY SPONSOR"], ["CDISCPILOT01", "LB", "01-704-1008", "LBSEQ", "69", "LBTMSHI", "LAB RESULT/UPPER LIMIT OF NORMAL", "1.0", "DERIVED", "CLINICAL STUDY SPONSOR"], ["CDISCPILOT01", "LB", "01-704-1008", "LBSEQ", "70", "LBTMSHI", "LAB RESULT/UPPER LIMIT OF NORMAL", "0.1", "DERIVED", "CLINICAL STUDY SPONSOR"], ["CDISCPILOT01", "LB", "01-704-1008", "LBSEQ", "73", "LBTMSHI", "LAB RESULT/UPPER LIMIT OF NORMAL", "0.7", "DERIVED", "CLINICAL STUDY SPONSOR"], ["CDISCPILOT01", "LB", "01-704-1008", "LBSEQ", "101", "LBTMSHI", "LAB RESULT/UPPER LIMIT OF NORMAL", "0.9", "DERIVED", "CLINICAL STUDY SPONSOR"], ["CDISCPILOT01", "LB", "01-704-1008", "LBSEQ", "106", "LBTMSHI", "LAB RESULT/UPPER LIMIT OF NORMAL", "1.0", "DERIVED", "CLINICAL STUDY SPONSOR"], ["CDISCPILOT01", "LB", "01-704-1009", "LBSEQ", "24", "LBTMSHI", "LAB RESULT/UPPER LIMIT OF NORMAL", "0.6", "DERIVED", "CLINICAL STUDY SPONSOR"], ["CDISCPILOT01", "LB", "01-704-1009", "LBSEQ", "29", "LBTMSHI", "LAB RESULT/UPPER LIMIT OF NORMAL", "1.0", "DERIVED", "CLINICAL STUDY SPONSOR"], ["CDISCPILOT01", "LB", "01-704-1009", "LBSEQ", "30", "LBTMSHI", "LAB RESULT/UPPER LIMIT OF NORMAL", "0.5", "DERIVED", "CLINICAL STUDY SPONSOR"], ["CDISCPILOT01", "LB", "01-704-1009", "LBSEQ", "33", "LBTMSHI", "LAB RESULT/UPPER LIMIT OF NORMAL", "0.5", "DERIVED", "CLINICAL STUDY SPONSOR"], ["CDISCPILOT01", "LB", "01-704-1009", "LBSEQ", "61", "ENDPOINT", "ENDPOINT VALUE FLAG", "Y", "DERIVED", "CLINICAL STUDY SPONSOR"], ["CDISCPILOT01", "LB", "01-704-1009", "LBSEQ", "61", "LBTMSHI", "LAB RESULT/UPPER LIMIT OF NORMAL", "0.8", "DERIVED", "CLINICAL STUDY SPONSOR"], ["CDISCPILOT01", "LB", "01-704-1009", "LBSEQ", "66", "ENDPOINT", "ENDPOINT VALUE FLAG", "Y", "DERIVED", "CLINICAL STUDY SPONSOR"], ["CDISCPILOT01", "LB", "01-704-1009", "LBSEQ", "66", "LBTMSHI", "LAB RESULT/UPPER LIMIT OF NORMAL", "1.0", "DERIVED", "CLINICAL STUDY SPONSOR"], ["CDISCPILOT01", "LB", "01-704-1010", "LBSEQ", "27", "LBTMSHI", "LAB RESULT/UPPER LIMIT OF NORMAL", "0.6", "DERIVED", "CLINICAL STUDY SPONSOR"], ["CDISCPILOT01", "LB", "01-704-1010", "LBSEQ", "32", "LBTMSHI", "LAB RESULT/UPPER LIMIT OF NORMAL", "1.0", "DERIVED", "CLINICAL STUDY SPONSOR"], ["CDISCPILOT01", "LB", "01-704-1010", "LBSEQ", "33", "LBTMSHI", "LAB RESULT/UPPER LIMIT OF NORMAL", "0.4", "DERIVED", "CLINICAL STUDY SPONSOR"], ["CDISCPILOT01", "LB", "01-704-1010", "LBSEQ", "36", "LBTMSHI", "LAB RESULT/UPPER LIMIT OF NORMAL", "0.7", "DERIVED", "CLINICAL STUDY SPONSOR"], ["CDISCPILOT01", "LB", "01-704-1010", "LBSEQ", "64", "LBTMSHI", "LAB RESULT/UPPER LIMIT OF NORMAL", "0.6", "DERIVED", "CLINICAL STUDY SPONSOR"], ["CDISCPILOT01", "LB", "01-704-1010", "LBSEQ", "69", "LBTMSHI", "LAB RESULT/UPPER LIMIT OF NORMAL", "1.0", "DERIVED", "CLINICAL STUDY SPONSOR"], ["CDISCPILOT01", "LB", "01-704-1010", "LBSEQ", "189", "LBTMSHI", "LAB RESULT/UPPER LIMIT OF NORMAL", "0.6", "DERIVED", "CLINICAL STUDY SPONSOR"], ["CDISCPILOT01", "LB", "01-704-1010", "LBSEQ", "194", "LBTMSHI", "LAB RESULT/UPPER LIMIT OF NORMAL", "1.0", "DERIVED", "CLINICAL STUDY SPONSOR"], ["CDISCPILOT01", "LB", "01-704-1010", "LBSEQ", "254", "ENDPOINT", "ENDPOINT VALUE FLAG", "Y", "DERIVED", "CLINICAL STUDY SPONSOR"], ["CDISCPILOT01", "LB", "01-704-1010", "LBSEQ", "254", "LBTMSHI", "LAB RESULT/UPPER LIMIT OF NORMAL", "0.6", "DERIVED", "CLINICAL STUDY SPONSOR"], ["CDISCPILOT01", "LB", "01-704-1010", "LBSEQ", "259", "ENDPOINT", "ENDPOINT VALUE FLAG", "Y", "DERIVED", "CLINICAL STUDY SPONSOR"], ["CDISCPILOT01", "LB", "01-704-1010", "LBSEQ", "259", "LBTMSHI", "LAB RESULT/UPPER LIMIT OF NORMAL", "1.0", "DERIVED", "CLINICAL STUDY SPONSOR"], ["CDISCPILOT01", "LB", "01-704-1017", "LBSEQ", "27", "LBTMSHI", "LAB RESULT/UPPER LIMIT OF NORMAL", "0.6", "DERIVED", "CLINICAL STUDY SPONSOR"], ["CDISCPILOT01", "LB", "01-704-1017", "LBSEQ", "32", "LBTMSHI", "LAB RESULT/UPPER LIMIT OF NORMAL", "1.0", "DERIVED", "CLINICAL STUDY SPONSOR"], ["CDISCPILOT01", "LB", "01-704-1017", "LBSEQ", "33", "LBTMSHI", "LAB RESULT/UPPER LIMIT OF NORMAL", "0.5", "DERIVED", "CLINICAL STUDY SPONSOR"], ["CDISCPILOT01", "LB", "01-704-1017", "LBSEQ", "36", "LBTMSHI", "LAB RESULT/UPPER LIMIT OF NORMAL", "0.3", "DERIVED", "CLINICAL STUDY SPONSOR"], ["CDISCPILOT01", "LB", "01-704-1017", "LBSEQ", "64", "LBTMSHI", "LAB RESULT/UPPER LIMIT OF NORMAL", "0.6", "DERIVED", "CLINICAL STUDY SPONSOR"], ["CDISCPILOT01", "LB", "01-704-1017", "LBSEQ", "69", "LBTMSHI", "LAB RESULT/UPPER LIMIT OF NORMAL", "1.0", "DERIVED", "CLINICAL STUDY SPONSOR"], ["CDISCPILOT01", "LB", "01-704-1025", "LBSEQ", "27", "LBTMSHI", "LAB RESULT/UPPER LIMIT OF NORMAL", "0.6", "DERIVED", "CLINICAL STUDY SPONSOR"], ["CDISCPILOT01", "LB", "01-704-1025", "LBSEQ", "32", "LBTMSHI", "LAB RESULT/UPPER LIMIT OF NORMAL", "1.0", "DERIVED", "CLINICAL STUDY SPONSOR"], ["CDISCPILOT01", "LB", "01-704-1025", "LBSEQ", "33", "LBTMSHI", "LAB RESULT/UPPER LIMIT OF NORMAL", "0.1", "DERIVED", "CLINICAL STUDY SPONSOR"], ["CDISCPILOT01", "LB", "01-704-1025", "LBSEQ", "36", "LBTMSHI", "LAB RESULT/UPPER LIMIT OF NORMAL", "0.6", "DERIVED", "CLINICAL STUDY SPONSOR"], ["CDISCPILOT01", "LB", "01-704-1025", "LBSEQ", "64", "LBTMSHI", "LAB RESULT/UPPER LIMIT OF NORMAL", "0.6", "DERIVED", "CLINICAL STUDY SPONSOR"], ["CDISCPILOT01", "LB", "01-704-1025", "LBSEQ", "69", "LBTMSHI", "LAB RESULT/UPPER LIMIT OF NORMAL", "1.0", "DERIVED", "CLINICAL STUDY SPONSOR"], ["CDISCPILOT01", "LB", "01-704-1025", "LBSEQ", "129", "LBTMSHI", "LAB RESULT/UPPER LIMIT OF NORMAL", "0.6", "DERIVED", "CLINICAL STUDY SPONSOR"], ["CDISCPILOT01", "LB", "01-704-1025", "LBSEQ", "134", "LBTMSHI", "LAB RESULT/UPPER LIMIT OF NORMAL", "1.0", "DERIVED", "CLINICAL STUDY SPONSOR"], ["CDISCPILOT01", "LB", "01-704-1065", "LBSEQ", "27", "LBTMSHI", "LAB RESULT/UPPER LIMIT OF NORMAL", "0.6", "DERIVED", "CLINICAL STUDY SPONSOR"], ["CDISCPILOT01", "LB", "01-704-1065", "LBSEQ", "32", "LBTMSHI", "LAB RESULT/UPPER LIMIT OF NORMAL", "1.0", "DERIVED", "CLINICAL STUDY SPONSOR"], ["CDISCPILOT01", "LB", "01-704-1065", "LBSEQ", "33", "LBTMSHI", "LAB RESULT/UPPER LIMIT OF NORMAL", "0.2", "DERIVED", "CLINICAL STUDY SPONSOR"], ["CDISCPILOT01", "LB", "01-704-1065", "LBSEQ", "36", "LBTMSHI", "LAB RESULT/UPPER LIMIT OF NORMAL", "0.5", "DERIVED", "CLINICAL STUDY SPONSOR"], ["CDISCPILOT01", "LB", "01-704-1065", "LBSEQ", "64", "LBTMSHI", "LAB RESULT/UPPER LIMIT OF NORMAL", "0.6", "DERIVED", "CLINICAL STUDY SPONSOR"], ["CDISCPILOT01", "LB", "01-704-1065", "LBSEQ", "69", "LBTMSHI", "LAB RESULT/UPPER LIMIT OF NORMAL", "1.0", "DERIVED", "CLINICAL STUDY SPONSOR"], ["CDISCPILOT01", "LB", "01-704-1065", "LBSEQ", "189", "ENDPOINT", "ENDPOINT VALUE FLAG", "Y", "DERIVED", "CLINICAL STUDY SPONSOR"], ["CDISCPILOT01", "LB", "01-704-1065", "LBSEQ", "189", "LBTMSHI", "LAB RESULT/UPPER LIMIT OF NORMAL", "0.6", "DERIVED", "CLINICAL STUDY SPONSOR"], ["CDISCPILOT01", "LB", "01-704-1065", "LBSEQ", "194", "ENDPOINT", "ENDPOINT VALUE FLAG", "Y", "DERIVED", "CLINICAL STUDY SPONSOR"], ["CDISCPILOT01", "LB", "01-704-1065", "LBSEQ", "194", "LBTMSHI", "LAB RESULT/UPPER LIMIT OF NORMAL", "1.0", "DERIVED", "CLINICAL STUDY SPONSOR"], ["CDISCPILOT01", "LB", "01-704-1074", "LBSEQ", "27", "LBTMSHI", "LAB RESULT/UPPER LIMIT OF NORMAL", "0.8", "DERIVED", "CLINICAL STUDY SPONSOR"], ["CDISCPILOT01", "LB", "01-704-1074", "LBSEQ", "32", "LBTMSHI", "LAB RESULT/UPPER LIMIT OF NORMAL", "1.0", "DERIVED", "CLINICAL STUDY SPONSOR"], ["CDISCPILOT01", "LB", "01-704-1074", "LBSEQ", "33", "LBTMSHI", "LAB RESULT/UPPER LIMIT OF NORMAL", "0.0", "DERIVED", "CLINICAL STUDY SPONSOR"], ["CDISCPILOT01", "LB", "01-704-1074", "LBSEQ", "36", "LBTMSHI", "LAB RESULT/UPPER LIMIT OF NORMAL", "0.5", "DERIVED", "CLINICAL STUDY SPONSOR"], ["CDISCPILOT01", "LB", "01-704-1074", "LBSEQ", "139", "ENDPOINT", "ENDPOINT VALUE FLAG", "Y", "DERIVED", "CLINICAL STUDY SPONSOR"], ["CDISCPILOT01", "LB", "01-704-1074", "LBSEQ", "139", "LBTMSHI", "LAB RESULT/UPPER LIMIT OF NORMAL", "0.9", "DERIVED", "CLINICAL STUDY SPONSOR"], ["CDISCPILOT01", "LB", "01-704-1074", "LBSEQ", "143", "ENDPOINT", "ENDPOINT VALUE FLAG", "Y", "DERIVED", "CLINICAL STUDY SPONSOR"], ["CDISCPILOT01", "LB", "01-704-1074", "LBSEQ", "143", "LBTMSHI", "LAB RESULT/UPPER LIMIT OF NORMAL", "1.0", "DERIVED", "CLINICAL STUDY SPONSOR"], ["CDISCPILOT01", "LB", "01-704-1093", "LBSEQ", "27", "LBTMSHI", "LAB RESULT/UPPER LIMIT OF NORMAL", "0.6", "DERIVED", "CLINICAL STUDY SPONSOR"], ["CDISCPILOT01", "LB", "01-704-1093", "LBSEQ", "32", "LBTMSHI", "LAB RESULT/UPPER LIMIT OF NORMAL", "1.0", "DERIVED", "CLINICAL STUDY SPONSOR"], ["CDISCPILOT01", "LB", "01-704-1093", "LBSEQ", "33", "LBTMSHI", "LAB RESULT/UPPER LIMIT OF NORMAL", "0.2", "DERIVED", "CLINICAL STUDY SPONSOR"], ["CDISCPILOT01", "LB", "01-704-1093", "LBSEQ", "36", "LBTMSHI", "LAB RESULT/UPPER LIMIT OF NORMAL", "0.4", "DERIVED", "CLINICAL STUDY SPONSOR"], ["CDISCPILOT01", "LB", "01-704-1093", "LBSEQ", "64", "LBTMSHI", "LAB RESULT/UPPER LIMIT OF NORMAL", "0.6", "DERIVED", "CLINICAL STUDY SPONSOR"], ["CDISCPILOT01", "LB", "01-704-1093", "LBSEQ", "69", "LBTMSHI", "LAB RESULT/UPPER LIMIT OF NORMAL", "1.0", "DERIVED", "CLINICAL STUDY SPONSOR"], ["CDISCPILOT01", "LB", "01-704-1093", "LBSEQ", "70", "LBTMSHI", "LAB RESULT/UPPER LIMIT OF NORMAL", "0.2", "DERIVED", "CLINICAL STUDY SPONSOR"], ["CDISCPILOT01", "LB", "01-704-1093", "LBSEQ", "73", "LBTMSHI", "LAB RESULT/UPPER LIMIT OF NORMAL", "0.4", "DERIVED", "CLINICAL STUDY SPONSOR"], ["CDISCPILOT01", "LB", "01-704-1093", "LBSEQ", "90", "LBTMSHI", "LAB RESULT/UPPER LIMIT OF NORMAL", "0.9", "DERIVED", "CLINICAL STUDY SPONSOR"], ["CDISCPILOT01", "LB", "01-704-1093", "LBSEQ", "93", "LBTMSHI", "LAB RESULT/UPPER LIMIT OF NORMAL", "1.0", "DERIVED", "CLINICAL STUDY SPONSOR"], ["CDISCPILOT01", "LB", "01-704-1093", "LBSEQ", "122", "LBTMSHI", "LAB RESULT/UPPER LIMIT OF NORMAL", "0.6", "DERIVED", "CLINICAL STUDY SPONSOR"], ["CDISCPILOT01", "LB", "01-704-1093", "LBSEQ", "127", "LBTMSHI", "LAB RESULT/UPPER LIMIT OF NORMAL", "1.0", "DERIVED", "CLINICAL STUDY SPONSOR"], ["CDISCPILOT01", "LB", "01-704-1093", "LBSEQ", "247", "LBTMSHI", "LAB RESULT/UPPER LIMIT OF NORMAL", "0.8", "DERIVED", "CLINICAL STUDY SPONSOR"], ["CDISCPILOT01", "LB", "01-704-1093", "LBSEQ", "252", "LBTMSHI", "LAB RESULT/UPPER LIMIT OF NORMAL", "1.0", "DERIVED", "CLINICAL STUDY SPONSOR"], ["CDISCPILOT01", "LB", "01-704-1093", "LBSEQ", "283", "ENDPOINT", "ENDPOINT VALUE FLAG", "Y", "DERIVED", "CLINICAL STUDY SPONSOR"], ["CDISCPILOT01", "LB", "01-704-1093", "LBSEQ", "283", "LBTMSHI", "LAB RESULT/UPPER LIMIT OF NORMAL", "0.6", "DERIVED", "CLINICAL STUDY SPONSOR"], ["CDISCPILOT01", "LB", "01-704-1093", "LBSEQ", "288", "ENDPOINT", "ENDPOINT VALUE FLAG", "Y", "DERIVED", "CLINICAL STUDY SPONSOR"], ["CDISCPILOT01", "LB", "01-704-1093", "LBSEQ", "288", "LBTMSHI", "LAB RESULT/UPPER LIMIT OF NORMAL", "1.0", "DERIVED", "CLINICAL STUDY SPONSOR"], ["CDISCPILOT01", "LB", "01-704-1114", "LBSEQ", "27", "LBTMSHI", "LAB RESULT/UPPER LIMIT OF NORMAL", "0.8", "DERIVED", "CLINICAL STUDY SPONSOR"], ["CDISCPILOT01", "LB", "01-704-1114", "LBSEQ", "32", "LBTMSHI", "LAB RESULT/UPPER LIMIT OF NORMAL", "1.0", "DERIVED", "CLINICAL STUDY SPONSOR"], ["CDISCPILOT01", "LB", "01-704-1114", "LBSEQ", "33", "LBTMSHI", "LAB RESULT/UPPER LIMIT OF NORMAL", "0.3", "DERIVED", "CLINICAL STUDY SPONSOR"], ["CDISCPILOT01", "LB", "01-704-1114", "LBSEQ", "36", "LBTMSHI", "LAB RESULT/UPPER LIMIT OF NORMAL", "0.4", "DERIVED", "CLINICAL STUDY SPONSOR"], ["CDISCPILOT01", "LB", "01-704-1114", "LBSEQ", "64", "LBTMSHI", "LAB RESULT/UPPER LIMIT OF NORMAL", "0.8", "DERIVED", "CLINICAL STUDY SPONSOR"], ["CDISCPILOT01", "LB", "01-704-1114", "LBSEQ", "69", "LBTMSHI", "LAB RESULT/UPPER LIMIT OF NORMAL", "1.0", "DERIVED", "CLINICAL STUDY SPONSOR"], ["CDISCPILOT01", "LB", "01-704-1114", "LBSEQ", "189", "LBTMSHI", "LAB RESULT/UPPER LIMIT OF NORMAL", "0.8", "DERIVED", "CLINICAL STUDY SPONSOR"], ["CDISCPILOT01", "LB", "01-704-1114", "LBSEQ", "194", "LBTMSHI", "LAB RESULT/UPPER LIMIT OF NORMAL", "1.0", "DERIVED", "CLINICAL STUDY SPONSOR"], ["CDISCPILOT01", "LB", "01-704-1114", "LBSEQ", "284", "ENDPOINT", "ENDPOINT VALUE FLAG", "Y", "DERIVED", "CLINICAL STUDY SPONSOR"], ["CDISCPILOT01", "LB", "01-704-1114", "LBSEQ", "284", "LBTMSHI", "LAB RESULT/UPPER LIMIT OF NORMAL", "0.8", "DERIVED", "CLINICAL STUDY SPONSOR"], ["CDISCPILOT01", "LB", "01-704-1114", "LBSEQ", "289", "ENDPOINT", "ENDPOINT VALUE FLAG", "Y", "DERIVED", "CLINICAL STUDY SPONSOR"], ["CDISCPILOT01", "LB", "01-704-1114", "LBSEQ", "289", "LBTMSHI", "LAB RESULT/UPPER LIMIT OF NORMAL", "1.0", "DERIVED", "CLINICAL STUDY SPONSOR"], ["CDISCPILOT01", "LB", "01-704-1120", "LBSEQ", "27", "LBTMSHI", "LAB RESULT/UPPER LIMIT OF NORMAL", "0.6", "DERIVED", "CLINICAL STUDY SPONSOR"], ["CDISCPILOT01", "LB", "01-704-1120", "LBSEQ", "32", "LBTMSHI", "LAB RESULT/UPPER LIMIT OF NORMAL", "1.0", "DERIVED", "CLINICAL STUDY SPONSOR"], ["CDISCPILOT01", "LB", "01-704-1120", "LBSEQ", "33", "LBTMSHI", "LAB RESULT/UPPER LIMIT OF NORMAL", "0.4", "DERIVED", "CLINICAL STUDY SPONSOR"], ["CDISCPILOT01", "LB", "01-704-1120", "LBSEQ", "36", "LBTMSHI", "LAB RESULT/UPPER LIMIT OF NORMAL", "0.2", "DERIVED", "CLINICAL STUDY SPONSOR"], ["CDISCPILOT01", "LB", "01-704-1120", "LBSEQ", "64", "LBTMSHI", "LAB RESULT/UPPER LIMIT OF NORMAL", "0.6", "DERIVED", "CLINICAL STUDY SPONSOR"], ["CDISCPILOT01", "LB", "01-704-1120", "LBSEQ", "69", "LBTMSHI", "LAB RESULT/UPPER LIMIT OF NORMAL", "1.0", "DERIVED", "CLINICAL STUDY SPONSOR"], ["CDISCPILOT01", "LB", "01-704-1120", "LBSEQ", "186", "ENDPOINT", "ENDPOINT VALUE FLAG", "Y", "DERIVED", "CLINICAL STUDY SPONSOR"], ["CDISCPILOT01", "LB", "01-704-1120", "LBSEQ", "186", "LBTMSHI", "LAB RESULT/UPPER LIMIT OF NORMAL", "0.6", "DERIVED", "CLINICAL STUDY SPONSOR"], ["CDISCPILOT01", "LB", "01-704-1120", "LBSEQ", "191", "ENDPOINT", "ENDPOINT VALUE FLAG", "Y", "DERIVED", "CLINICAL STUDY SPONSOR"], ["CDISCPILOT01", "LB", "01-704-1120", "LBSEQ", "191", "LBTMSHI", "LAB RESULT/UPPER LIMIT OF NORMAL", "1.0", "DERIVED", "CLINICAL STUDY SPONSOR"], ["CDISCPILOT01", "LB", "01-704-1127", "LBSEQ", "27", "LBTMSHI", "LAB RESULT/UPPER LIMIT OF NORMAL", "0.9", "DERIVED", "CLINICAL STUDY SPONSOR"], ["CDISCPILOT01", "LB", "01-704-1127", "LBSEQ", "32", "LBTMSHI", "LAB RESULT/UPPER LIMIT OF NORMAL", "1.0", "DERIVED", "CLINICAL STUDY SPONSOR"], ["CDISCPILOT01", "LB", "01-704-1127", "LBSEQ", "33", "LBTMSHI", "LAB RESULT/UPPER LIMIT OF NORMAL", "0.4", "DERIVED", "CLINICAL STUDY SPONSOR"], ["CDISCPILOT01", "LB", "01-704-1127", "LBSEQ", "36", "LBTMSHI", "LAB RESULT/UPPER LIMIT OF NORMAL", "1.1", "DERIVED", "CLINICAL STUDY SPONSOR"], ["CDISCPILOT01", "LB", "01-704-1127", "LBSEQ", "64", "LBTMSHI", "LAB RESULT/UPPER LIMIT OF NORMAL", "0.6", "DERIVED", "CLINICAL STUDY SPONSOR"], ["CDISCPILOT01", "LB", "01-704-1127", "LBSEQ", "69", "LBTMSHI", "LAB RESULT/UPPER LIMIT OF NORMAL", "1.0", "DERIVED", "CLINICAL STUDY SPONSOR"], ["CDISCPILOT01", "LB", "01-704-1127", "LBSEQ", "189", "LBTMSHI", "LAB RESULT/UPPER LIMIT OF NORMAL", "0.8", "DERIVED", "CLINICAL STUDY SPONSOR"], ["CDISCPILOT01", "LB", "01-704-1127", "LBSEQ", "194", "LBTMSHI", "LAB RESULT/UPPER LIMIT OF NORMAL", "1.0", "DERIVED", "CLINICAL STUDY SPONSOR"], ["CDISCPILOT01", "LB", "01-704-1127", "LBSEQ", "284", "ENDPOINT", "ENDPOINT VALUE FLAG", "Y", "DERIVED", "CLINICAL STUDY SPONSOR"], ["CDISCPILOT01", "LB", "01-704-1127", "LBSEQ", "284", "LBTMSHI", "LAB RESULT/UPPER LIMIT OF NORMAL", "0.6", "DERIVED", "CLINICAL STUDY SPONSOR"], ["CDISCPILOT01", "LB", "01-704-1127", "LBSEQ", "289", "ENDPOINT", "ENDPOINT VALUE FLAG", "Y", "DERIVED", "CLINICAL STUDY SPONSOR"], ["CDISCPILOT01", "LB", "01-704-1127", "LBSEQ", "289", "LBTMSHI", "LAB RESULT/UPPER LIMIT OF NORMAL", "1.0", "DERIVED", "CLINICAL STUDY SPONSOR"], ["CDISCPILOT01", "LB", "01-704-1135", "LBSEQ", "27", "LBTMSHI", "LAB RESULT/UPPER LIMIT OF NORMAL", "0.6", "DERIVED", "CLINICAL STUDY SPONSOR"], ["CDISCPILOT01", "LB", "01-704-1135", "LBSEQ", "32", "LBTMSHI", "LAB RESULT/UPPER LIMIT OF NORMAL", "1.0", "DERIVED", "CLINICAL STUDY SPONSOR"], ["CDISCPILOT01", "LB", "01-704-1135", "LBSEQ", "33", "LBTMSHI", "LAB RESULT/UPPER LIMIT OF NORMAL", "0.1", "DERIVED", "CLINICAL STUDY SPONSOR"], ["CDISCPILOT01", "LB", "01-704-1135", "LBSEQ", "36", "LBTMSHI", "LAB RESULT/UPPER LIMIT OF NORMAL", "0.4", "DERIVED", "CLINICAL STUDY SPONSOR"], ["CDISCPILOT01", "LB", "01-704-1135", "LBSEQ", "64", "LBTMSHI", "LAB RESULT/UPPER LIMIT OF NORMAL", "0.6", "DERIVED", "CLINICAL STUDY SPONSOR"], ["CDISCPILOT01", "LB", "01-704-1135", "LBSEQ", "69", "LBTMSHI", "LAB RESULT/UPPER LIMIT OF NORMAL", "1.0", "DERIVED", "CLINICAL STUDY SPONSOR"], ["CDISCPILOT01", "LB", "01-704-1135", "LBSEQ", "190", "LBTMSHI", "LAB RESULT/UPPER LIMIT OF NORMAL", "0.6", "DERIVED", "CLINICAL STUDY SPONSOR"], ["CDISCPILOT01", "LB", "01-704-1135", "LBSEQ", "195", "LBTMSHI", "LAB RESULT/UPPER LIMIT OF NORMAL", "1.0", "DERIVED", "CLINICAL STUDY SPONSOR"], ["CDISCPILOT01", "LB", "01-704-1135", "LBSEQ", "256", "LBTMSHI", "LAB RESULT/UPPER LIMIT OF NORMAL", "0.6", "DERIVED", "CLINICAL STUDY SPONSOR"], ["CDISCPILOT01", "LB", "01-704-1135", "LBSEQ", "262", "LBTMSHI", "LAB RESULT/UPPER LIMIT OF NORMAL", "1.0", "DERIVED", "CLINICAL STUDY SPONSOR"], ["CDISCPILOT01", "LB", "01-704-1135", "LBSEQ", "292", "ENDPOINT", "ENDPOINT VALUE FLAG", "Y", "DERIVED", "CLINICAL STUDY SPONSOR"], ["CDISCPILOT01", "LB", "01-704-1135", "LBSEQ", "292", "LBTMSHI", "LAB RESULT/UPPER LIMIT OF NORMAL", "0.6", "DERIVED", "CLINICAL STUDY SPONSOR"], ["CDISCPILOT01", "LB", "01-704-1135", "LBSEQ", "297", "ENDPOINT", "ENDPOINT VALUE FLAG", "Y", "DERIVED", "CLINICAL STUDY SPONSOR"], ["CDISCPILOT01", "LB", "01-704-1135", "LBSEQ", "297", "LBTMSHI", "LAB RESULT/UPPER LIMIT OF NORMAL", "1.0", "DERIVED", "CLINICAL STUDY SPONSOR"], ["CDISCPILOT01", "LB", "01-704-1164", "LBSEQ", "27", "LBTMSHI", "LAB RESULT/UPPER LIMIT OF NORMAL", "0.9", "DERIVED", "CLINICAL STUDY SPONSOR"], ["CDISCPILOT01", "LB", "01-704-1164", "LBSEQ", "32", "LBTMSHI", "LAB RESULT/UPPER LIMIT OF NORMAL", "1.0", "DERIVED", "CLINICAL STUDY SPONSOR"], ["CDISCPILOT01", "LB", "01-704-1164", "LBSEQ", "33", "LBTMSHI", "LAB RESULT/UPPER LIMIT OF NORMAL", "0.4", "DERIVED", "CLINICAL STUDY SPONSOR"], ["CDISCPILOT01", "LB", "01-704-1164", "LBSEQ", "36", "LBTMSHI", "LAB RESULT/UPPER LIMIT OF NORMAL", "0.4", "DERIVED", "CLINICAL STUDY SPONSOR"], ["CDISCPILOT01", "LB", "01-704-1164", "LBSEQ", "64", "LBTMSHI", "LAB RESULT/UPPER LIMIT OF NORMAL", "0.6", "DERIVED", "CLINICAL STUDY SPONSOR"], ["CDISCPILOT01", "LB", "01-704-1164", "LBSEQ", "69", "LBTMSHI", "LAB RESULT/UPPER LIMIT OF NORMAL", "1.0", "DERIVED", "CLINICAL STUDY SPONSOR"], ["CDISCPILOT01", "LB", "01-704-1164", "LBSEQ", "189", "LBTMSHI", "LAB RESULT/UPPER LIMIT OF NORMAL", "0.9", "DERIVED", "CLINICAL STUDY SPONSOR"], ["CDISCPILOT01", "LB", "01-704-1164", "LBSEQ", "194", "LBTMSHI", "LAB RESULT/UPPER LIMIT OF NORMAL", "1.0", "DERIVED", "CLINICAL STUDY SPONSOR"], ["CDISCPILOT01", "LB", "01-704-1164", "LBSEQ", "286", "ENDPOINT", "ENDPOINT VALUE FLAG", "Y", "DERIVED", "CLINICAL STUDY SPONSOR"], ["CDISCPILOT01", "LB", "01-704-1164", "LBSEQ", "286", "LBTMSHI", "LAB RESULT/UPPER LIMIT OF NORMAL", "0.6", "DERIVED", "CLINICAL STUDY SPONSOR"], ["CDISCPILOT01", "LB", "01-704-1164", "LBSEQ", "291", "ENDPOINT", "ENDPOINT VALUE FLAG", "Y", "DERIVED", "CLINICAL STUDY SPONSOR"], ["CDISCPILOT01", "LB", "01-704-1164", "LBSEQ", "291", "LBTMSHI", "LAB RESULT/UPPER LIMIT OF NORMAL", "1.0", "DERIVED", "CLINICAL STUDY SPONSOR"], ["CDISCPILOT01", "LB", "01-704-1218", "LBSEQ", "27", "LBTMSHI", "LAB RESULT/UPPER LIMIT OF NORMAL", "0.6", "DERIVED", "CLINICAL STUDY SPONSOR"], ["CDISCPILOT01", "LB", "01-704-1218", "LBSEQ", "32", "LBTMSHI", "LAB RESULT/UPPER LIMIT OF NORMAL", "1.0", "DERIVED", "CLINICAL STUDY SPONSOR"], ["CDISCPILOT01", "LB", "01-704-1218", "LBSEQ", "33", "LBTMSHI", "LAB RESULT/UPPER LIMIT OF NORMAL", "0.1", "DERIVED", "CLINICAL STUDY SPONSOR"], ["CDISCPILOT01", "LB", "01-704-1218", "LBSEQ", "36", "LBTMSHI", "LAB RESULT/UPPER LIMIT OF NORMAL", "0.6", "DERIVED", "CLINICAL STUDY SPONSOR"], ["CDISCPILOT01", "LB", "01-704-1218", "LBSEQ", "53", "LBTMSHI", "LAB RESULT/UPPER LIMIT OF NORMAL", "0.6", "DERIVED", "CLINICAL STUDY SPONSOR"], ["CDISCPILOT01", "LB", "01-704-1218", "LBSEQ", "80", "LBTMSHI", "LAB RESULT/UPPER LIMIT OF NORMAL", "0.6", "DERIVED", "CLINICAL STUDY SPONSOR"], ["CDISCPILOT01", "LB", "01-704-1218", "LBSEQ", "85", "LBTMSHI", "LAB RESULT/UPPER LIMIT OF NORMAL", "1.0", "DERIVED", "CLINICAL STUDY SPONSOR"], ["CDISCPILOT01", "LB", "01-704-1218", "LBSEQ", "86", "LBTMSHI", "LAB RESULT/UPPER LIMIT OF NORMAL", "0.2", "DERIVED", "CLINICAL STUDY SPONSOR"], ["CDISCPILOT01", "LB", "01-704-1218", "LBSEQ", "89", "LBTMSHI", "LAB RESULT/UPPER LIMIT OF NORMAL", "0.6", "DERIVED", "CLINICAL STUDY SPONSOR"], ["CDISCPILOT01", "LB", "01-704-1218", "LBSEQ", "117", "LBTMSHI", "LAB RESULT/UPPER LIMIT OF NORMAL", "0.6", "DERIVED", "CLINICAL STUDY SPONSOR"], ["CDISCPILOT01", "LB", "01-704-1218", "LBSEQ", "122", "LBTMSHI", "LAB RESULT/UPPER LIMIT OF NORMAL", "1.0", "DERIVED", "CLINICAL STUDY SPONSOR"], ["CDISCPILOT01", "LB", "01-704-1218", "LBSEQ", "210", "LBTMSHI", "LAB RESULT/UPPER LIMIT OF NORMAL", "0.6", "DERIVED", "CLINICAL STUDY SPONSOR"], ["CDISCPILOT01", "LB", "01-704-1218", "LBSEQ", "215", "LBTMSHI", "LAB RESULT/UPPER LIMIT OF NORMAL", "1.0", "DERIVED", "CLINICAL STUDY SPONSOR"], ["CDISCPILOT01", "LB", "01-704-1218", "LBSEQ", "245", "LBTMSHI", "LAB RESULT/UPPER LIMIT OF NORMAL", "0.6", "DERIVED", "CLINICAL STUDY SPONSOR"], ["CDISCPILOT01", "LB", "01-704-1218", "LBSEQ", "250", "LBTMSHI", "LAB RESULT/UPPER LIMIT OF NORMAL", "1.0", "DERIVED", "CLINICAL STUDY SPONSOR"], ["CDISCPILOT01", "LB", "01-704-1218", "LBSEQ", "342", "ENDPOINT", "ENDPOINT VALUE FLAG", "Y", "DERIVED", "CLINICAL STUDY SPONSOR"], ["CDISCPILOT01", "LB", "01-704-1218", "LBSEQ", "342", "LBTMSHI", "LAB RESULT/UPPER LIMIT OF NORMAL", "0.6", "DERIVED", "CLINICAL STUDY SPONSOR"], ["CDISCPILOT01", "LB", "01-704-1218", "LBSEQ", "347", "ENDPOINT", "ENDPOINT VALUE FLAG", "Y", "DERIVED", "CLINICAL STUDY SPONSOR"], ["CDISCPILOT01", "LB", "01-704-1218", "LBSEQ", "347", "LBTMSHI", "LAB RESULT/UPPER LIMIT OF NORMAL", "1.0", "DERIVED", "CLINICAL STUDY SPONSOR"], ["CDISCPILOT01", "LB", "01-704-1233", "LBSEQ", "27", "LBTMSHI", "LAB RESULT/UPPER LIMIT OF NORMAL", "0.8", "DERIVED", "CLINICAL STUDY SPONSOR"], ["CDISCPILOT01", "LB", "01-704-1233", "LBSEQ", "32", "LBTMSHI", "LAB RESULT/UPPER LIMIT OF NORMAL", "1.0", "DERIVED", "CLINICAL STUDY SPONSOR"], ["CDISCPILOT01", "LB", "01-704-1233", "LBSEQ", "33", "LBTMSHI", "LAB RESULT/UPPER LIMIT OF NORMAL", "0.3", "DERIVED", "CLINICAL STUDY SPONSOR"], ["CDISCPILOT01", "LB", "01-704-1233", "LBSEQ", "36", "LBTMSHI", "LAB RESULT/UPPER LIMIT OF NORMAL", "0.6", "DERIVED", "CLINICAL STUDY SPONSOR"], ["CDISCPILOT01", "LB", "01-704-1233", "LBSEQ", "64", "LBTMSHI", "LAB RESULT/UPPER LIMIT OF NORMAL", "0.6", "DERIVED", "CLINICAL STUDY SPONSOR"], ["CDISCPILOT01", "LB", "01-704-1233", "LBSEQ", "69", "LBTMSHI", "LAB RESULT/UPPER LIMIT OF NORMAL", "1.0", "DERIVED", "CLINICAL STUDY SPONSOR"], ["CDISCPILOT01", "LB", "01-704-1233", "LBSEQ", "186", "LBTMSHI", "LAB RESULT/UPPER LIMIT OF NORMAL", "0.6", "DERIVED", "CLINICAL STUDY SPONSOR"], ["CDISCPILOT01", "LB", "01-704-1233", "LBSEQ", "191", "LBTMSHI", "LAB RESULT/UPPER LIMIT OF NORMAL", "1.0", "DERIVED", "CLINICAL STUDY SPONSOR"], ["CDISCPILOT01", "LB", "01-704-1241", "LBSEQ", "27", "LBTMSHI", "LAB RESULT/UPPER LIMIT OF NORMAL", "0.6", "DERIVED", "CLINICAL STUDY SPONSOR"], ["CDISCPILOT01", "LB", "01-704-1241", "LBSEQ", "32", "LBTMSHI", "LAB RESULT/UPPER LIMIT OF NORMAL", "1.0", "DERIVED", "CLINICAL STUDY SPONSOR"], ["CDISCPILOT01", "LB", "01-704-1241", "LBSEQ", "33", "LBTMSHI", "LAB RESULT/UPPER LIMIT OF NORMAL", "0.2", "DERIVED", "CLINICAL STUDY SPONSOR"], ["CDISCPILOT01", "LB", "01-704-1241", "LBSEQ", "36", "LBTMSHI", "LAB RESULT/UPPER LIMIT OF NORMAL", "0.2", "DERIVED", "CLINICAL STUDY SPONSOR"], ["CDISCPILOT01", "LB", "01-704-1241", "LBSEQ", "65", "LBTMSHI", "LAB RESULT/UPPER LIMIT OF NORMAL", "0.6", "DERIVED", "CLINICAL STUDY SPONSOR"], ["CDISCPILOT01", "LB", "01-704-1241", "LBSEQ", "70", "LBTMSHI", "LAB RESULT/UPPER LIMIT OF NORMAL", "1.0", "DERIVED", "CLINICAL STUDY SPONSOR"], ["CDISCPILOT01", "LB", "01-704-1260", "LBSEQ", "27", "LBTMSHI", "LAB RESULT/UPPER LIMIT OF NORMAL", "0.6", "DERIVED", "CLINICAL STUDY SPONSOR"], ["CDISCPILOT01", "LB", "01-704-1260", "LBSEQ", "32", "LBTMSHI", "LAB RESULT/UPPER LIMIT OF NORMAL", "1.0", "DERIVED", "CLINICAL STUDY SPONSOR"], ["CDISCPILOT01", "LB", "01-704-1260", "LBSEQ", "33", "LBTMSHI", "LAB RESULT/UPPER LIMIT OF NORMAL", "0.6", "DERIVED", "CLINICAL STUDY SPONSOR"], ["CDISCPILOT01", "LB", "01-704-1260", "LBSEQ", "36", "LBTMSHI", "LAB RESULT/UPPER LIMIT OF NORMAL", "0.3", "DERIVED", "CLINICAL STUDY SPONSOR"], ["CDISCPILOT01", "LB", "01-704-1260", "LBSEQ", "64", "LBTMSHI", "LAB RESULT/UPPER LIMIT OF NORMAL", "0.6", "DERIVED", "CLINICAL STUDY SPONSOR"], ["CDISCPILOT01", "LB", "01-704-1260", "LBSEQ", "69", "LBTMSHI", "LAB RESULT/UPPER LIMIT OF NORMAL", "1.0", "DERIVED", "CLINICAL STUDY SPONSOR"], ["CDISCPILOT01", "LB", "01-704-1266", "LBSEQ", "27", "LBTMSHI", "LAB RESULT/UPPER LIMIT OF NORMAL", "0.6", "DERIVED", "CLINICAL STUDY SPONSOR"], ["CDISCPILOT01", "LB", "01-704-1266", "LBSEQ", "32", "LBTMSHI", "LAB RESULT/UPPER LIMIT OF NORMAL", "1.0", "DERIVED", "CLINICAL STUDY SPONSOR"], ["CDISCPILOT01", "LB", "01-704-1266", "LBSEQ", "33", "LBTMSHI", "LAB RESULT/UPPER LIMIT OF NORMAL", "0.5", "DERIVED", "CLINICAL STUDY SPONSOR"], ["CDISCPILOT01", "LB", "01-704-1266", "LBSEQ", "36", "LBTMSHI", "LAB RESULT/UPPER LIMIT OF NORMAL", "0.5", "DERIVED", "CLINICAL STUDY SPONSOR"], ["CDISCPILOT01", "LB", "01-704-1266", "LBSEQ", "64", "LBTMSHI", "LAB RESULT/UPPER LIMIT OF NORMAL", "0.6", "DERIVED", "CLINICAL STUDY SPONSOR"], ["CDISCPILOT01", "LB", "01-704-1266", "LBSEQ", "69", "LBTMSHI", "LAB RESULT/UPPER LIMIT OF NORMAL", "1.0", "DERIVED", "CLINICAL STUDY SPONSOR"], ["CDISCPILOT01", "LB", "01-704-1266", "LBSEQ", "159", "ENDPOINT", "ENDPOINT VALUE FLAG", "Y", "DERIVED", "CLINICAL STUDY SPONSOR"], ["CDISCPILOT01", "LB", "01-704-1266", "LBSEQ", "159", "LBTMSHI", "LAB RESULT/UPPER LIMIT OF NORMAL", "0.6", "DERIVED", "CLINICAL STUDY SPONSOR"], ["CDISCPILOT01", "LB", "01-704-1266", "LBSEQ", "164", "ENDPOINT", "ENDPOINT VALUE FLAG", "Y", "DERIVED", "CLINICAL STUDY SPONSOR"], ["CDISCPILOT01", "LB", "01-704-1266", "LBSEQ", "164", "LBTMSHI", "LAB RESULT/UPPER LIMIT OF NORMAL", "1.0", "DERIVED", "CLINICAL STUDY SPONSOR"], ["CDISCPILOT01", "LB", "01-704-1323", "LBSEQ", "26", "LBTMSHI", "LAB RESULT/UPPER LIMIT OF NORMAL", "0.6", "DERIVED", "CLINICAL STUDY SPONSOR"], ["CDISCPILOT01", "LB", "01-704-1323", "LBSEQ", "30", "LBTMSHI", "LAB RESULT/UPPER LIMIT OF NORMAL", "1.0", "DERIVED", "CLINICAL STUDY SPONSOR"], ["CDISCPILOT01", "LB", "01-704-1323", "LBSEQ", "31", "LBTMSHI", "LAB RESULT/UPPER LIMIT OF NORMAL", "0.5", "DERIVED", "CLINICAL STUDY SPONSOR"], ["CDISCPILOT01", "LB", "01-704-1323", "LBSEQ", "34", "LBTMSHI", "LAB RESULT/UPPER LIMIT OF NORMAL", "0.6", "DERIVED", "CLINICAL STUDY SPONSOR"], ["CDISCPILOT01", "LB", "01-704-1325", "LBSEQ", "27", "LBTMSHI", "LAB RESULT/UPPER LIMIT OF NORMAL", "0.8", "DERIVED", "CLINICAL STUDY SPONSOR"], ["CDISCPILOT01", "LB", "01-704-1325", "LBSEQ", "32", "LBTMSHI", "LAB RESULT/UPPER LIMIT OF NORMAL", "1.0", "DERIVED", "CLINICAL STUDY SPONSOR"], ["CDISCPILOT01", "LB", "01-704-1325", "LBSEQ", "33", "LBTMSHI", "LAB RESULT/UPPER LIMIT OF NORMAL", "0.1", "DERIVED", "CLINICAL STUDY SPONSOR"], ["CDISCPILOT01", "LB", "01-704-1325", "LBSEQ", "36", "LBTMSHI", "LAB RESULT/UPPER LIMIT OF NORMAL", "0.2", "DERIVED", "CLINICAL STUDY SPONSOR"], ["CDISCPILOT01", "LB", "01-704-1325", "LBSEQ", "66", "LBTMSHI", "LAB RESULT/UPPER LIMIT OF NORMAL", "0.6", "DERIVED", "CLINICAL STUDY SPONSOR"], ["CDISCPILOT01", "LB", "01-704-1325", "LBSEQ", "71", "LBTMSHI", "LAB RESULT/UPPER LIMIT OF NORMAL", "1.0", "DERIVED", "CLINICAL STUDY SPONSOR"], ["CDISCPILOT01", "LB", "01-704-1325", "LBSEQ", "191", "ENDPOINT", "ENDPOINT VALUE FLAG", "Y", "DERIVED", "CLINICAL STUDY SPONSOR"], ["CDISCPILOT01", "LB", "01-704-1325", "LBSEQ", "191", "LBTMSHI", "LAB RESULT/UPPER LIMIT OF NORMAL", "0.9", "DERIVED", "CLINICAL STUDY SPONSOR"], ["CDISCPILOT01", "LB", "01-704-1325", "LBSEQ", "196", "ENDPOINT", "ENDPOINT VALUE FLAG", "Y", "DERIVED", "CLINICAL STUDY SPONSOR"], ["CDISCPILOT01", "LB", "01-704-1325", "LBSEQ", "196", "LBTMSHI", "LAB RESULT/UPPER LIMIT OF NORMAL", "1.0", "DERIVED", "CLINICAL STUDY SPONSOR"], ["CDISCPILOT01", "LB", "01-704-1332", "LBSEQ", "27", "LBTMSHI", "LAB RESULT/UPPER LIMIT OF NORMAL", "0.6", "DERIVED", "CLINICAL STUDY SPONSOR"], ["CDISCPILOT01", "LB", "01-704-1332", "LBSEQ", "32", "LBTMSHI", "LAB RESULT/UPPER LIMIT OF NORMAL", "1.0", "DERIVED", "CLINICAL STUDY SPONSOR"], ["CDISCPILOT01", "LB", "01-704-1332", "LBSEQ", "33", "LBTMSHI", "LAB RESULT/UPPER LIMIT OF NORMAL", "0.2", "DERIVED", "CLINICAL STUDY SPONSOR"], ["CDISCPILOT01", "LB", "01-704-1332", "LBSEQ", "36", "LBTMSHI", "LAB RESULT/UPPER LIMIT OF NORMAL", "1.0", "DERIVED", "CLINICAL STUDY SPONSOR"], ["CDISCPILOT01", "LB", "01-704-1332", "LBSEQ", "64", "LBTMSHI", "LAB RESULT/UPPER LIMIT OF NORMAL", "0.6", "DERIVED", "CLINICAL STUDY SPONSOR"], ["CDISCPILOT01", "LB", "01-704-1332", "LBSEQ", "69", "LBTMSHI", "LAB RESULT/UPPER LIMIT OF NORMAL", "1.0", "DERIVED", "CLINICAL STUDY SPONSOR"], ["CDISCPILOT01", "LB", "01-704-1332", "LBSEQ", "189", "ENDPOINT", "ENDPOINT VALUE FLAG", "Y", "DERIVED", "CLINICAL STUDY SPONSOR"], ["CDISCPILOT01", "LB", "01-704-1332", "LBSEQ", "189", "LBTMSHI", "LAB RESULT/UPPER LIMIT OF NORMAL", "0.6", "DERIVED", "CLINICAL STUDY SPONSOR"], ["CDISCPILOT01", "LB", "01-704-1332", "LBSEQ", "194", "ENDPOINT", "ENDPOINT VALUE FLAG", "Y", "DERIVED", "CLINICAL STUDY SPONSOR"], ["CDISCPILOT01", "LB", "01-704-1332", "LBSEQ", "194", "LBTMSHI", "LAB RESULT/UPPER LIMIT OF NORMAL", "1.0", "DERIVED", "CLINICAL STUDY SPONSOR"], ["CDISCPILOT01", "LB", "01-704-1351", "LBSEQ", "29", "LBTMSHI", "LAB RESULT/UPPER LIMIT OF NORMAL", "0.6", "DERIVED", "CLINICAL STUDY SPONSOR"], ["CDISCPILOT01", "LB", "01-704-1351", "LBSEQ", "34", "LBTMSHI", "LAB RESULT/UPPER LIMIT OF NORMAL", "1.0", "DERIVED", "CLINICAL STUDY SPONSOR"], ["CDISCPILOT01", "LB", "01-704-1351", "LBSEQ", "35", "LBTMSHI", "LAB RESULT/UPPER LIMIT OF NORMAL", "0.5", "DERIVED", "CLINICAL STUDY SPONSOR"], ["CDISCPILOT01", "LB", "01-704-1351", "LBSEQ", "38", "LBTMSHI", "LAB RESULT/UPPER LIMIT OF NORMAL", "0.6", "DERIVED", "CLINICAL STUDY SPONSOR"], ["CDISCPILOT01", "LB", "01-704-1351", "LBSEQ", "172", "LBTMSHI", "LAB RESULT/UPPER LIMIT OF NORMAL", "0.8", "DERIVED", "CLINICAL STUDY SPONSOR"], ["CDISCPILOT01", "LB", "01-704-1351", "LBSEQ", "175", "LBTMSHI", "LAB RESULT/UPPER LIMIT OF NORMAL", "1.0", "DERIVED", "CLINICAL STUDY SPONSOR"], ["CDISCPILOT01", "LB", "01-704-1351", "LBSEQ", "262", "ENDPOINT", "ENDPOINT VALUE FLAG", "Y", "DERIVED", "CLINICAL STUDY SPONSOR"], ["CDISCPILOT01", "LB", "01-704-1351", "LBSEQ", "262", "LBTMSHI", "LAB RESULT/UPPER LIMIT OF NORMAL", "0.6", "DERIVED", "CLINICAL STUDY SPONSOR"], ["CDISCPILOT01", "LB", "01-704-1351", "LBSEQ", "267", "ENDPOINT", "ENDPOINT VALUE FLAG", "Y", "DERIVED", "CLINICAL STUDY SPONSOR"], ["CDISCPILOT01", "LB", "01-704-1351", "LBSEQ", "267", "LBTMSHI", "LAB RESULT/UPPER LIMIT OF NORMAL", "1.0", "DERIVED", "CLINICAL STUDY SPONSOR"], ["CDISCPILOT01", "LB", "01-704-1388", "LBSEQ", "27", "LBTMSHI", "LAB RESULT/UPPER LIMIT OF NORMAL", "0.6", "DERIVED", "CLINICAL STUDY SPONSOR"], ["CDISCPILOT01", "LB", "01-704-1388", "LBSEQ", "32", "LBTMSHI", "LAB RESULT/UPPER LIMIT OF NORMAL", "1.0", "DERIVED", "CLINICAL STUDY SPONSOR"], ["CDISCPILOT01", "LB", "01-704-1388", "LBSEQ", "33", "LBTMSHI", "LAB RESULT/UPPER LIMIT OF NORMAL", "0.3", "DERIVED", "CLINICAL STUDY SPONSOR"], ["CDISCPILOT01", "LB", "01-704-1388", "LBSEQ", "36", "LBTMSHI", "LAB RESULT/UPPER LIMIT OF NORMAL", "0.3", "DERIVED", "CLINICAL STUDY SPONSOR"], ["CDISCPILOT01", "LB", "01-704-1388", "LBSEQ", "65", "LBTMSHI", "LAB RESULT/UPPER LIMIT OF NORMAL", "0.8", "DERIVED", "CLINICAL STUDY SPONSOR"], ["CDISCPILOT01", "LB", "01-704-1388", "LBSEQ", "70", "LBTMSHI", "LAB RESULT/UPPER LIMIT OF NORMAL", "1.0", "DERIVED", "CLINICAL STUDY SPONSOR"], ["CDISCPILOT01", "LB", "01-704-1388", "LBSEQ", "194", "LBTMSHI", "LAB RESULT/UPPER LIMIT OF NORMAL", "0.8", "DERIVED", "CLINICAL STUDY SPONSOR"], ["CDISCPILOT01", "LB", "01-704-1388", "LBSEQ", "199", "LBTMSHI", "LAB RESULT/UPPER LIMIT OF NORMAL", "1.0", "DERIVED", "CLINICAL STUDY SPONSOR"], ["CDISCPILOT01", "LB", "01-704-1388", "LBSEQ", "291", "ENDPOINT", "ENDPOINT VALUE FLAG", "Y", "DERIVED", "CLINICAL STUDY SPONSOR"], ["CDISCPILOT01", "LB", "01-704-1388", "LBSEQ", "291", "LBTMSHI", "LAB RESULT/UPPER LIMIT OF NORMAL", "0.6", "DERIVED", "CLINICAL STUDY SPONSOR"], ["CDISCPILOT01", "LB", "01-704-1388", "LBSEQ", "296", "ENDPOINT", "ENDPOINT VALUE FLAG", "Y", "DERIVED", "CLINICAL STUDY SPONSOR"], ["CDISCPILOT01", "LB", "01-704-1388", "LBSEQ", "296", "LBTMSHI", "LAB RESULT/UPPER LIMIT OF NORMAL", "1.0", "DERIVED", "CLINICAL STUDY SPONSOR"], ["CDISCPILOT01", "LB", "01-704-1435", "LBSEQ", "27", "LBTMSHI", "LAB RESULT/UPPER LIMIT OF NORMAL", "0.8", "DERIVED", "CLINICAL STUDY SPONSOR"], ["CDISCPILOT01", "LB", "01-704-1435", "LBSEQ", "32", "LBTMSHI", "LAB RESULT/UPPER LIMIT OF NORMAL", "1.0", "DERIVED", "CLINICAL STUDY SPONSOR"], ["CDISCPILOT01", "LB", "01-704-1435", "LBSEQ", "33", "LBTMSHI", "LAB RESULT/UPPER LIMIT OF NORMAL", "0.3", "DERIVED", "CLINICAL STUDY SPONSOR"], ["CDISCPILOT01", "LB", "01-704-1435", "LBSEQ", "36", "LBTMSHI", "LAB RESULT/UPPER LIMIT OF NORMAL", "0.4", "DERIVED", "CLINICAL STUDY SPONSOR"], ["CDISCPILOT01", "LB", "01-704-1435", "LBSEQ", "64", "LBTMSHI", "LAB RESULT/UPPER LIMIT OF NORMAL", "0.6", "DERIVED", "CLINICAL STUDY SPONSOR"], ["CDISCPILOT01", "LB", "01-704-1435", "LBSEQ", "69", "LBTMSHI", "LAB RESULT/UPPER LIMIT OF NORMAL", "1.0", "DERIVED", "CLINICAL STUDY SPONSOR"], ["CDISCPILOT01", "LB", "01-704-1435", "LBSEQ", "160", "ENDPOINT", "ENDPOINT VALUE FLAG", "Y", "DERIVED", "CLINICAL STUDY SPONSOR"], ["CDISCPILOT01", "LB", "01-704-1435", "LBSEQ", "160", "LBTMSHI", "LAB RESULT/UPPER LIMIT OF NORMAL", "0.8", "DERIVED", "CLINICAL STUDY SPONSOR"], ["CDISCPILOT01", "LB", "01-704-1435", "LBSEQ", "165", "ENDPOINT", "ENDPOINT VALUE FLAG", "Y", "DERIVED", "CLINICAL STUDY SPONSOR"], ["CDISCPILOT01", "LB", "01-704-1435", "LBSEQ", "165", "LBTMSHI", "LAB RESULT/UPPER LIMIT OF NORMAL", "1.0", "DERIVED", "CLINICAL STUDY SPONSOR"], ["CDISCPILOT01", "LB", "01-704-1445", "LBSEQ", "27", "LBTMSHI", "LAB RESULT/UPPER LIMIT OF NORMAL", "0.8", "DERIVED", "CLINICAL STUDY SPONSOR"], ["CDISCPILOT01", "LB", "01-704-1445", "LBSEQ", "32", "LBTMSHI", "LAB RESULT/UPPER LIMIT OF NORMAL", "1.0", "DERIVED", "CLINICAL STUDY SPONSOR"], ["CDISCPILOT01", "LB", "01-704-1445", "LBSEQ", "33", "LBTMSHI", "LAB RESULT/UPPER LIMIT OF NORMAL", "0.0", "DERIVED", "CLINICAL STUDY SPONSOR"], ["CDISCPILOT01", "LB", "01-704-1445", "LBSEQ", "36", "LBTMSHI", "LAB RESULT/UPPER LIMIT OF NORMAL", "0.7", "DERIVED", "CLINICAL STUDY SPONSOR"], ["CDISCPILOT01", "LB", "01-704-1445", "LBSEQ", "49", "LBTMSHI", "LAB RESULT/UPPER LIMIT OF NORMAL", "0.0", "DERIVED", "CLINICAL STUDY SPONSOR"], ["CDISCPILOT01", "LB", "01-704-1445", "LBSEQ", "78", "LBTMSHI", "LAB RESULT/UPPER LIMIT OF NORMAL", "0.8", "DERIVED", "CLINICAL STUDY SPONSOR"], ["CDISCPILOT01", "LB", "01-704-1445", "LBSEQ", "84", "LBTMSHI", "LAB RESULT/UPPER LIMIT OF NORMAL", "1.0", "DERIVED", "CLINICAL STUDY SPONSOR"], ["CDISCPILOT01", "LB", "01-704-1445", "LBSEQ", "204", "LBTMSHI", "LAB RESULT/UPPER LIMIT OF NORMAL", "0.6", "DERIVED", "CLINICAL STUDY SPONSOR"], ["CDISCPILOT01", "LB", "01-704-1445", "LBSEQ", "209", "LBTMSHI", "LAB RESULT/UPPER LIMIT OF NORMAL", "1.0", "DERIVED", "CLINICAL STUDY SPONSOR"], ["CDISCPILOT01", "LB", "01-704-1445", "LBSEQ", "266", "ENDPOINT", "ENDPOINT VALUE FLAG", "Y", "DERIVED", "CLINICAL STUDY SPONSOR"], ["CDISCPILOT01", "LB", "01-704-1445", "LBSEQ", "266", "LBTMSHI", "LAB RESULT/UPPER LIMIT OF NORMAL", "0.8", "DERIVED", "CLINICAL STUDY SPONSOR"], ["CDISCPILOT01", "LB", "01-704-1445", "LBSEQ", "271", "ENDPOINT", "ENDPOINT VALUE FLAG", "Y", "DERIVED", "CLINICAL STUDY SPONSOR"], ["CDISCPILOT01", "LB", "01-704-1445", "LBSEQ", "271", "LBTMSHI", "LAB RESULT/UPPER LIMIT OF NORMAL", "1.0", "DERIVED", "CLINICAL STUDY SPONSOR"], ["CDISCPILOT01", "LB", "01-705-1018", "LBSEQ", "27", "LBTMSHI", "LAB RESULT/UPPER LIMIT OF NORMAL", "0.6", "DERIVED", "CLINICAL STUDY SPONSOR"], ["CDISCPILOT01", "LB", "01-705-1018", "LBSEQ", "31", "LBTMSHI", "LAB RESULT/UPPER LIMIT OF NORMAL", "1.0", "DERIVED", "CLINICAL STUDY SPONSOR"], ["CDISCPILOT01", "LB", "01-705-1018", "LBSEQ", "32", "LBTMSHI", "LAB RESULT/UPPER LIMIT OF NORMAL", "0.6", "DERIVED", "CLINICAL STUDY SPONSOR"], ["CDISCPILOT01", "LB", "01-705-1018", "LBSEQ", "35", "LBTMSHI", "LAB RESULT/UPPER LIMIT OF NORMAL", "0.3", "DERIVED", "CLINICAL STUDY SPONSOR"], ["CDISCPILOT01", "LB", "01-705-1031", "LBSEQ", "27", "LBTMSHI", "LAB RESULT/UPPER LIMIT OF NORMAL", "0.6", "DERIVED", "CLINICAL STUDY SPONSOR"], ["CDISCPILOT01", "LB", "01-705-1031", "LBSEQ", "32", "LBTMSHI", "LAB RESULT/UPPER LIMIT OF NORMAL", "1.0", "DERIVED", "CLINICAL STUDY SPONSOR"], ["CDISCPILOT01", "LB", "01-705-1031", "LBSEQ", "33", "LBTMSHI", "LAB RESULT/UPPER LIMIT OF NORMAL", "0.1", "DERIVED", "CLINICAL STUDY SPONSOR"], ["CDISCPILOT01", "LB", "01-705-1031", "LBSEQ", "36", "LBTMSHI", "LAB RESULT/UPPER LIMIT OF NORMAL", "0.4", "DERIVED", "CLINICAL STUDY SPONSOR"], ["CDISCPILOT01", "LB", "01-705-1031", "LBSEQ", "64", "LBTMSHI", "LAB RESULT/UPPER LIMIT OF NORMAL", "0.8", "DERIVED", "CLINICAL STUDY SPONSOR"], ["CDISCPILOT01", "LB", "01-705-1031", "LBSEQ", "69", "LBTMSHI", "LAB RESULT/UPPER LIMIT OF NORMAL", "1.0", "DERIVED", "CLINICAL STUDY SPONSOR"], ["CDISCPILOT01", "LB", "01-705-1031", "LBSEQ", "187", "LBTMSHI", "LAB RESULT/UPPER LIMIT OF NORMAL", "0.6", "DERIVED", "CLINICAL STUDY SPONSOR"], ["CDISCPILOT01", "LB", "01-705-1031", "LBSEQ", "192", "LBTMSHI", "LAB RESULT/UPPER LIMIT OF NORMAL", "1.0", "DERIVED", "CLINICAL STUDY SPONSOR"], ["CDISCPILOT01", "LB", "01-705-1031", "LBSEQ", "283", "ENDPOINT", "ENDPOINT VALUE FLAG", "Y", "DERIVED", "CLINICAL STUDY SPONSOR"], ["CDISCPILOT01", "LB", "01-705-1031", "LBSEQ", "283", "LBTMSHI", "LAB RESULT/UPPER LIMIT OF NORMAL", "0.6", "DERIVED", "CLINICAL STUDY SPONSOR"], ["CDISCPILOT01", "LB", "01-705-1031", "LBSEQ", "288", "ENDPOINT", "ENDPOINT VALUE FLAG", "Y", "DERIVED", "CLINICAL STUDY SPONSOR"], ["CDISCPILOT01", "LB", "01-705-1031", "LBSEQ", "288", "LBTMSHI", "LAB RESULT/UPPER LIMIT OF NORMAL", "1.0", "DERIVED", "CLINICAL STUDY SPONSOR"], ["CDISCPILOT01", "LB", "01-705-1059", "LBSEQ", "28", "LBTMSHI", "LAB RESULT/UPPER LIMIT OF NORMAL", "0.6", "DERIVED", "CLINICAL STUDY SPONSOR"], ["CDISCPILOT01", "LB", "01-705-1059", "LBSEQ", "33", "LBTMSHI", "LAB RESULT/UPPER LIMIT OF NORMAL", "1.0", "DERIVED", "CLINICAL STUDY SPONSOR"], ["CDISCPILOT01", "LB", "01-705-1059", "LBSEQ", "34", "LBTMSHI", "LAB RESULT/UPPER LIMIT OF NORMAL", "0.2", "DERIVED", "CLINICAL STUDY SPONSOR"], ["CDISCPILOT01", "LB", "01-705-1059", "LBSEQ", "37", "LBTMSHI", "LAB RESULT/UPPER LIMIT OF NORMAL", "0.6", "DERIVED", "CLINICAL STUDY SPONSOR"], ["CDISCPILOT01", "LB", "01-705-1059", "LBSEQ", "65", "LBTMSHI", "LAB RESULT/UPPER LIMIT OF NORMAL", "0.6", "DERIVED", "CLINICAL STUDY SPONSOR"], ["CDISCPILOT01", "LB", "01-705-1059", "LBSEQ", "70", "LBTMSHI", "LAB RESULT/UPPER LIMIT OF NORMAL", "1.0", "DERIVED", "CLINICAL STUDY SPONSOR"], ["CDISCPILOT01", "LB", "01-705-1059", "LBSEQ", "161", "LBTMSHI", "LAB RESULT/UPPER LIMIT OF NORMAL", "0.6", "DERIVED", "CLINICAL STUDY SPONSOR"], ["CDISCPILOT01", "LB", "01-705-1059", "LBSEQ", "166", "LBTMSHI", "LAB RESULT/UPPER LIMIT OF NORMAL", "1.0", "DERIVED", "CLINICAL STUDY SPONSOR"], ["CDISCPILOT01", "LB", "01-705-1059", "LBSEQ", "196", "LBTMSHI", "LAB RESULT/UPPER LIMIT OF NORMAL", "0.6", "DERIVED", "CLINICAL STUDY SPONSOR"], ["CDISCPILOT01", "LB", "01-705-1059", "LBSEQ", "201", "LBTMSHI", "LAB RESULT/UPPER LIMIT OF NORMAL", "1.0", "DERIVED", "CLINICAL STUDY SPONSOR"], ["CDISCPILOT01", "LB", "01-705-1059", "LBSEQ", "233", "ENDPOINT", "ENDPOINT VALUE FLAG", "Y", "DERIVED", "CLINICAL STUDY SPONSOR"], ["CDISCPILOT01", "LB", "01-705-1059", "LBSEQ", "233", "LBTMSHI", "LAB RESULT/UPPER LIMIT OF NORMAL", "0.8", "DERIVED", "CLINICAL STUDY SPONSOR"], ["CDISCPILOT01", "LB", "01-705-1059", "LBSEQ", "238", "ENDPOINT", "ENDPOINT VALUE FLAG", "Y", "DERIVED", "CLINICAL STUDY SPONSOR"], ["CDISCPILOT01", "LB", "01-705-1059", "LBSEQ", "238", "LBTMSHI", "LAB RESULT/UPPER LIMIT OF NORMAL", "1.0", "DERIVED", "CLINICAL STUDY SPONSOR"], ["CDISCPILOT01", "LB", "01-705-1186", "LBSEQ", "27", "LBTMSHI", "LAB RESULT/UPPER LIMIT OF NORMAL", "0.6", "DERIVED", "CLINICAL STUDY SPONSOR"], ["CDISCPILOT01", "LB", "01-705-1186", "LBSEQ", "32", "LBTMSHI", "LAB RESULT/UPPER LIMIT OF NORMAL", "1.0", "DERIVED", "CLINICAL STUDY SPONSOR"], ["CDISCPILOT01", "LB", "01-705-1186", "LBSEQ", "33", "LBTMSHI", "LAB RESULT/UPPER LIMIT OF NORMAL", "0.2", "DERIVED", "CLINICAL STUDY SPONSOR"], ["CDISCPILOT01", "LB", "01-705-1186", "LBSEQ", "36", "LBTMSHI", "LAB RESULT/UPPER LIMIT OF NORMAL", "0.7", "DERIVED", "CLINICAL STUDY SPONSOR"], ["CDISCPILOT01", "LB", "01-705-1186", "LBSEQ", "65", "LBTMSHI", "LAB RESULT/UPPER LIMIT OF NORMAL", "0.8", "DERIVED", "CLINICAL STUDY SPONSOR"], ["CDISCPILOT01", "LB", "01-705-1186", "LBSEQ", "70", "LBTMSHI", "LAB RESULT/UPPER LIMIT OF NORMAL", "1.0", "DERIVED", "CLINICAL STUDY SPONSOR"], ["CDISCPILOT01", "LB", "01-705-1186", "LBSEQ", "101", "LBTMSHI", "LAB RESULT/UPPER LIMIT OF NORMAL", "0.8", "DERIVED", "CLINICAL STUDY SPONSOR"], ["CDISCPILOT01", "LB", "01-705-1186", "LBSEQ", "106", "LBTMSHI", "LAB RESULT/UPPER LIMIT OF NORMAL", "1.0", "DERIVED", "CLINICAL STUDY SPONSOR"], ["CDISCPILOT01", "LB", "01-705-1186", "LBSEQ", "151", "ENDPOINT", "ENDPOINT VALUE FLAG", "Y", "DERIVED", "CLINICAL STUDY SPONSOR"], ["CDISCPILOT01", "LB", "01-705-1186", "LBSEQ", "151", "LBTMSHI", "LAB RESULT/UPPER LIMIT OF NORMAL", "0.6", "DERIVED", "CLINICAL STUDY SPONSOR"], ["CDISCPILOT01", "LB", "01-705-1186", "LBSEQ", "156", "ENDPOINT", "ENDPOINT VALUE FLAG", "Y", "DERIVED", "CLINICAL STUDY SPONSOR"], ["CDISCPILOT01", "LB", "01-705-1186", "LBSEQ", "156", "LBTMSHI", "LAB RESULT/UPPER LIMIT OF NORMAL", "1.0", "DERIVED", "CLINICAL STUDY SPONSOR"], ["CDISCPILOT01", "LB", "01-705-1186", "LBSEQ", "187", "LBTMSHI", "LAB RESULT/UPPER LIMIT OF NORMAL", "0.6", "DERIVED", "CLINICAL STUDY SPONSOR"], ["CDISCPILOT01", "LB", "01-705-1186", "LBSEQ", "193", "LBTMSHI", "LAB RESULT/UPPER LIMIT OF NORMAL", "1.0", "DERIVED", "CLINICAL STUDY SPONSOR"], ["CDISCPILOT01", "LB", "01-705-1186", "LBSEQ", "196", "LBTMSHI", "LAB RESULT/UPPER LIMIT OF NORMAL", "0.7", "DERIVED", "CLINICAL STUDY SPONSOR"], ["CDISCPILOT01", "LB", "01-705-1199", "LBSEQ", "27", "LBTMSHI", "LAB RESULT/UPPER LIMIT OF NORMAL", "0.6", "DERIVED", "CLINICAL STUDY SPONSOR"], ["CDISCPILOT01", "LB", "01-705-1199", "LBSEQ", "32", "LBTMSHI", "LAB RESULT/UPPER LIMIT OF NORMAL", "1.0", "DERIVED", "CLINICAL STUDY SPONSOR"], ["CDISCPILOT01", "LB", "01-705-1199", "LBSEQ", "33", "LBTMSHI", "LAB RESULT/UPPER LIMIT OF NORMAL", "0.5", "DERIVED", "CLINICAL STUDY SPONSOR"], ["CDISCPILOT01", "LB", "01-705-1199", "LBSEQ", "36", "LBTMSHI", "LAB RESULT/UPPER LIMIT OF NORMAL", "0.3", "DERIVED", "CLINICAL STUDY SPONSOR"], ["CDISCPILOT01", "LB", "01-705-1199", "LBSEQ", "64", "ENDPOINT", "ENDPOINT VALUE FLAG", "Y", "DERIVED", "CLINICAL STUDY SPONSOR"], ["CDISCPILOT01", "LB", "01-705-1199", "LBSEQ", "64", "LBTMSHI", "LAB RESULT/UPPER LIMIT OF NORMAL", "0.6", "DERIVED", "CLINICAL STUDY SPONSOR"], ["CDISCPILOT01", "LB", "01-705-1199", "LBSEQ", "69", "ENDPOINT", "ENDPOINT VALUE FLAG", "Y", "DERIVED", "CLINICAL STUDY SPONSOR"], ["CDISCPILOT01", "LB", "01-705-1199", "LBSEQ", "69", "LBTMSHI", "LAB RESULT/UPPER LIMIT OF NORMAL", "1.0", "DERIVED", "CLINICAL STUDY SPONSOR"], ["CDISCPILOT01", "LB", "01-705-1280", "LBSEQ", "27", "LBTMSHI", "LAB RESULT/UPPER LIMIT OF NORMAL", "0.6", "DERIVED", "CLINICAL STUDY SPONSOR"], ["CDISCPILOT01", "LB", "01-705-1280", "LBSEQ", "32", "LBTMSHI", "LAB RESULT/UPPER LIMIT OF NORMAL", "1.0", "DERIVED", "CLINICAL STUDY SPONSOR"], ["CDISCPILOT01", "LB", "01-705-1280", "LBSEQ", "33", "LBTMSHI", "LAB RESULT/UPPER LIMIT OF NORMAL", "0.3", "DERIVED", "CLINICAL STUDY SPONSOR"], ["CDISCPILOT01", "LB", "01-705-1280", "LBSEQ", "36", "LBTMSHI", "LAB RESULT/UPPER LIMIT OF NORMAL", "0.5", "DERIVED", "CLINICAL STUDY SPONSOR"], ["CDISCPILOT01", "LB", "01-705-1280", "LBSEQ", "64", "LBTMSHI", "LAB RESULT/UPPER LIMIT OF NORMAL", "0.6", "DERIVED", "CLINICAL STUDY SPONSOR"], ["CDISCPILOT01", "LB", "01-705-1280", "LBSEQ", "69", "LBTMSHI", "LAB RESULT/UPPER LIMIT OF NORMAL", "1.0", "DERIVED", "CLINICAL STUDY SPONSOR"], ["CDISCPILOT01", "LB", "01-705-1280", "LBSEQ", "177", "LBTMSHI", "LAB RESULT/UPPER LIMIT OF NORMAL", "0.6", "DERIVED", "CLINICAL STUDY SPONSOR"], ["CDISCPILOT01", "LB", "01-705-1280", "LBSEQ", "182", "LBTMSHI", "LAB RESULT/UPPER LIMIT OF NORMAL", "1.0", "DERIVED", "CLINICAL STUDY SPONSOR"], ["CDISCPILOT01", "LB", "01-705-1280", "LBSEQ", "272", "ENDPOINT", "ENDPOINT VALUE FLAG", "Y", "DERIVED", "CLINICAL STUDY SPONSOR"], ["CDISCPILOT01", "LB", "01-705-1280", "LBSEQ", "272", "LBTMSHI", "LAB RESULT/UPPER LIMIT OF NORMAL", "0.6", "DERIVED", "CLINICAL STUDY SPONSOR"], ["CDISCPILOT01", "LB", "01-705-1280", "LBSEQ", "277", "ENDPOINT", "ENDPOINT VALUE FLAG", "Y", "DERIVED", "CLINICAL STUDY SPONSOR"], ["CDISCPILOT01", "LB", "01-705-1280", "LBSEQ", "277", "LBTMSHI", "LAB RESULT/UPPER LIMIT OF NORMAL", "1.0", "DERIVED", "CLINICAL STUDY SPONSOR"], ["CDISCPILOT01", "LB", "01-705-1280", "LBSEQ", "307", "LBTMSHI", "LAB RESULT/UPPER LIMIT OF NORMAL", "0.8", "DERIVED", "CLINICAL STUDY SPONSOR"], ["CDISCPILOT01", "LB", "01-705-1280", "LBSEQ", "312", "LBTMSHI", "LAB RESULT/UPPER LIMIT OF NORMAL", "1.0", "DERIVED", "CLINICAL STUDY SPONSOR"], ["CDISCPILOT01", "LB", "01-705-1281", "LBSEQ", "27", "LBTMSHI", "LAB RESULT/UPPER LIMIT OF NORMAL", "0.6", "DERIVED", "CLINICAL STUDY SPONSOR"], ["CDISCPILOT01", "LB", "01-705-1281", "LBSEQ", "32", "LBTMSHI", "LAB RESULT/UPPER LIMIT OF NORMAL", "1.0", "DERIVED", "CLINICAL STUDY SPONSOR"], ["CDISCPILOT01", "LB", "01-705-1281", "LBSEQ", "33", "LBTMSHI", "LAB RESULT/UPPER LIMIT OF NORMAL", "0.5", "DERIVED", "CLINICAL STUDY SPONSOR"], ["CDISCPILOT01", "LB", "01-705-1281", "LBSEQ", "36", "LBTMSHI", "LAB RESULT/UPPER LIMIT OF NORMAL", "1.7", "DERIVED", "CLINICAL STUDY SPONSOR"], ["CDISCPILOT01", "LB", "01-705-1281", "LBSEQ", "64", "LBTMSHI", "LAB RESULT/UPPER LIMIT OF NORMAL", "0.6", "DERIVED", "CLINICAL STUDY SPONSOR"], ["CDISCPILOT01", "LB", "01-705-1281", "LBSEQ", "69", "LBTMSHI", "LAB RESULT/UPPER LIMIT OF NORMAL", "1.0", "DERIVED", "CLINICAL STUDY SPONSOR"], ["CDISCPILOT01", "LB", "01-705-1281", "LBSEQ", "189", "LBTMSHI", "LAB RESULT/UPPER LIMIT OF NORMAL", "0.8", "DERIVED", "CLINICAL STUDY SPONSOR"], ["CDISCPILOT01", "LB", "01-705-1281", "LBSEQ", "194", "LBTMSHI", "LAB RESULT/UPPER LIMIT OF NORMAL", "1.0", "DERIVED", "CLINICAL STUDY SPONSOR"], ["CDISCPILOT01", "LB", "01-705-1281", "LBSEQ", "224", "ENDPOINT", "ENDPOINT VALUE FLAG", "Y", "DERIVED", "CLINICAL STUDY SPONSOR"], ["CDISCPILOT01", "LB", "01-705-1281", "LBSEQ", "224", "LBTMSHI", "LAB RESULT/UPPER LIMIT OF NORMAL", "0.6", "DERIVED", "CLINICAL STUDY SPONSOR"], ["CDISCPILOT01", "LB", "01-705-1281", "LBSEQ", "229", "ENDPOINT", "ENDPOINT VALUE FLAG", "Y", "DERIVED", "CLINICAL STUDY SPONSOR"], ["CDISCPILOT01", "LB", "01-705-1281", "LBSEQ", "229", "LBTMSHI", "LAB RESULT/UPPER LIMIT OF NORMAL", "1.0", "DERIVED", "CLINICAL STUDY SPONSOR"], ["CDISCPILOT01", "LB", "01-705-1282", "LBSEQ", "27", "LBTMSHI", "LAB RESULT/UPPER LIMIT OF NORMAL", "0.6", "DERIVED", "CLINICAL STUDY SPONSOR"], ["CDISCPILOT01", "LB", "01-705-1282", "LBSEQ", "32", "LBTMSHI", "LAB RESULT/UPPER LIMIT OF NORMAL", "1.0", "DERIVED", "CLINICAL STUDY SPONSOR"], ["CDISCPILOT01", "LB", "01-705-1282", "LBSEQ", "33", "LBTMSHI", "LAB RESULT/UPPER LIMIT OF NORMAL", "0.3", "DERIVED", "CLINICAL STUDY SPONSOR"], ["CDISCPILOT01", "LB", "01-705-1282", "LBSEQ", "36", "LBTMSHI", "LAB RESULT/UPPER LIMIT OF NORMAL", "0.6", "DERIVED", "CLINICAL STUDY SPONSOR"], ["CDISCPILOT01", "LB", "01-705-1282", "LBSEQ", "64", "LBTMSHI", "LAB RESULT/UPPER LIMIT OF NORMAL", "0.6", "DERIVED", "CLINICAL STUDY SPONSOR"], ["CDISCPILOT01", "LB", "01-705-1282", "LBSEQ", "69", "LBTMSHI", "LAB RESULT/UPPER LIMIT OF NORMAL", "1.0", "DERIVED", "CLINICAL STUDY SPONSOR"], ["CDISCPILOT01", "LB", "01-705-1282", "LBSEQ", "189", "LBTMSHI", "LAB RESULT/UPPER LIMIT OF NORMAL", "0.6", "DERIVED", "CLINICAL STUDY SPONSOR"], ["CDISCPILOT01", "LB", "01-705-1282", "LBSEQ", "194", "LBTMSHI", "LAB RESULT/UPPER LIMIT OF NORMAL", "1.0", "DERIVED", "CLINICAL STUDY SPONSOR"], ["CDISCPILOT01", "LB", "01-705-1282", "LBSEQ", "284", "ENDPOINT", "ENDPOINT VALUE FLAG", "Y", "DERIVED", "CLINICAL STUDY SPONSOR"], ["CDISCPILOT01", "LB", "01-705-1282", "LBSEQ", "284", "LBTMSHI", "LAB RESULT/UPPER LIMIT OF NORMAL", "0.6", "DERIVED", "CLINICAL STUDY SPONSOR"], ["CDISCPILOT01", "LB", "01-705-1282", "LBSEQ", "289", "ENDPOINT", "ENDPOINT VALUE FLAG", "Y", "DERIVED", "CLINICAL STUDY SPONSOR"], ["CDISCPILOT01", "LB", "01-705-1282", "LBSEQ", "289", "LBTMSHI", "LAB RESULT/UPPER LIMIT OF NORMAL", "1.0", "DERIVED", "CLINICAL STUDY SPONSOR"], ["CDISCPILOT01", "LB", "01-705-1292", "LBSEQ", "27", "LBTMSHI", "LAB RESULT/UPPER LIMIT OF NORMAL", "0.6", "DERIVED", "CLINICAL STUDY SPONSOR"], ["CDISCPILOT01", "LB", "01-705-1292", "LBSEQ", "32", "LBTMSHI", "LAB RESULT/UPPER LIMIT OF NORMAL", "1.0", "DERIVED", "CLINICAL STUDY SPONSOR"], ["CDISCPILOT01", "LB", "01-705-1292", "LBSEQ", "33", "LBTMSHI", "LAB RESULT/UPPER LIMIT OF NORMAL", "0.2", "DERIVED", "CLINICAL STUDY SPONSOR"], ["CDISCPILOT01", "LB", "01-705-1292", "LBSEQ", "36", "LBTMSHI", "LAB RESULT/UPPER LIMIT OF NORMAL", "0.9", "DERIVED", "CLINICAL STUDY SPONSOR"], ["CDISCPILOT01", "LB", "01-705-1292", "LBSEQ", "64", "LBTMSHI", "LAB RESULT/UPPER LIMIT OF NORMAL", "0.6", "DERIVED", "CLINICAL STUDY SPONSOR"], ["CDISCPILOT01", "LB", "01-705-1292", "LBSEQ", "69", "LBTMSHI", "LAB RESULT/UPPER LIMIT OF NORMAL", "1.0", "DERIVED", "CLINICAL STUDY SPONSOR"], ["CDISCPILOT01", "LB", "01-705-1292", "LBSEQ", "203", "LBTMSHI", "LAB RESULT/UPPER LIMIT OF NORMAL", "0.6", "DERIVED", "CLINICAL STUDY SPONSOR"], ["CDISCPILOT01", "LB", "01-705-1292", "LBSEQ", "208", "LBTMSHI", "LAB RESULT/UPPER LIMIT OF NORMAL", "1.0", "DERIVED", "CLINICAL STUDY SPONSOR"], ["CDISCPILOT01", "LB", "01-705-1292", "LBSEQ", "281", "ENDPOINT", "ENDPOINT VALUE FLAG", "Y", "DERIVED", "CLINICAL STUDY SPONSOR"], ["CDISCPILOT01", "LB", "01-705-1292", "LBSEQ", "281", "LBTMSHI", "LAB RESULT/UPPER LIMIT OF NORMAL", "0.6", "DERIVED", "CLINICAL STUDY SPONSOR"], ["CDISCPILOT01", "LB", "01-705-1292", "LBSEQ", "286", "ENDPOINT", "ENDPOINT VALUE FLAG", "Y", "DERIVED", "CLINICAL STUDY SPONSOR"], ["CDISCPILOT01", "LB", "01-705-1292", "LBSEQ", "286", "LBTMSHI", "LAB RESULT/UPPER LIMIT OF NORMAL", "1.0", "DERIVED", "CLINICAL STUDY SPONSOR"], ["CDISCPILOT01", "LB", "01-705-1303", "LBSEQ", "28", "LBTMSHI", "LAB RESULT/UPPER LIMIT OF NORMAL", "0.9", "DERIVED", "CLINICAL STUDY SPONSOR"], ["CDISCPILOT01", "LB", "01-705-1303", "LBSEQ", "33", "LBTMSHI", "LAB RESULT/UPPER LIMIT OF NORMAL", "1.0", "DERIVED", "CLINICAL STUDY SPONSOR"], ["CDISCPILOT01", "LB", "01-705-1303", "LBSEQ", "34", "LBTMSHI", "LAB RESULT/UPPER LIMIT OF NORMAL", "0.3", "DERIVED", "CLINICAL STUDY SPONSOR"], ["CDISCPILOT01", "LB", "01-705-1303", "LBSEQ", "37", "LBTMSHI", "LAB RESULT/UPPER LIMIT OF NORMAL", "0.8", "DERIVED", "CLINICAL STUDY SPONSOR"], ["CDISCPILOT01", "LB", "01-705-1303", "LBSEQ", "65", "LBTMSHI", "LAB RESULT/UPPER LIMIT OF NORMAL", "0.8", "DERIVED", "CLINICAL STUDY SPONSOR"], ["CDISCPILOT01", "LB", "01-705-1303", "LBSEQ", "70", "LBTMSHI", "LAB RESULT/UPPER LIMIT OF NORMAL", "1.0", "DERIVED", "CLINICAL STUDY SPONSOR"], ["CDISCPILOT01", "LB", "01-705-1303", "LBSEQ", "190", "LBTMSHI", "LAB RESULT/UPPER LIMIT OF NORMAL", "0.8", "DERIVED", "CLINICAL STUDY SPONSOR"], ["CDISCPILOT01", "LB", "01-705-1303", "LBSEQ", "195", "LBTMSHI", "LAB RESULT/UPPER LIMIT OF NORMAL", "1.0", "DERIVED", "CLINICAL STUDY SPONSOR"], ["CDISCPILOT01", "LB", "01-705-1310", "LBSEQ", "27", "LBTMSHI", "LAB RESULT/UPPER LIMIT OF NORMAL", "0.8", "DERIVED", "CLINICAL STUDY SPONSOR"], ["CDISCPILOT01", "LB", "01-705-1310", "LBSEQ", "32", "LBTMSHI", "LAB RESULT/UPPER LIMIT OF NORMAL", "1.0", "DERIVED", "CLINICAL STUDY SPONSOR"], ["CDISCPILOT01", "LB", "01-705-1310", "LBSEQ", "33", "LBTMSHI", "LAB RESULT/UPPER LIMIT OF NORMAL", "0.4", "DERIVED", "CLINICAL STUDY SPONSOR"], ["CDISCPILOT01", "LB", "01-705-1310", "LBSEQ", "36", "LBTMSHI", "LAB RESULT/UPPER LIMIT OF NORMAL", "0.3", "DERIVED", "CLINICAL STUDY SPONSOR"], ["CDISCPILOT01", "LB", "01-705-1310", "LBSEQ", "64", "LBTMSHI", "LAB RESULT/UPPER LIMIT OF NORMAL", "0.8", "DERIVED", "CLINICAL STUDY SPONSOR"], ["CDISCPILOT01", "LB", "01-705-1310", "LBSEQ", "69", "LBTMSHI", "LAB RESULT/UPPER LIMIT OF NORMAL", "1.0", "DERIVED", "CLINICAL STUDY SPONSOR"], ["CDISCPILOT01", "LB", "01-705-1310", "LBSEQ", "204", "ENDPOINT", "ENDPOINT VALUE FLAG", "Y", "DERIVED", "CLINICAL STUDY SPONSOR"], ["CDISCPILOT01", "LB", "01-705-1310", "LBSEQ", "204", "LBTMSHI", "LAB RESULT/UPPER LIMIT OF NORMAL", "0.6", "DERIVED", "CLINICAL STUDY SPONSOR"], ["CDISCPILOT01", "LB", "01-705-1310", "LBSEQ", "209", "ENDPOINT", "ENDPOINT VALUE FLAG", "Y", "DERIVED", "CLINICAL STUDY SPONSOR"], ["CDISCPILOT01", "LB", "01-705-1310", "LBSEQ", "209", "LBTMSHI", "LAB RESULT/UPPER LIMIT OF NORMAL", "1.0", "DERIVED", "CLINICAL STUDY SPONSOR"], ["CDISCPILOT01", "LB", "01-705-1349", "LBSEQ", "27", "LBTMSHI", "LAB RESULT/UPPER LIMIT OF NORMAL", "0.6", "DERIVED", "CLINICAL STUDY SPONSOR"], ["CDISCPILOT01", "LB", "01-705-1349", "LBSEQ", "32", "LBTMSHI", "LAB RESULT/UPPER LIMIT OF NORMAL", "1.0", "DERIVED", "CLINICAL STUDY SPONSOR"], ["CDISCPILOT01", "LB", "01-705-1349", "LBSEQ", "33", "LBTMSHI", "LAB RESULT/UPPER LIMIT OF NORMAL", "0.4", "DERIVED", "CLINICAL STUDY SPONSOR"], ["CDISCPILOT01", "LB", "01-705-1349", "LBSEQ", "36", "LBTMSHI", "LAB RESULT/UPPER LIMIT OF NORMAL", "0.2", "DERIVED", "CLINICAL STUDY SPONSOR"], ["CDISCPILOT01", "LB", "01-705-1349", "LBSEQ", "55", "LBTMSHI", "LAB RESULT/UPPER LIMIT OF NORMAL", "1.0", "DERIVED", "CLINICAL STUDY SPONSOR"], ["CDISCPILOT01", "LB", "01-705-1349", "LBSEQ", "58", "LBTMSHI", "LAB RESULT/UPPER LIMIT OF NORMAL", "1.0", "DERIVED", "CLINICAL STUDY SPONSOR"], ["CDISCPILOT01", "LB", "01-705-1349", "LBSEQ", "88", "LBTMSHI", "LAB RESULT/UPPER LIMIT OF NORMAL", "0.6", "DERIVED", "CLINICAL STUDY SPONSOR"], ["CDISCPILOT01", "LB", "01-705-1349", "LBSEQ", "93", "LBTMSHI", "LAB RESULT/UPPER LIMIT OF NORMAL", "1.0", "DERIVED", "CLINICAL STUDY SPONSOR"], ["CDISCPILOT01", "LB", "01-705-1349", "LBSEQ", "183", "LBTMSHI", "LAB RESULT/UPPER LIMIT OF NORMAL", "0.8", "DERIVED", "CLINICAL STUDY SPONSOR"], ["CDISCPILOT01", "LB", "01-705-1349", "LBSEQ", "188", "LBTMSHI", "LAB RESULT/UPPER LIMIT OF NORMAL", "1.0", "DERIVED", "CLINICAL STUDY SPONSOR"], ["CDISCPILOT01", "LB", "01-705-1349", "LBSEQ", "278", "ENDPOINT", "ENDPOINT VALUE FLAG", "Y", "DERIVED", "CLINICAL STUDY SPONSOR"], ["CDISCPILOT01", "LB", "01-705-1349", "LBSEQ", "278", "LBTMSHI", "LAB RESULT/UPPER LIMIT OF NORMAL", "0.8", "DERIVED", "CLINICAL STUDY SPONSOR"], ["CDISCPILOT01", "LB", "01-705-1349", "LBSEQ", "283", "ENDPOINT", "ENDPOINT VALUE FLAG", "Y", "DERIVED", "CLINICAL STUDY SPONSOR"], ["CDISCPILOT01", "LB", "01-705-1349", "LBSEQ", "283", "LBTMSHI", "LAB RESULT/UPPER LIMIT OF NORMAL", "1.0", "DERIVED", "CLINICAL STUDY SPONSOR"], ["CDISCPILOT01", "LB", "01-705-1377", "LBSEQ", "24", "LBTMSHI", "LAB RESULT/UPPER LIMIT OF NORMAL", "0.9", "DERIVED", "CLINICAL STUDY SPONSOR"], ["CDISCPILOT01", "LB", "01-705-1377", "LBSEQ", "29", "LBTMSHI", "LAB RESULT/UPPER LIMIT OF NORMAL", "1.0", "DERIVED", "CLINICAL STUDY SPONSOR"], ["CDISCPILOT01", "LB", "01-705-1377", "LBSEQ", "30", "LBTMSHI", "LAB RESULT/UPPER LIMIT OF NORMAL", "0.2", "DERIVED", "CLINICAL STUDY SPONSOR"], ["CDISCPILOT01", "LB", "01-705-1377", "LBSEQ", "33", "LBTMSHI", "LAB RESULT/UPPER LIMIT OF NORMAL", "0.8", "DERIVED", "CLINICAL STUDY SPONSOR"], ["CDISCPILOT01", "LB", "01-705-1377", "LBSEQ", "61", "LBTMSHI", "LAB RESULT/UPPER LIMIT OF NORMAL", "0.6", "DERIVED", "CLINICAL STUDY SPONSOR"], ["CDISCPILOT01", "LB", "01-705-1377", "LBSEQ", "66", "LBTMSHI", "LAB RESULT/UPPER LIMIT OF NORMAL", "1.0", "DERIVED", "CLINICAL STUDY SPONSOR"], ["CDISCPILOT01", "LB", "01-705-1382", "LBSEQ", "27", "LBTMSHI", "LAB RESULT/UPPER LIMIT OF NORMAL", "0.6", "DERIVED", "CLINICAL STUDY SPONSOR"], ["CDISCPILOT01", "LB", "01-705-1382", "LBSEQ", "32", "LBTMSHI", "LAB RESULT/UPPER LIMIT OF NORMAL", "1.0", "DERIVED", "CLINICAL STUDY SPONSOR"], ["CDISCPILOT01", "LB", "01-705-1382", "LBSEQ", "33", "LBTMSHI", "LAB RESULT/UPPER LIMIT OF NORMAL", "0.4", "DERIVED", "CLINICAL STUDY SPONSOR"], ["CDISCPILOT01", "LB", "01-705-1382", "LBSEQ", "36", "LBTMSHI", "LAB RESULT/UPPER LIMIT OF NORMAL", "0.4", "DERIVED", "CLINICAL STUDY SPONSOR"], ["CDISCPILOT01", "LB", "01-705-1393", "LBSEQ", "29", "LBTMSHI", "LAB RESULT/UPPER LIMIT OF NORMAL", "0.8", "DERIVED", "CLINICAL STUDY SPONSOR"], ["CDISCPILOT01", "LB", "01-705-1393", "LBSEQ", "31", "LBTMSHI", "LAB RESULT/UPPER LIMIT OF NORMAL", "0.3", "DERIVED", "CLINICAL STUDY SPONSOR"], ["CDISCPILOT01", "LB", "01-705-1393", "LBSEQ", "59", "LBTMSHI", "LAB RESULT/UPPER LIMIT OF NORMAL", "0.6", "DERIVED", "CLINICAL STUDY SPONSOR"], ["CDISCPILOT01", "LB", "01-705-1393", "LBSEQ", "64", "LBTMSHI", "LAB RESULT/UPPER LIMIT OF NORMAL", "1.0", "DERIVED", "CLINICAL STUDY SPONSOR"], ["CDISCPILOT01", "LB", "01-705-1393", "LBSEQ", "244", "ENDPOINT", "ENDPOINT VALUE FLAG", "Y", "DERIVED", "CLINICAL STUDY SPONSOR"], ["CDISCPILOT01", "LB", "01-705-1393", "LBSEQ", "244", "LBTMSHI", "LAB RESULT/UPPER LIMIT OF NORMAL", "0.6", "DERIVED", "CLINICAL STUDY SPONSOR"], ["CDISCPILOT01", "LB", "01-705-1393", "LBSEQ", "249", "ENDPOINT", "ENDPOINT VALUE FLAG", "Y", "DERIVED", "CLINICAL STUDY SPONSOR"], ["CDISCPILOT01", "LB", "01-705-1393", "LBSEQ", "249", "LBTMSHI", "LAB RESULT/UPPER LIMIT OF NORMAL", "1.0", "DERIVED", "CLINICAL STUDY SPONSOR"], ["CDISCPILOT01", "LB", "01-705-1431", "LBSEQ", "27", "LBTMSHI", "LAB RESULT/UPPER LIMIT OF NORMAL", "0.9", "DERIVED", "CLINICAL STUDY SPONSOR"], ["CDISCPILOT01", "LB", "01-705-1431", "LBSEQ", "32", "LBTMSHI", "LAB RESULT/UPPER LIMIT OF NORMAL", "1.0", "DERIVED", "CLINICAL STUDY SPONSOR"], ["CDISCPILOT01", "LB", "01-705-1431", "LBSEQ", "33", "LBTMSHI", "LAB RESULT/UPPER LIMIT OF NORMAL", "0.4", "DERIVED", "CLINICAL STUDY SPONSOR"], ["CDISCPILOT01", "LB", "01-705-1431", "LBSEQ", "36", "LBTMSHI", "LAB RESULT/UPPER LIMIT OF NORMAL", "0.6", "DERIVED", "CLINICAL STUDY SPONSOR"], ["CDISCPILOT01", "LB", "01-705-1431", "LBSEQ", "64", "LBTMSHI", "LAB RESULT/UPPER LIMIT OF NORMAL", "0.8", "DERIVED", "CLINICAL STUDY SPONSOR"], ["CDISCPILOT01", "LB", "01-705-1431", "LBSEQ", "69", "LBTMSHI", "LAB RESULT/UPPER LIMIT OF NORMAL", "1.0", "DERIVED", "CLINICAL STUDY SPONSOR"], ["CDISCPILOT01", "LB", "01-705-1431", "LBSEQ", "189", "LBTMSHI", "LAB RESULT/UPPER LIMIT OF NORMAL", "0.6", "DERIVED", "CLINICAL STUDY SPONSOR"], ["CDISCPILOT01", "LB", "01-705-1431", "LBSEQ", "194", "LBTMSHI", "LAB RESULT/UPPER LIMIT OF NORMAL", "1.0", "DERIVED", "CLINICAL STUDY SPONSOR"], ["CDISCPILOT01", "LB", "01-705-1431", "LBSEQ", "286", "ENDPOINT", "ENDPOINT VALUE FLAG", "Y", "DERIVED", "CLINICAL STUDY SPONSOR"], ["CDISCPILOT01", "LB", "01-705-1431", "LBSEQ", "286", "LBTMSHI", "LAB RESULT/UPPER LIMIT OF NORMAL", "0.8", "DERIVED", "CLINICAL STUDY SPONSOR"], ["CDISCPILOT01", "LB", "01-705-1431", "LBSEQ", "291", "ENDPOINT", "ENDPOINT VALUE FLAG", "Y", "DERIVED", "CLINICAL STUDY SPONSOR"], ["CDISCPILOT01", "LB", "01-705-1431", "LBSEQ", "291", "LBTMSHI", "LAB RESULT/UPPER LIMIT OF NORMAL", "1.0", "DERIVED", "CLINICAL STUDY SPONSOR"], ["CDISCPILOT01", "LB", "01-706-1041", "LBSEQ", "27", "LBTMSHI", "LAB RESULT/UPPER LIMIT OF NORMAL", "0.6", "DERIVED", "CLINICAL STUDY SPONSOR"], ["CDISCPILOT01", "LB", "01-706-1041", "LBSEQ", "32", "LBTMSHI", "LAB RESULT/UPPER LIMIT OF NORMAL", "1.0", "DERIVED", "CLINICAL STUDY SPONSOR"], ["CDISCPILOT01", "LB", "01-706-1041", "LBSEQ", "33", "LBTMSHI", "LAB RESULT/UPPER LIMIT OF NORMAL", "0.2", "DERIVED", "CLINICAL STUDY SPONSOR"], ["CDISCPILOT01", "LB", "01-706-1041", "LBSEQ", "36", "LBTMSHI", "LAB RESULT/UPPER LIMIT OF NORMAL", "0.5", "DERIVED", "CLINICAL STUDY SPONSOR"], ["CDISCPILOT01", "LB", "01-706-1041", "LBSEQ", "64", "LBTMSHI", "LAB RESULT/UPPER LIMIT OF NORMAL", "0.6", "DERIVED", "CLINICAL STUDY SPONSOR"], ["CDISCPILOT01", "LB", "01-706-1041", "LBSEQ", "69", "LBTMSHI", "LAB RESULT/UPPER LIMIT OF NORMAL", "1.0", "DERIVED", "CLINICAL STUDY SPONSOR"], ["CDISCPILOT01", "LB", "01-706-1041", "LBSEQ", "280", "ENDPOINT", "ENDPOINT VALUE FLAG", "Y", "DERIVED", "CLINICAL STUDY SPONSOR"], ["CDISCPILOT01", "LB", "01-706-1041", "LBSEQ", "280", "LBTMSHI", "LAB RESULT/UPPER LIMIT OF NORMAL", "0.6", "DERIVED", "CLINICAL STUDY SPONSOR"], ["CDISCPILOT01", "LB", "01-706-1041", "LBSEQ", "285", "ENDPOINT", "ENDPOINT VALUE FLAG", "Y", "DERIVED", "CLINICAL STUDY SPONSOR"], ["CDISCPILOT01", "LB", "01-706-1041", "LBSEQ", "285", "LBTMSHI", "LAB RESULT/UPPER LIMIT OF NORMAL", "1.0", "DERIVED", "CLINICAL STUDY SPONSOR"], ["CDISCPILOT01", "LB", "01-706-1041", "LBSEQ", "317", "LBTMSHI", "LAB RESULT/UPPER LIMIT OF NORMAL", "0.0", "DERIVED", "CLINICAL STUDY SPONSOR"], ["CDISCPILOT01", "LB", "01-706-1049", "LBSEQ", "27", "LBTMSHI", "LAB RESULT/UPPER LIMIT OF NORMAL", "0.6", "DERIVED", "CLINICAL STUDY SPONSOR"], ["CDISCPILOT01", "LB", "01-706-1049", "LBSEQ", "32", "LBTMSHI", "LAB RESULT/UPPER LIMIT OF NORMAL", "1.0", "DERIVED", "CLINICAL STUDY SPONSOR"], ["CDISCPILOT01", "LB", "01-706-1049", "LBSEQ", "33", "LBTMSHI", "LAB RESULT/UPPER LIMIT OF NORMAL", "0.3", "DERIVED", "CLINICAL STUDY SPONSOR"], ["CDISCPILOT01", "LB", "01-706-1049", "LBSEQ", "36", "LBTMSHI", "LAB RESULT/UPPER LIMIT OF NORMAL", "0.8", "DERIVED", "CLINICAL STUDY SPONSOR"], ["CDISCPILOT01", "LB", "01-706-1049", "LBSEQ", "64", "LBTMSHI", "LAB RESULT/UPPER LIMIT OF NORMAL", "0.6", "DERIVED", "CLINICAL STUDY SPONSOR"], ["CDISCPILOT01", "LB", "01-706-1049", "LBSEQ", "69", "LBTMSHI", "LAB RESULT/UPPER LIMIT OF NORMAL", "1.0", "DERIVED", "CLINICAL STUDY SPONSOR"], ["CDISCPILOT01", "LB", "01-706-1049", "LBSEQ", "130", "ENDPOINT", "ENDPOINT VALUE FLAG", "Y", "DERIVED", "CLINICAL STUDY SPONSOR"], ["CDISCPILOT01", "LB", "01-706-1049", "LBSEQ", "130", "LBTMSHI", "LAB RESULT/UPPER LIMIT OF NORMAL", "0.6", "DERIVED", "CLINICAL STUDY SPONSOR"], ["CDISCPILOT01", "LB", "01-706-1049", "LBSEQ", "135", "ENDPOINT", "ENDPOINT VALUE FLAG", "Y", "DERIVED", "CLINICAL STUDY SPONSOR"], ["CDISCPILOT01", "LB", "01-706-1049", "LBSEQ", "135", "LBTMSHI", "LAB RESULT/UPPER LIMIT OF NORMAL", "1.0", "DERIVED", "CLINICAL STUDY SPONSOR"], ["CDISCPILOT01", "LB", "01-706-1384", "LBSEQ", "29", "LBTMSHI", "LAB RESULT/UPPER LIMIT OF NORMAL", "0.2", "DERIVED", "CLINICAL STUDY SPONSOR"], ["CDISCPILOT01", "LB", "01-706-1384", "LBSEQ", "31", "LBTMSHI", "LAB RESULT/UPPER LIMIT OF NORMAL", "0.7", "DERIVED", "CLINICAL STUDY SPONSOR"], ["CDISCPILOT01", "LB", "01-706-1384", "LBSEQ", "35", "LBTMSHI", "LAB RESULT/UPPER LIMIT OF NORMAL", "0.6", "DERIVED", "CLINICAL STUDY SPONSOR"], ["CDISCPILOT01", "LB", "01-706-1384", "LBSEQ", "36", "LBTMSHI", "LAB RESULT/UPPER LIMIT OF NORMAL", "1.0", "DERIVED", "CLINICAL STUDY SPONSOR"], ["CDISCPILOT01", "LB", "01-706-1384", "LBSEQ", "64", "ENDPOINT", "ENDPOINT VALUE FLAG", "Y", "DERIVED", "CLINICAL STUDY SPONSOR"], ["CDISCPILOT01", "LB", "01-706-1384", "LBSEQ", "64", "LBTMSHI", "LAB RESULT/UPPER LIMIT OF NORMAL", "0.6", "DERIVED", "CLINICAL STUDY SPONSOR"], ["CDISCPILOT01", "LB", "01-706-1384", "LBSEQ", "69", "ENDPOINT", "ENDPOINT VALUE FLAG", "Y", "DERIVED", "CLINICAL STUDY SPONSOR"], ["CDISCPILOT01", "LB", "01-706-1384", "LBSEQ", "69", "LBTMSHI", "LAB RESULT/UPPER LIMIT OF NORMAL", "1.0", "DERIVED", "CLINICAL STUDY SPONSOR"], ["CDISCPILOT01", "LB", "01-707-1037", "LBSEQ", "27", "LBTMSHI", "LAB RESULT/UPPER LIMIT OF NORMAL", "0.6", "DERIVED", "CLINICAL STUDY SPONSOR"], ["CDISCPILOT01", "LB", "01-707-1037", "LBSEQ", "32", "LBTMSHI", "LAB RESULT/UPPER LIMIT OF NORMAL", "1.0", "DERIVED", "CLINICAL STUDY SPONSOR"], ["CDISCPILOT01", "LB", "01-707-1037", "LBSEQ", "33", "LBTMSHI", "LAB RESULT/UPPER LIMIT OF NORMAL", "0.3", "DERIVED", "CLINICAL STUDY SPONSOR"], ["CDISCPILOT01", "LB", "01-707-1037", "LBSEQ", "36", "LBTMSHI", "LAB RESULT/UPPER LIMIT OF NORMAL", "0.6", "DERIVED", "CLINICAL STUDY SPONSOR"], ["CDISCPILOT01", "LB", "01-707-1037", "LBSEQ", "64", "ENDPOINT", "ENDPOINT VALUE FLAG", "Y", "DERIVED", "CLINICAL STUDY SPONSOR"], ["CDISCPILOT01", "LB", "01-707-1037", "LBSEQ", "64", "LBTMSHI", "LAB RESULT/UPPER LIMIT OF NORMAL", "0.6", "DERIVED", "CLINICAL STUDY SPONSOR"], ["CDISCPILOT01", "LB", "01-707-1037", "LBSEQ", "69", "ENDPOINT", "ENDPOINT VALUE FLAG", "Y", "DERIVED", "CLINICAL STUDY SPONSOR"], ["CDISCPILOT01", "LB", "01-707-1037", "LBSEQ", "69", "LBTMSHI", "LAB RESULT/UPPER LIMIT OF NORMAL", "1.0", "DERIVED", "CLINICAL STUDY SPONSOR"], ["CDISCPILOT01", "LB", "01-707-1206", "LBSEQ", "27", "LBTMSHI", "LAB RESULT/UPPER LIMIT OF NORMAL", "0.6", "DERIVED", "CLINICAL STUDY SPONSOR"], ["CDISCPILOT01", "LB", "01-707-1206", "LBSEQ", "32", "LBTMSHI", "LAB RESULT/UPPER LIMIT OF NORMAL", "1.0", "DERIVED", "CLINICAL STUDY SPONSOR"], ["CDISCPILOT01", "LB", "01-707-1206", "LBSEQ", "33", "LBTMSHI", "LAB RESULT/UPPER LIMIT OF NORMAL", "0.4", "DERIVED", "CLINICAL STUDY SPONSOR"], ["CDISCPILOT01", "LB", "01-707-1206", "LBSEQ", "36", "LBTMSHI", "LAB RESULT/UPPER LIMIT OF NORMAL", "0.4", "DERIVED", "CLINICAL STUDY SPONSOR"], ["CDISCPILOT01", "LB", "01-707-1206", "LBSEQ", "64", "LBTMSHI", "LAB RESULT/UPPER LIMIT OF NORMAL", "0.6", "DERIVED", "CLINICAL STUDY SPONSOR"], ["CDISCPILOT01", "LB", "01-707-1206", "LBSEQ", "69", "LBTMSHI", "LAB RESULT/UPPER LIMIT OF NORMAL", "1.0", "DERIVED", "CLINICAL STUDY SPONSOR"], ["CDISCPILOT01", "LB", "01-707-1206", "LBSEQ", "189", "LBTMSHI", "LAB RESULT/UPPER LIMIT OF NORMAL", "0.6", "DERIVED", "CLINICAL STUDY SPONSOR"], ["CDISCPILOT01", "LB", "01-707-1206", "LBSEQ", "194", "LBTMSHI", "LAB RESULT/UPPER LIMIT OF NORMAL", "1.0", "DERIVED", "CLINICAL STUDY SPONSOR"], ["CDISCPILOT01", "LB", "01-707-1206", "LBSEQ", "284", "ENDPOINT", "ENDPOINT VALUE FLAG", "Y", "DERIVED", "CLINICAL STUDY SPONSOR"], ["CDISCPILOT01", "LB", "01-707-1206", "LBSEQ", "284", "LBTMSHI", "LAB RESULT/UPPER LIMIT OF NORMAL", "0.6", "DERIVED", "CLINICAL STUDY SPONSOR"], ["CDISCPILOT01", "LB", "01-707-1206", "LBSEQ", "289", "ENDPOINT", "ENDPOINT VALUE FLAG", "Y", "DERIVED", "CLINICAL STUDY SPONSOR"], ["CDISCPILOT01", "LB", "01-707-1206", "LBSEQ", "289", "LBTMSHI", "LAB RESULT/UPPER LIMIT OF NORMAL", "1.0", "DERIVED", "CLINICAL STUDY SPONSOR"], ["CDISCPILOT01", "LB", "01-708-1019", "LBSEQ", "27", "LBTMSHI", "LAB RESULT/UPPER LIMIT OF NORMAL", "0.8", "DERIVED", "CLINICAL STUDY SPONSOR"], ["CDISCPILOT01", "LB", "01-708-1019", "LBSEQ", "32", "LBTMSHI", "LAB RESULT/UPPER LIMIT OF NORMAL", "1.0", "DERIVED", "CLINICAL STUDY SPONSOR"], ["CDISCPILOT01", "LB", "01-708-1019", "LBSEQ", "33", "LBTMSHI", "LAB RESULT/UPPER LIMIT OF NORMAL", "0.2", "DERIVED", "CLINICAL STUDY SPONSOR"], ["CDISCPILOT01", "LB", "01-708-1019", "LBSEQ", "36", "LBTMSHI", "LAB RESULT/UPPER LIMIT OF NORMAL", "0.2", "DERIVED", "CLINICAL STUDY SPONSOR"], ["CDISCPILOT01", "LB", "01-708-1019", "LBSEQ", "64", "ENDPOINT", "ENDPOINT VALUE FLAG", "Y", "DERIVED", "CLINICAL STUDY SPONSOR"], ["CDISCPILOT01", "LB", "01-708-1019", "LBSEQ", "64", "LBTMSHI", "LAB RESULT/UPPER LIMIT OF NORMAL", "0.6", "DERIVED", "CLINICAL STUDY SPONSOR"], ["CDISCPILOT01", "LB", "01-708-1019", "LBSEQ", "69", "ENDPOINT", "ENDPOINT VALUE FLAG", "Y", "DERIVED", "CLINICAL STUDY SPONSOR"], ["CDISCPILOT01", "LB", "01-708-1019", "LBSEQ", "69", "LBTMSHI", "LAB RESULT/UPPER LIMIT OF NORMAL", "1.0", "DERIVED", "CLINICAL STUDY SPONSOR"], ["CDISCPILOT01", "LB", "01-708-1032", "LBSEQ", "27", "LBTMSHI", "LAB RESULT/UPPER LIMIT OF NORMAL", "0.6", "DERIVED", "CLINICAL STUDY SPONSOR"], ["CDISCPILOT01", "LB", "01-708-1032", "LBSEQ", "32", "LBTMSHI", "LAB RESULT/UPPER LIMIT OF NORMAL", "1.0", "DERIVED", "CLINICAL STUDY SPONSOR"], ["CDISCPILOT01", "LB", "01-708-1032", "LBSEQ", "33", "LBTMSHI", "LAB RESULT/UPPER LIMIT OF NORMAL", "0.2", "DERIVED", "CLINICAL STUDY SPONSOR"], ["CDISCPILOT01", "LB", "01-708-1032", "LBSEQ", "36", "LBTMSHI", "LAB RESULT/UPPER LIMIT OF NORMAL", "0.6", "DERIVED", "CLINICAL STUDY SPONSOR"], ["CDISCPILOT01", "LB", "01-708-1032", "LBSEQ", "64", "LBTMSHI", "LAB RESULT/UPPER LIMIT OF NORMAL", "0.6", "DERIVED", "CLINICAL STUDY SPONSOR"], ["CDISCPILOT01", "LB", "01-708-1032", "LBSEQ", "68", "LBTMSHI", "LAB RESULT/UPPER LIMIT OF NORMAL", "1.0", "DERIVED", "CLINICAL STUDY SPONSOR"], ["CDISCPILOT01", "LB", "01-708-1032", "LBSEQ", "98", "ENDPOINT", "ENDPOINT VALUE FLAG", "Y", "DERIVED", "CLINICAL STUDY SPONSOR"], ["CDISCPILOT01", "LB", "01-708-1032", "LBSEQ", "98", "LBTMSHI", "LAB RESULT/UPPER LIMIT OF NORMAL", "0.6", "DERIVED", "CLINICAL STUDY SPONSOR"], ["CDISCPILOT01", "LB", "01-708-1032", "LBSEQ", "103", "ENDPOINT", "ENDPOINT VALUE FLAG", "Y", "DERIVED", "CLINICAL STUDY SPONSOR"], ["CDISCPILOT01", "LB", "01-708-1032", "LBSEQ", "103", "LBTMSHI", "LAB RESULT/UPPER LIMIT OF NORMAL", "1.0", "DERIVED", "CLINICAL STUDY SPONSOR"], ["CDISCPILOT01", "LB", "01-708-1084", "LBSEQ", "27", "LBTMSHI", "LAB RESULT/UPPER LIMIT OF NORMAL", "0.9", "DERIVED", "CLINICAL STUDY SPONSOR"], ["CDISCPILOT01", "LB", "01-708-1084", "LBSEQ", "32", "LBTMSHI", "LAB RESULT/UPPER LIMIT OF NORMAL", "1.0", "DERIVED", "CLINICAL STUDY SPONSOR"], ["CDISCPILOT01", "LB", "01-708-1084", "LBSEQ", "33", "LBTMSHI", "LAB RESULT/UPPER LIMIT OF NORMAL", "0.4", "DERIVED", "CLINICAL STUDY SPONSOR"], ["CDISCPILOT01", "LB", "01-708-1084", "LBSEQ", "36", "LBTMSHI", "LAB RESULT/UPPER LIMIT OF NORMAL", "0.4", "DERIVED", "CLINICAL STUDY SPONSOR"], ["CDISCPILOT01", "LB", "01-708-1084", "LBSEQ", "64", "LBTMSHI", "LAB RESULT/UPPER LIMIT OF NORMAL", "0.6", "DERIVED", "CLINICAL STUDY SPONSOR"], ["CDISCPILOT01", "LB", "01-708-1084", "LBSEQ", "69", "LBTMSHI", "LAB RESULT/UPPER LIMIT OF NORMAL", "1.0", "DERIVED", "CLINICAL STUDY SPONSOR"], ["CDISCPILOT01", "LB", "01-708-1084", "LBSEQ", "195", "LBTMSHI", "LAB RESULT/UPPER LIMIT OF NORMAL", "0.8", "DERIVED", "CLINICAL STUDY SPONSOR"], ["CDISCPILOT01", "LB", "01-708-1084", "LBSEQ", "196", "LBTMSHI", "LAB RESULT/UPPER LIMIT OF NORMAL", "1.0", "DERIVED", "CLINICAL STUDY SPONSOR"], ["CDISCPILOT01", "LB", "01-708-1084", "LBSEQ", "284", "ENDPOINT", "ENDPOINT VALUE FLAG", "Y", "DERIVED", "CLINICAL STUDY SPONSOR"], ["CDISCPILOT01", "LB", "01-708-1084", "LBSEQ", "284", "LBTMSHI", "LAB RESULT/UPPER LIMIT OF NORMAL", "0.6", "DERIVED", "CLINICAL STUDY SPONSOR"], ["CDISCPILOT01", "LB", "01-708-1084", "LBSEQ", "289", "ENDPOINT", "ENDPOINT VALUE FLAG", "Y", "DERIVED", "CLINICAL STUDY SPONSOR"], ["CDISCPILOT01", "LB", "01-708-1084", "LBSEQ", "289", "LBTMSHI", "LAB RESULT/UPPER LIMIT OF NORMAL", "1.0", "DERIVED", "CLINICAL STUDY SPONSOR"], ["CDISCPILOT01", "LB", "01-708-1087", "LBSEQ", "27", "LBTMSHI", "LAB RESULT/UPPER LIMIT OF NORMAL", "0.6", "DERIVED", "CLINICAL STUDY SPONSOR"], ["CDISCPILOT01", "LB", "01-708-1087", "LBSEQ", "32", "LBTMSHI", "LAB RESULT/UPPER LIMIT OF NORMAL", "1.0", "DERIVED", "CLINICAL STUDY SPONSOR"], ["CDISCPILOT01", "LB", "01-708-1087", "LBSEQ", "33", "LBTMSHI", "LAB RESULT/UPPER LIMIT OF NORMAL", "0.2", "DERIVED", "CLINICAL STUDY SPONSOR"], ["CDISCPILOT01", "LB", "01-708-1087", "LBSEQ", "36", "LBTMSHI", "LAB RESULT/UPPER LIMIT OF NORMAL", "0.4", "DERIVED", "CLINICAL STUDY SPONSOR"], ["CDISCPILOT01", "LB", "01-708-1087", "LBSEQ", "64", "LBTMSHI", "LAB RESULT/UPPER LIMIT OF NORMAL", "0.6", "DERIVED", "CLINICAL STUDY SPONSOR"], ["CDISCPILOT01", "LB", "01-708-1087", "LBSEQ", "69", "LBTMSHI", "LAB RESULT/UPPER LIMIT OF NORMAL", "1.0", "DERIVED", "CLINICAL STUDY SPONSOR"], ["CDISCPILOT01", "LB", "01-708-1087", "LBSEQ", "189", "LBTMSHI", "LAB RESULT/UPPER LIMIT OF NORMAL", "0.6", "DERIVED", "CLINICAL STUDY SPONSOR"], ["CDISCPILOT01", "LB", "01-708-1087", "LBSEQ", "194", "LBTMSHI", "LAB RESULT/UPPER LIMIT OF NORMAL", "1.0", "DERIVED", "CLINICAL STUDY SPONSOR"], ["CDISCPILOT01", "LB", "01-708-1087", "LBSEQ", "285", "ENDPOINT", "ENDPOINT VALUE FLAG", "Y", "DERIVED", "CLINICAL STUDY SPONSOR"], ["CDISCPILOT01", "LB", "01-708-1087", "LBSEQ", "285", "LBTMSHI", "LAB RESULT/UPPER LIMIT OF NORMAL", "0.6", "DERIVED", "CLINICAL STUDY SPONSOR"], ["CDISCPILOT01", "LB", "01-708-1087", "LBSEQ", "290", "ENDPOINT", "ENDPOINT VALUE FLAG", "Y", "DERIVED", "CLINICAL STUDY SPONSOR"], ["CDISCPILOT01", "LB", "01-708-1087", "LBSEQ", "290", "LBTMSHI", "LAB RESULT/UPPER LIMIT OF NORMAL", "1.0", "DERIVED", "CLINICAL STUDY SPONSOR"], ["CDISCPILOT01", "LB", "01-708-1158", "LBSEQ", "27", "LBTMSHI", "LAB RESULT/UPPER LIMIT OF NORMAL", "0.6", "DERIVED", "CLINICAL STUDY SPONSOR"], ["CDISCPILOT01", "LB", "01-708-1158", "LBSEQ", "32", "LBTMSHI", "LAB RESULT/UPPER LIMIT OF NORMAL", "1.0", "DERIVED", "CLINICAL STUDY SPONSOR"], ["CDISCPILOT01", "LB", "01-708-1158", "LBSEQ", "33", "LBTMSHI", "LAB RESULT/UPPER LIMIT OF NORMAL", "0.3", "DERIVED", "CLINICAL STUDY SPONSOR"], ["CDISCPILOT01", "LB", "01-708-1158", "LBSEQ", "36", "LBTMSHI", "LAB RESULT/UPPER LIMIT OF NORMAL", "0.2", "DERIVED", "CLINICAL STUDY SPONSOR"], ["CDISCPILOT01", "LB", "01-708-1158", "LBSEQ", "66", "LBTMSHI", "LAB RESULT/UPPER LIMIT OF NORMAL", "0.9", "DERIVED", "CLINICAL STUDY SPONSOR"], ["CDISCPILOT01", "LB", "01-708-1158", "LBSEQ", "69", "LBTMSHI", "LAB RESULT/UPPER LIMIT OF NORMAL", "0.5", "DERIVED", "CLINICAL STUDY SPONSOR"], ["CDISCPILOT01", "LB", "01-708-1158", "LBSEQ", "96", "LBTMSHI", "LAB RESULT/UPPER LIMIT OF NORMAL", "0.6", "DERIVED", "CLINICAL STUDY SPONSOR"], ["CDISCPILOT01", "LB", "01-708-1158", "LBSEQ", "101", "LBTMSHI", "LAB RESULT/UPPER LIMIT OF NORMAL", "1.0", "DERIVED", "CLINICAL STUDY SPONSOR"], ["CDISCPILOT01", "LB", "01-708-1158", "LBSEQ", "161", "ENDPOINT", "ENDPOINT VALUE FLAG", "Y", "DERIVED", "CLINICAL STUDY SPONSOR"], ["CDISCPILOT01", "LB", "01-708-1158", "LBSEQ", "161", "LBTMSHI", "LAB RESULT/UPPER LIMIT OF NORMAL", "0.6", "DERIVED", "CLINICAL STUDY SPONSOR"], ["CDISCPILOT01", "LB", "01-708-1158", "LBSEQ", "166", "ENDPOINT", "ENDPOINT VALUE FLAG", "Y", "DERIVED", "CLINICAL STUDY SPONSOR"], ["CDISCPILOT01", "LB", "01-708-1158", "LBSEQ", "166", "LBTMSHI", "LAB RESULT/UPPER LIMIT OF NORMAL", "1.0", "DERIVED", "CLINICAL STUDY SPONSOR"], ["CDISCPILOT01", "LB", "01-708-1171", "LBSEQ", "29", "LBTMSHI", "LAB RESULT/UPPER LIMIT OF NORMAL", "0.2", "DERIVED", "CLINICAL STUDY SPONSOR"], ["CDISCPILOT01", "LB", "01-708-1171", "LBSEQ", "31", "LBTMSHI", "LAB RESULT/UPPER LIMIT OF NORMAL", "0.7", "DERIVED", "CLINICAL STUDY SPONSOR"], ["CDISCPILOT01", "LB", "01-708-1171", "LBSEQ", "59", "LBTMSHI", "LAB RESULT/UPPER LIMIT OF NORMAL", "0.8", "DERIVED", "CLINICAL STUDY SPONSOR"], ["CDISCPILOT01", "LB", "01-708-1171", "LBSEQ", "64", "LBTMSHI", "LAB RESULT/UPPER LIMIT OF NORMAL", "1.0", "DERIVED", "CLINICAL STUDY SPONSOR"], ["CDISCPILOT01", "LB", "01-708-1171", "LBSEQ", "94", "LBTMSHI", "LAB RESULT/UPPER LIMIT OF NORMAL", "0.6", "DERIVED", "CLINICAL STUDY SPONSOR"], ["CDISCPILOT01", "LB", "01-708-1171", "LBSEQ", "99", "LBTMSHI", "LAB RESULT/UPPER LIMIT OF NORMAL", "1.0", "DERIVED", "CLINICAL STUDY SPONSOR"], ["CDISCPILOT01", "LB", "01-708-1171", "LBSEQ", "189", "LBTMSHI", "LAB RESULT/UPPER LIMIT OF NORMAL", "0.6", "DERIVED", "CLINICAL STUDY SPONSOR"], ["CDISCPILOT01", "LB", "01-708-1171", "LBSEQ", "194", "LBTMSHI", "LAB RESULT/UPPER LIMIT OF NORMAL", "1.0", "DERIVED", "CLINICAL STUDY SPONSOR"], ["CDISCPILOT01", "LB", "01-708-1171", "LBSEQ", "284", "ENDPOINT", "ENDPOINT VALUE FLAG", "Y", "DERIVED", "CLINICAL STUDY SPONSOR"], ["CDISCPILOT01", "LB", "01-708-1171", "LBSEQ", "284", "LBTMSHI", "LAB RESULT/UPPER LIMIT OF NORMAL", "0.6", "DERIVED", "CLINICAL STUDY SPONSOR"], ["CDISCPILOT01", "LB", "01-708-1171", "LBSEQ", "289", "ENDPOINT", "ENDPOINT VALUE FLAG", "Y", "DERIVED", "CLINICAL STUDY SPONSOR"], ["CDISCPILOT01", "LB", "01-708-1171", "LBSEQ", "289", "LBTMSHI", "LAB RESULT/UPPER LIMIT OF NORMAL", "1.0", "DERIVED", "CLINICAL STUDY SPONSOR"], ["CDISCPILOT01", "LB", "01-708-1178", "LBSEQ", "27", "LBTMSHI", "LAB RESULT/UPPER LIMIT OF NORMAL", "0.6", "DERIVED", "CLINICAL STUDY SPONSOR"], ["CDISCPILOT01", "LB", "01-708-1178", "LBSEQ", "32", "LBTMSHI", "LAB RESULT/UPPER LIMIT OF NORMAL", "1.0", "DERIVED", "CLINICAL STUDY SPONSOR"], ["CDISCPILOT01", "LB", "01-708-1178", "LBSEQ", "33", "LBTMSHI", "LAB RESULT/UPPER LIMIT OF NORMAL", "0.1", "DERIVED", "CLINICAL STUDY SPONSOR"], ["CDISCPILOT01", "LB", "01-708-1178", "LBSEQ", "36", "LBTMSHI", "LAB RESULT/UPPER LIMIT OF NORMAL", "0.4", "DERIVED", "CLINICAL STUDY SPONSOR"], ["CDISCPILOT01", "LB", "01-708-1178", "LBSEQ", "88", "LBTMSHI", "LAB RESULT/UPPER LIMIT OF NORMAL", "0.8", "DERIVED", "CLINICAL STUDY SPONSOR"], ["CDISCPILOT01", "LB", "01-708-1178", "LBSEQ", "93", "LBTMSHI", "LAB RESULT/UPPER LIMIT OF NORMAL", "1.0", "DERIVED", "CLINICAL STUDY SPONSOR"], ["CDISCPILOT01", "LB", "01-708-1178", "LBSEQ", "214", "ENDPOINT", "ENDPOINT VALUE FLAG", "Y", "DERIVED", "CLINICAL STUDY SPONSOR"], ["CDISCPILOT01", "LB", "01-708-1178", "LBSEQ", "214", "LBTMSHI", "LAB RESULT/UPPER LIMIT OF NORMAL", "0.6", "DERIVED", "CLINICAL STUDY SPONSOR"], ["CDISCPILOT01", "LB", "01-708-1178", "LBSEQ", "219", "ENDPOINT", "ENDPOINT VALUE FLAG", "Y", "DERIVED", "CLINICAL STUDY SPONSOR"], ["CDISCPILOT01", "LB", "01-708-1178", "LBSEQ", "219", "LBTMSHI", "LAB RESULT/UPPER LIMIT OF NORMAL", "1.0", "DERIVED", "CLINICAL STUDY SPONSOR"], ["CDISCPILOT01", "LB", "01-708-1213", "LBSEQ", "27", "LBTMSHI", "LAB RESULT/UPPER LIMIT OF NORMAL", "0.6", "DERIVED", "CLINICAL STUDY SPONSOR"], ["CDISCPILOT01", "LB", "01-708-1213", "LBSEQ", "32", "LBTMSHI", "LAB RESULT/UPPER LIMIT OF NORMAL", "1.0", "DERIVED", "CLINICAL STUDY SPONSOR"], ["CDISCPILOT01", "LB", "01-708-1213", "LBSEQ", "33", "LBTMSHI", "LAB RESULT/UPPER LIMIT OF NORMAL", "0.3", "DERIVED", "CLINICAL STUDY SPONSOR"], ["CDISCPILOT01", "LB", "01-708-1213", "LBSEQ", "36", "LBTMSHI", "LAB RESULT/UPPER LIMIT OF NORMAL", "0.3", "DERIVED", "CLINICAL STUDY SPONSOR"], ["CDISCPILOT01", "LB", "01-708-1213", "LBSEQ", "64", "ENDPOINT", "ENDPOINT VALUE FLAG", "Y", "DERIVED", "CLINICAL STUDY SPONSOR"], ["CDISCPILOT01", "LB", "01-708-1213", "LBSEQ", "64", "LBTMSHI", "LAB RESULT/UPPER LIMIT OF NORMAL", "0.6", "DERIVED", "CLINICAL STUDY SPONSOR"], ["CDISCPILOT01", "LB", "01-708-1213", "LBSEQ", "69", "ENDPOINT", "ENDPOINT VALUE FLAG", "Y", "DERIVED", "CLINICAL STUDY SPONSOR"], ["CDISCPILOT01", "LB", "01-708-1213", "LBSEQ", "69", "LBTMSHI", "LAB RESULT/UPPER LIMIT OF NORMAL", "1.0", "DERIVED", "CLINICAL STUDY SPONSOR"], ["CDISCPILOT01", "LB", "01-708-1216", "LBSEQ", "28", "LBTMSHI", "LAB RESULT/UPPER LIMIT OF NORMAL", "0.6", "DERIVED", "CLINICAL STUDY SPONSOR"], ["CDISCPILOT01", "LB", "01-708-1216", "LBSEQ", "33", "LBTMSHI", "LAB RESULT/UPPER LIMIT OF NORMAL", "1.0", "DERIVED", "CLINICAL STUDY SPONSOR"], ["CDISCPILOT01", "LB", "01-708-1216", "LBSEQ", "34", "LBTMSHI", "LAB RESULT/UPPER LIMIT OF NORMAL", "0.3", "DERIVED", "CLINICAL STUDY SPONSOR"], ["CDISCPILOT01", "LB", "01-708-1216", "LBSEQ", "37", "LBTMSHI", "LAB RESULT/UPPER LIMIT OF NORMAL", "0.2", "DERIVED", "CLINICAL STUDY SPONSOR"], ["CDISCPILOT01", "LB", "01-708-1216", "LBSEQ", "68", "LBTMSHI", "LAB RESULT/UPPER LIMIT OF NORMAL", "0.8", "DERIVED", "CLINICAL STUDY SPONSOR"], ["CDISCPILOT01", "LB", "01-708-1216", "LBSEQ", "75", "LBTMSHI", "LAB RESULT/UPPER LIMIT OF NORMAL", "1.0", "DERIVED", "CLINICAL STUDY SPONSOR"], ["CDISCPILOT01", "LB", "01-708-1216", "LBSEQ", "140", "ENDPOINT", "ENDPOINT VALUE FLAG", "Y", "DERIVED", "CLINICAL STUDY SPONSOR"], ["CDISCPILOT01", "LB", "01-708-1216", "LBSEQ", "140", "LBTMSHI", "LAB RESULT/UPPER LIMIT OF NORMAL", "0.6", "DERIVED", "CLINICAL STUDY SPONSOR"], ["CDISCPILOT01", "LB", "01-708-1216", "LBSEQ", "146", "ENDPOINT", "ENDPOINT VALUE FLAG", "Y", "DERIVED", "CLINICAL STUDY SPONSOR"], ["CDISCPILOT01", "LB", "01-708-1216", "LBSEQ", "146", "LBTMSHI", "LAB RESULT/UPPER LIMIT OF NORMAL", "1.0", "DERIVED", "CLINICAL STUDY SPONSOR"], ["CDISCPILOT01", "LB", "01-708-1236", "LBSEQ", "26", "LBTMSHI", "LAB RESULT/UPPER LIMIT OF NORMAL", "0.8", "DERIVED", "CLINICAL STUDY SPONSOR"], ["CDISCPILOT01", "LB", "01-708-1236", "LBSEQ", "30", "LBTMSHI", "LAB RESULT/UPPER LIMIT OF NORMAL", "1.0", "DERIVED", "CLINICAL STUDY SPONSOR"], ["CDISCPILOT01", "LB", "01-708-1236", "LBSEQ", "31", "LBTMSHI", "LAB RESULT/UPPER LIMIT OF NORMAL", "0.2", "DERIVED", "CLINICAL STUDY SPONSOR"], ["CDISCPILOT01", "LB", "01-708-1236", "LBSEQ", "34", "LBTMSHI", "LAB RESULT/UPPER LIMIT OF NORMAL", "0.2", "DERIVED", "CLINICAL STUDY SPONSOR"], ["CDISCPILOT01", "LB", "01-708-1253", "LBSEQ", "27", "LBTMSHI", "LAB RESULT/UPPER LIMIT OF NORMAL", "0.8", "DERIVED", "CLINICAL STUDY SPONSOR"], ["CDISCPILOT01", "LB", "01-708-1253", "LBSEQ", "32", "LBTMSHI", "LAB RESULT/UPPER LIMIT OF NORMAL", "1.0", "DERIVED", "CLINICAL STUDY SPONSOR"], ["CDISCPILOT01", "LB", "01-708-1253", "LBSEQ", "33", "LBTMSHI", "LAB RESULT/UPPER LIMIT OF NORMAL", "0.2", "DERIVED", "CLINICAL STUDY SPONSOR"], ["CDISCPILOT01", "LB", "01-708-1253", "LBSEQ", "36", "LBTMSHI", "LAB RESULT/UPPER LIMIT OF NORMAL", "0.2", "DERIVED", "CLINICAL STUDY SPONSOR"], ["CDISCPILOT01", "LB", "01-708-1253", "LBSEQ", "64", "LBTMSHI", "LAB RESULT/UPPER LIMIT OF NORMAL", "0.6", "DERIVED", "CLINICAL STUDY SPONSOR"], ["CDISCPILOT01", "LB", "01-708-1253", "LBSEQ", "69", "LBTMSHI", "LAB RESULT/UPPER LIMIT OF NORMAL", "1.0", "DERIVED", "CLINICAL STUDY SPONSOR"], ["CDISCPILOT01", "LB", "01-708-1253", "LBSEQ", "189", "LBTMSHI", "LAB RESULT/UPPER LIMIT OF NORMAL", "0.8", "DERIVED", "CLINICAL STUDY SPONSOR"], ["CDISCPILOT01", "LB", "01-708-1253", "LBSEQ", "194", "LBTMSHI", "LAB RESULT/UPPER LIMIT OF NORMAL", "1.0", "DERIVED", "CLINICAL STUDY SPONSOR"], ["CDISCPILOT01", "LB", "01-708-1253", "LBSEQ", "284", "ENDPOINT", "ENDPOINT VALUE FLAG", "Y", "DERIVED", "CLINICAL STUDY SPONSOR"], ["CDISCPILOT01", "LB", "01-708-1253", "LBSEQ", "284", "LBTMSHI", "LAB RESULT/UPPER LIMIT OF NORMAL", "0.6", "DERIVED", "CLINICAL STUDY SPONSOR"], ["CDISCPILOT01", "LB", "01-708-1253", "LBSEQ", "289", "ENDPOINT", "ENDPOINT VALUE FLAG", "Y", "DERIVED", "CLINICAL STUDY SPONSOR"], ["CDISCPILOT01", "LB", "01-708-1253", "LBSEQ", "289", "LBTMSHI", "LAB RESULT/UPPER LIMIT OF NORMAL", "1.0", "DERIVED", "CLINICAL STUDY SPONSOR"], ["CDISCPILOT01", "LB", "01-708-1272", "LBSEQ", "27", "LBTMSHI", "LAB RESULT/UPPER LIMIT OF NORMAL", "0.6", "DERIVED", "CLINICAL STUDY SPONSOR"], ["CDISCPILOT01", "LB", "01-708-1272", "LBSEQ", "32", "LBTMSHI", "LAB RESULT/UPPER LIMIT OF NORMAL", "1.0", "DERIVED", "CLINICAL STUDY SPONSOR"], ["CDISCPILOT01", "LB", "01-708-1272", "LBSEQ", "33", "LBTMSHI", "LAB RESULT/UPPER LIMIT OF NORMAL", "0.5", "DERIVED", "CLINICAL STUDY SPONSOR"], ["CDISCPILOT01", "LB", "01-708-1272", "LBSEQ", "36", "LBTMSHI", "LAB RESULT/UPPER LIMIT OF NORMAL", "0.7", "DERIVED", "CLINICAL STUDY SPONSOR"], ["CDISCPILOT01", "LB", "01-708-1272", "LBSEQ", "64", "LBTMSHI", "LAB RESULT/UPPER LIMIT OF NORMAL", "0.6", "DERIVED", "CLINICAL STUDY SPONSOR"], ["CDISCPILOT01", "LB", "01-708-1272", "LBSEQ", "69", "LBTMSHI", "LAB RESULT/UPPER LIMIT OF NORMAL", "1.0", "DERIVED", "CLINICAL STUDY SPONSOR"], ["CDISCPILOT01", "LB", "01-708-1272", "LBSEQ", "159", "ENDPOINT", "ENDPOINT VALUE FLAG", "Y", "DERIVED", "CLINICAL STUDY SPONSOR"], ["CDISCPILOT01", "LB", "01-708-1272", "LBSEQ", "159", "LBTMSHI", "LAB RESULT/UPPER LIMIT OF NORMAL", "0.8", "DERIVED", "CLINICAL STUDY SPONSOR"], ["CDISCPILOT01", "LB", "01-708-1272", "LBSEQ", "164", "ENDPOINT", "ENDPOINT VALUE FLAG", "Y", "DERIVED", "CLINICAL STUDY SPONSOR"], ["CDISCPILOT01", "LB", "01-708-1272", "LBSEQ", "164", "LBTMSHI", "LAB RESULT/UPPER LIMIT OF NORMAL", "1.0", "DERIVED", "CLINICAL STUDY SPONSOR"], ["CDISCPILOT01", "LB", "01-708-1286", "LBSEQ", "27", "LBTMSHI", "LAB RESULT/UPPER LIMIT OF NORMAL", "0.6", "DERIVED", "CLINICAL STUDY SPONSOR"], ["CDISCPILOT01", "LB", "01-708-1286", "LBSEQ", "32", "LBTMSHI", "LAB RESULT/UPPER LIMIT OF NORMAL", "1.0", "DERIVED", "CLINICAL STUDY SPONSOR"], ["CDISCPILOT01", "LB", "01-708-1286", "LBSEQ", "33", "LBTMSHI", "LAB RESULT/UPPER LIMIT OF NORMAL", "0.4", "DERIVED", "CLINICAL STUDY SPONSOR"], ["CDISCPILOT01", "LB", "01-708-1286", "LBSEQ", "36", "LBTMSHI", "LAB RESULT/UPPER LIMIT OF NORMAL", "0.3", "DERIVED", "CLINICAL STUDY SPONSOR"], ["CDISCPILOT01", "LB", "01-708-1286", "LBSEQ", "64", "LBTMSHI", "LAB RESULT/UPPER LIMIT OF NORMAL", "0.6", "DERIVED", "CLINICAL STUDY SPONSOR"], ["CDISCPILOT01", "LB", "01-708-1286", "LBSEQ", "69", "LBTMSHI", "LAB RESULT/UPPER LIMIT OF NORMAL", "1.0", "DERIVED", "CLINICAL STUDY SPONSOR"], ["CDISCPILOT01", "LB", "01-708-1286", "LBSEQ", "231", "ENDPOINT", "ENDPOINT VALUE FLAG", "Y", "DERIVED", "CLINICAL STUDY SPONSOR"], ["CDISCPILOT01", "LB", "01-708-1286", "LBSEQ", "231", "LBTMSHI", "LAB RESULT/UPPER LIMIT OF NORMAL", "0.6", "DERIVED", "CLINICAL STUDY SPONSOR"], ["CDISCPILOT01", "LB", "01-708-1286", "LBSEQ", "236", "ENDPOINT", "ENDPOINT VALUE FLAG", "Y", "DERIVED", "CLINICAL STUDY SPONSOR"], ["CDISCPILOT01", "LB", "01-708-1286", "LBSEQ", "236", "LBTMSHI", "LAB RESULT/UPPER LIMIT OF NORMAL", "1.0", "DERIVED", "CLINICAL STUDY SPONSOR"], ["CDISCPILOT01", "LB", "01-708-1296", "LBSEQ", "27", "LBTMSHI", "LAB RESULT/UPPER LIMIT OF NORMAL", "0.9", "DERIVED", "CLINICAL STUDY SPONSOR"], ["CDISCPILOT01", "LB", "01-708-1296", "LBSEQ", "32", "LBTMSHI", "LAB RESULT/UPPER LIMIT OF NORMAL", "1.0", "DERIVED", "CLINICAL STUDY SPONSOR"], ["CDISCPILOT01", "LB", "01-708-1296", "LBSEQ", "33", "LBTMSHI", "LAB RESULT/UPPER LIMIT OF NORMAL", "0.3", "DERIVED", "CLINICAL STUDY SPONSOR"], ["CDISCPILOT01", "LB", "01-708-1296", "LBSEQ", "36", "LBTMSHI", "LAB RESULT/UPPER LIMIT OF NORMAL", "1.0", "DERIVED", "CLINICAL STUDY SPONSOR"], ["CDISCPILOT01", "LB", "01-708-1296", "LBSEQ", "64", "LBTMSHI", "LAB RESULT/UPPER LIMIT OF NORMAL", "0.8", "DERIVED", "CLINICAL STUDY SPONSOR"], ["CDISCPILOT01", "LB", "01-708-1296", "LBSEQ", "69", "LBTMSHI", "LAB RESULT/UPPER LIMIT OF NORMAL", "1.0", "DERIVED", "CLINICAL STUDY SPONSOR"], ["CDISCPILOT01", "LB", "01-708-1296", "LBSEQ", "189", "LBTMSHI", "LAB RESULT/UPPER LIMIT OF NORMAL", "0.8", "DERIVED", "CLINICAL STUDY SPONSOR"], ["CDISCPILOT01", "LB", "01-708-1296", "LBSEQ", "194", "LBTMSHI", "LAB RESULT/UPPER LIMIT OF NORMAL", "1.0", "DERIVED", "CLINICAL STUDY SPONSOR"], ["CDISCPILOT01", "LB", "01-708-1296", "LBSEQ", "285", "ENDPOINT", "ENDPOINT VALUE FLAG", "Y", "DERIVED", "CLINICAL STUDY SPONSOR"], ["CDISCPILOT01", "LB", "01-708-1296", "LBSEQ", "285", "LBTMSHI", "LAB RESULT/UPPER LIMIT OF NORMAL", "0.9", "DERIVED", "CLINICAL STUDY SPONSOR"], ["CDISCPILOT01", "LB", "01-708-1296", "LBSEQ", "290", "ENDPOINT", "ENDPOINT VALUE FLAG", "Y", "DERIVED", "CLINICAL STUDY SPONSOR"], ["CDISCPILOT01", "LB", "01-708-1296", "LBSEQ", "290", "LBTMSHI", "LAB RESULT/UPPER LIMIT OF NORMAL", "1.0", "DERIVED", "CLINICAL STUDY SPONSOR"], ["CDISCPILOT01", "LB", "01-708-1297", "LBSEQ", "27", "LBTMSHI", "LAB RESULT/UPPER LIMIT OF NORMAL", "0.6", "DERIVED", "CLINICAL STUDY SPONSOR"], ["CDISCPILOT01", "LB", "01-708-1297", "LBSEQ", "32", "LBTMSHI", "LAB RESULT/UPPER LIMIT OF NORMAL", "1.0", "DERIVED", "CLINICAL STUDY SPONSOR"], ["CDISCPILOT01", "LB", "01-708-1297", "LBSEQ", "33", "LBTMSHI", "LAB RESULT/UPPER LIMIT OF NORMAL", "0.6", "DERIVED", "CLINICAL STUDY SPONSOR"], ["CDISCPILOT01", "LB", "01-708-1297", "LBSEQ", "36", "LBTMSHI", "LAB RESULT/UPPER LIMIT OF NORMAL", "0.5", "DERIVED", "CLINICAL STUDY SPONSOR"], ["CDISCPILOT01", "LB", "01-708-1297", "LBSEQ", "64", "LBTMSHI", "LAB RESULT/UPPER LIMIT OF NORMAL", "0.6", "DERIVED", "CLINICAL STUDY SPONSOR"], ["CDISCPILOT01", "LB", "01-708-1297", "LBSEQ", "69", "LBTMSHI", "LAB RESULT/UPPER LIMIT OF NORMAL", "1.0", "DERIVED", "CLINICAL STUDY SPONSOR"], ["CDISCPILOT01", "LB", "01-708-1297", "LBSEQ", "189", "LBTMSHI", "LAB RESULT/UPPER LIMIT OF NORMAL", "0.6", "DERIVED", "CLINICAL STUDY SPONSOR"], ["CDISCPILOT01", "LB", "01-708-1297", "LBSEQ", "194", "LBTMSHI", "LAB RESULT/UPPER LIMIT OF NORMAL", "1.0", "DERIVED", "CLINICAL STUDY SPONSOR"], ["CDISCPILOT01", "LB", "01-708-1297", "LBSEQ", "224", "ENDPOINT", "ENDPOINT VALUE FLAG", "Y", "DERIVED", "CLINICAL STUDY SPONSOR"], ["CDISCPILOT01", "LB", "01-708-1297", "LBSEQ", "224", "LBTMSHI", "LAB RESULT/UPPER LIMIT OF NORMAL", "0.6", "DERIVED", "CLINICAL STUDY SPONSOR"], ["CDISCPILOT01", "LB", "01-708-1297", "LBSEQ", "229", "ENDPOINT", "ENDPOINT VALUE FLAG", "Y", "DERIVED", "CLINICAL STUDY SPONSOR"], ["CDISCPILOT01", "LB", "01-708-1297", "LBSEQ", "229", "LBTMSHI", "LAB RESULT/UPPER LIMIT OF NORMAL", "1.0", "DERIVED", "CLINICAL STUDY SPONSOR"], ["CDISCPILOT01", "LB", "01-708-1316", "LBSEQ", "27", "LBTMSHI", "LAB RESULT/UPPER LIMIT OF NORMAL", "0.8", "DERIVED", "CLINICAL STUDY SPONSOR"], ["CDISCPILOT01", "LB", "01-708-1316", "LBSEQ", "32", "LBTMSHI", "LAB RESULT/UPPER LIMIT OF NORMAL", "1.0", "DERIVED", "CLINICAL STUDY SPONSOR"], ["CDISCPILOT01", "LB", "01-708-1316", "LBSEQ", "33", "LBTMSHI", "LAB RESULT/UPPER LIMIT OF NORMAL", "0.2", "DERIVED", "CLINICAL STUDY SPONSOR"], ["CDISCPILOT01", "LB", "01-708-1316", "LBSEQ", "36", "LBTMSHI", "LAB RESULT/UPPER LIMIT OF NORMAL", "0.5", "DERIVED", "CLINICAL STUDY SPONSOR"], ["CDISCPILOT01", "LB", "01-708-1316", "LBSEQ", "64", "LBTMSHI", "LAB RESULT/UPPER LIMIT OF NORMAL", "0.8", "DERIVED", "CLINICAL STUDY SPONSOR"], ["CDISCPILOT01", "LB", "01-708-1316", "LBSEQ", "69", "LBTMSHI", "LAB RESULT/UPPER LIMIT OF NORMAL", "1.0", "DERIVED", "CLINICAL STUDY SPONSOR"], ["CDISCPILOT01", "LB", "01-708-1316", "LBSEQ", "171", "LBTMSHI", "LAB RESULT/UPPER LIMIT OF NORMAL", "0.8", "DERIVED", "CLINICAL STUDY SPONSOR"], ["CDISCPILOT01", "LB", "01-708-1316", "LBSEQ", "176", "LBTMSHI", "LAB RESULT/UPPER LIMIT OF NORMAL", "1.0", "DERIVED", "CLINICAL STUDY SPONSOR"], ["CDISCPILOT01", "LB", "01-708-1316", "LBSEQ", "266", "ENDPOINT", "ENDPOINT VALUE FLAG", "Y", "DERIVED", "CLINICAL STUDY SPONSOR"], ["CDISCPILOT01", "LB", "01-708-1316", "LBSEQ", "266", "LBTMSHI", "LAB RESULT/UPPER LIMIT OF NORMAL", "0.8", "DERIVED", "CLINICAL STUDY SPONSOR"], ["CDISCPILOT01", "LB", "01-708-1316", "LBSEQ", "271", "ENDPOINT", "ENDPOINT VALUE FLAG", "Y", "DERIVED", "CLINICAL STUDY SPONSOR"], ["CDISCPILOT01", "LB", "01-708-1316", "LBSEQ", "271", "LBTMSHI", "LAB RESULT/UPPER LIMIT OF NORMAL", "1.0", "DERIVED", "CLINICAL STUDY SPONSOR"], ["CDISCPILOT01", "LB", "01-708-1336", "LBSEQ", "27", "LBTMSHI", "LAB RESULT/UPPER LIMIT OF NORMAL", "0.6", "DERIVED", "CLINICAL STUDY SPONSOR"], ["CDISCPILOT01", "LB", "01-708-1336", "LBSEQ", "32", "LBTMSHI", "LAB RESULT/UPPER LIMIT OF NORMAL", "1.0", "DERIVED", "CLINICAL STUDY SPONSOR"], ["CDISCPILOT01", "LB", "01-708-1336", "LBSEQ", "33", "LBTMSHI", "LAB RESULT/UPPER LIMIT OF NORMAL", "0.4", "DERIVED", "CLINICAL STUDY SPONSOR"], ["CDISCPILOT01", "LB", "01-708-1336", "LBSEQ", "36", "LBTMSHI", "LAB RESULT/UPPER LIMIT OF NORMAL", "0.3", "DERIVED", "CLINICAL STUDY SPONSOR"], ["CDISCPILOT01", "LB", "01-708-1336", "LBSEQ", "64", "LBTMSHI", "LAB RESULT/UPPER LIMIT OF NORMAL", "0.6", "DERIVED", "CLINICAL STUDY SPONSOR"], ["CDISCPILOT01", "LB", "01-708-1336", "LBSEQ", "69", "LBTMSHI", "LAB RESULT/UPPER LIMIT OF NORMAL", "1.0", "DERIVED", "CLINICAL STUDY SPONSOR"], ["CDISCPILOT01", "LB", "01-708-1336", "LBSEQ", "189", "LBTMSHI", "LAB RESULT/UPPER LIMIT OF NORMAL", "0.6", "DERIVED", "CLINICAL STUDY SPONSOR"], ["CDISCPILOT01", "LB", "01-708-1336", "LBSEQ", "194", "LBTMSHI", "LAB RESULT/UPPER LIMIT OF NORMAL", "1.0", "DERIVED", "CLINICAL STUDY SPONSOR"], ["CDISCPILOT01", "LB", "01-708-1336", "LBSEQ", "284", "ENDPOINT", "ENDPOINT VALUE FLAG", "Y", "DERIVED", "CLINICAL STUDY SPONSOR"], ["CDISCPILOT01", "LB", "01-708-1336", "LBSEQ", "284", "LBTMSHI", "LAB RESULT/UPPER LIMIT OF NORMAL", "0.9", "DERIVED", "CLINICAL STUDY SPONSOR"], ["CDISCPILOT01", "LB", "01-708-1336", "LBSEQ", "289", "ENDPOINT", "ENDPOINT VALUE FLAG", "Y", "DERIVED", "CLINICAL STUDY SPONSOR"], ["CDISCPILOT01", "LB", "01-708-1336", "LBSEQ", "289", "LBTMSHI", "LAB RESULT/UPPER LIMIT OF NORMAL", "1.0", "DERIVED", "CLINICAL STUDY SPONSOR"], ["CDISCPILOT01", "LB", "01-708-1342", "LBSEQ", "27", "LBTMSHI", "LAB RESULT/UPPER LIMIT OF NORMAL", "0.8", "DERIVED", "CLINICAL STUDY SPONSOR"], ["CDISCPILOT01", "LB", "01-708-1342", "LBSEQ", "32", "LBTMSHI", "LAB RESULT/UPPER LIMIT OF NORMAL", "1.0", "DERIVED", "CLINICAL STUDY SPONSOR"], ["CDISCPILOT01", "LB", "01-708-1342", "LBSEQ", "33", "LBTMSHI", "LAB RESULT/UPPER LIMIT OF NORMAL", "0.3", "DERIVED", "CLINICAL STUDY SPONSOR"], ["CDISCPILOT01", "LB", "01-708-1342", "LBSEQ", "36", "LBTMSHI", "LAB RESULT/UPPER LIMIT OF NORMAL", "0.5", "DERIVED", "CLINICAL STUDY SPONSOR"], ["CDISCPILOT01", "LB", "01-708-1342", "LBSEQ", "64", "LBTMSHI", "LAB RESULT/UPPER LIMIT OF NORMAL", "0.6", "DERIVED", "CLINICAL STUDY SPONSOR"], ["CDISCPILOT01", "LB", "01-708-1342", "LBSEQ", "69", "LBTMSHI", "LAB RESULT/UPPER LIMIT OF NORMAL", "1.0", "DERIVED", "CLINICAL STUDY SPONSOR"], ["CDISCPILOT01", "LB", "01-708-1342", "LBSEQ", "192", "LBTMSHI", "LAB RESULT/UPPER LIMIT OF NORMAL", "0.8", "DERIVED", "CLINICAL STUDY SPONSOR"], ["CDISCPILOT01", "LB", "01-708-1342", "LBSEQ", "197", "LBTMSHI", "LAB RESULT/UPPER LIMIT OF NORMAL", "1.0", "DERIVED", "CLINICAL STUDY SPONSOR"], ["CDISCPILOT01", "LB", "01-708-1342", "LBSEQ", "269", "ENDPOINT", "ENDPOINT VALUE FLAG", "Y", "DERIVED", "CLINICAL STUDY SPONSOR"], ["CDISCPILOT01", "LB", "01-708-1342", "LBSEQ", "269", "LBTMSHI", "LAB RESULT/UPPER LIMIT OF NORMAL", "0.6", "DERIVED", "CLINICAL STUDY SPONSOR"], ["CDISCPILOT01", "LB", "01-708-1342", "LBSEQ", "274", "ENDPOINT", "ENDPOINT VALUE FLAG", "Y", "DERIVED", "CLINICAL STUDY SPONSOR"], ["CDISCPILOT01", "LB", "01-708-1342", "LBSEQ", "274", "LBTMSHI", "LAB RESULT/UPPER LIMIT OF NORMAL", "1.0", "DERIVED", "CLINICAL STUDY SPONSOR"], ["CDISCPILOT01", "LB", "01-708-1347", "LBSEQ", "27", "LBTMSHI", "LAB RESULT/UPPER LIMIT OF NORMAL", "0.6", "DERIVED", "CLINICAL STUDY SPONSOR"], ["CDISCPILOT01", "LB", "01-708-1347", "LBSEQ", "32", "LBTMSHI", "LAB RESULT/UPPER LIMIT OF NORMAL", "1.0", "DERIVED", "CLINICAL STUDY SPONSOR"], ["CDISCPILOT01", "LB", "01-708-1347", "LBSEQ", "33", "LBTMSHI", "LAB RESULT/UPPER LIMIT OF NORMAL", "0.7", "DERIVED", "CLINICAL STUDY SPONSOR"], ["CDISCPILOT01", "LB", "01-708-1347", "LBSEQ", "36", "LBTMSHI", "LAB RESULT/UPPER LIMIT OF NORMAL", "0.9", "DERIVED", "CLINICAL STUDY SPONSOR"], ["CDISCPILOT01", "LB", "01-708-1347", "LBSEQ", "64", "LBTMSHI", "LAB RESULT/UPPER LIMIT OF NORMAL", "0.6", "DERIVED", "CLINICAL STUDY SPONSOR"], ["CDISCPILOT01", "LB", "01-708-1347", "LBSEQ", "69", "LBTMSHI", "LAB RESULT/UPPER LIMIT OF NORMAL", "1.0", "DERIVED", "CLINICAL STUDY SPONSOR"], ["CDISCPILOT01", "LB", "01-708-1347", "LBSEQ", "99", "LBTMSHI", "LAB RESULT/UPPER LIMIT OF NORMAL", "0.6", "DERIVED", "CLINICAL STUDY SPONSOR"], ["CDISCPILOT01", "LB", "01-708-1347", "LBSEQ", "104", "LBTMSHI", "LAB RESULT/UPPER LIMIT OF NORMAL", "1.0", "DERIVED", "CLINICAL STUDY SPONSOR"], ["CDISCPILOT01", "LB", "01-708-1347", "LBSEQ", "194", "ENDPOINT", "ENDPOINT VALUE FLAG", "Y", "DERIVED", "CLINICAL STUDY SPONSOR"], ["CDISCPILOT01", "LB", "01-708-1347", "LBSEQ", "194", "LBTMSHI", "LAB RESULT/UPPER LIMIT OF NORMAL", "0.6", "DERIVED", "CLINICAL STUDY SPONSOR"], ["CDISCPILOT01", "LB", "01-708-1347", "LBSEQ", "199", "ENDPOINT", "ENDPOINT VALUE FLAG", "Y", "DERIVED", "CLINICAL STUDY SPONSOR"], ["CDISCPILOT01", "LB", "01-708-1347", "LBSEQ", "199", "LBTMSHI", "LAB RESULT/UPPER LIMIT OF NORMAL", "1.0", "DERIVED", "CLINICAL STUDY SPONSOR"], ["CDISCPILOT01", "LB", "01-708-1348", "LBSEQ", "3", "LBTMSHI", "LAB RESULT/UPPER LIMIT OF NORMAL", "0.6", "DERIVED", "CLINICAL STUDY SPONSOR"], ["CDISCPILOT01", "LB", "01-708-1348", "LBSEQ", "4", "LBTMSHI", "LAB RESULT/UPPER LIMIT OF NORMAL", "1.0", "DERIVED", "CLINICAL STUDY SPONSOR"], ["CDISCPILOT01", "LB", "01-708-1348", "LBSEQ", "6", "LBTMSHI", "LAB RESULT/UPPER LIMIT OF NORMAL", "0.3", "DERIVED", "CLINICAL STUDY SPONSOR"], ["CDISCPILOT01", "LB", "01-708-1348", "LBSEQ", "35", "LBTMSHI", "LAB RESULT/UPPER LIMIT OF NORMAL", "0.8", "DERIVED", "CLINICAL STUDY SPONSOR"], ["CDISCPILOT01", "LB", "01-708-1348", "LBSEQ", "64", "LBTMSHI", "LAB RESULT/UPPER LIMIT OF NORMAL", "0.6", "DERIVED", "CLINICAL STUDY SPONSOR"], ["CDISCPILOT01", "LB", "01-708-1348", "LBSEQ", "69", "LBTMSHI", "LAB RESULT/UPPER LIMIT OF NORMAL", "1.0", "DERIVED", "CLINICAL STUDY SPONSOR"], ["CDISCPILOT01", "LB", "01-708-1348", "LBSEQ", "174", "LBTMSHI", "LAB RESULT/UPPER LIMIT OF NORMAL", "0.8", "DERIVED", "CLINICAL STUDY SPONSOR"], ["CDISCPILOT01", "LB", "01-708-1348", "LBSEQ", "177", "LBTMSHI", "LAB RESULT/UPPER LIMIT OF NORMAL", "1.0", "DERIVED", "CLINICAL STUDY SPONSOR"], ["CDISCPILOT01", "LB", "01-708-1348", "LBSEQ", "272", "LBTMSHI", "LAB RESULT/UPPER LIMIT OF NORMAL", "0.6", "DERIVED", "CLINICAL STUDY SPONSOR"], ["CDISCPILOT01", "LB", "01-708-1348", "LBSEQ", "273", "LBTMSHI", "LAB RESULT/UPPER LIMIT OF NORMAL", "1.0", "DERIVED", "CLINICAL STUDY SPONSOR"], ["CDISCPILOT01", "LB", "01-708-1353", "LBSEQ", "27", "LBTMSHI", "LAB RESULT/UPPER LIMIT OF NORMAL", "0.8", "DERIVED", "CLINICAL STUDY SPONSOR"], ["CDISCPILOT01", "LB", "01-708-1353", "LBSEQ", "32", "LBTMSHI", "LAB RESULT/UPPER LIMIT OF NORMAL", "1.0", "DERIVED", "CLINICAL STUDY SPONSOR"], ["CDISCPILOT01", "LB", "01-708-1353", "LBSEQ", "33", "LBTMSHI", "LAB RESULT/UPPER LIMIT OF NORMAL", "0.1", "DERIVED", "CLINICAL STUDY SPONSOR"], ["CDISCPILOT01", "LB", "01-708-1353", "LBSEQ", "36", "LBTMSHI", "LAB RESULT/UPPER LIMIT OF NORMAL", "0.4", "DERIVED", "CLINICAL STUDY SPONSOR"], ["CDISCPILOT01", "LB", "01-708-1353", "LBSEQ", "64", "LBTMSHI", "LAB RESULT/UPPER LIMIT OF NORMAL", "0.6", "DERIVED", "CLINICAL STUDY SPONSOR"], ["CDISCPILOT01", "LB", "01-708-1353", "LBSEQ", "69", "LBTMSHI", "LAB RESULT/UPPER LIMIT OF NORMAL", "1.0", "DERIVED", "CLINICAL STUDY SPONSOR"], ["CDISCPILOT01", "LB", "01-708-1353", "LBSEQ", "158", "ENDPOINT", "ENDPOINT VALUE FLAG", "Y", "DERIVED", "CLINICAL STUDY SPONSOR"], ["CDISCPILOT01", "LB", "01-708-1353", "LBSEQ", "158", "LBTMSHI", "LAB RESULT/UPPER LIMIT OF NORMAL", "0.6", "DERIVED", "CLINICAL STUDY SPONSOR"], ["CDISCPILOT01", "LB", "01-708-1353", "LBSEQ", "163", "ENDPOINT", "ENDPOINT VALUE FLAG", "Y", "DERIVED", "CLINICAL STUDY SPONSOR"], ["CDISCPILOT01", "LB", "01-708-1353", "LBSEQ", "163", "LBTMSHI", "LAB RESULT/UPPER LIMIT OF NORMAL", "1.0", "DERIVED", "CLINICAL STUDY SPONSOR"], ["CDISCPILOT01", "LB", "01-708-1372", "LBSEQ", "27", "LBTMSHI", "LAB RESULT/UPPER LIMIT OF NORMAL", "0.6", "DERIVED", "CLINICAL STUDY SPONSOR"], ["CDISCPILOT01", "LB", "01-708-1372", "LBSEQ", "32", "LBTMSHI", "LAB RESULT/UPPER LIMIT OF NORMAL", "1.0", "DERIVED", "CLINICAL STUDY SPONSOR"], ["CDISCPILOT01", "LB", "01-708-1372", "LBSEQ", "33", "LBTMSHI", "LAB RESULT/UPPER LIMIT OF NORMAL", "0.5", "DERIVED", "CLINICAL STUDY SPONSOR"], ["CDISCPILOT01", "LB", "01-708-1372", "LBSEQ", "36", "LBTMSHI", "LAB RESULT/UPPER LIMIT OF NORMAL", "0.3", "DERIVED", "CLINICAL STUDY SPONSOR"], ["CDISCPILOT01", "LB", "01-708-1378", "LBSEQ", "27", "LBTMSHI", "LAB RESULT/UPPER LIMIT OF NORMAL", "0.6", "DERIVED", "CLINICAL STUDY SPONSOR"], ["CDISCPILOT01", "LB", "01-708-1378", "LBSEQ", "32", "LBTMSHI", "LAB RESULT/UPPER LIMIT OF NORMAL", "1.0", "DERIVED", "CLINICAL STUDY SPONSOR"], ["CDISCPILOT01", "LB", "01-708-1378", "LBSEQ", "33", "LBTMSHI", "LAB RESULT/UPPER LIMIT OF NORMAL", "0.3", "DERIVED", "CLINICAL STUDY SPONSOR"], ["CDISCPILOT01", "LB", "01-708-1378", "LBSEQ", "36", "LBTMSHI", "LAB RESULT/UPPER LIMIT OF NORMAL", "0.3", "DERIVED", "CLINICAL STUDY SPONSOR"], ["CDISCPILOT01", "LB", "01-708-1378", "LBSEQ", "64", "LBTMSHI", "LAB RESULT/UPPER LIMIT OF NORMAL", "0.6", "DERIVED", "CLINICAL STUDY SPONSOR"], ["CDISCPILOT01", "LB", "01-708-1378", "LBSEQ", "69", "LBTMSHI", "LAB RESULT/UPPER LIMIT OF NORMAL", "1.0", "DERIVED", "CLINICAL STUDY SPONSOR"], ["CDISCPILOT01", "LB", "01-708-1378", "LBSEQ", "189", "LBTMSHI", "LAB RESULT/UPPER LIMIT OF NORMAL", "0.6", "DERIVED", "CLINICAL STUDY SPONSOR"], ["CDISCPILOT01", "LB", "01-708-1378", "LBSEQ", "194", "LBTMSHI", "LAB RESULT/UPPER LIMIT OF NORMAL", "1.0", "DERIVED", "CLINICAL STUDY SPONSOR"], ["CDISCPILOT01", "LB", "01-708-1378", "LBSEQ", "254", "ENDPOINT", "ENDPOINT VALUE FLAG", "Y", "DERIVED", "CLINICAL STUDY SPONSOR"], ["CDISCPILOT01", "LB", "01-708-1378", "LBSEQ", "254", "LBTMSHI", "LAB RESULT/UPPER LIMIT OF NORMAL", "0.6", "DERIVED", "CLINICAL STUDY SPONSOR"], ["CDISCPILOT01", "LB", "01-708-1378", "LBSEQ", "259", "ENDPOINT", "ENDPOINT VALUE FLAG", "Y", "DERIVED", "CLINICAL STUDY SPONSOR"], ["CDISCPILOT01", "LB", "01-708-1378", "LBSEQ", "259", "LBTMSHI", "LAB RESULT/UPPER LIMIT OF NORMAL", "1.0", "DERIVED", "CLINICAL STUDY SPONSOR"], ["CDISCPILOT01", "LB", "01-708-1406", "LBSEQ", "27", "LBTMSHI", "LAB RESULT/UPPER LIMIT OF NORMAL", "0.6", "DERIVED", "CLINICAL STUDY SPONSOR"], ["CDISCPILOT01", "LB", "01-708-1406", "LBSEQ", "32", "LBTMSHI", "LAB RESULT/UPPER LIMIT OF NORMAL", "1.0", "DERIVED", "CLINICAL STUDY SPONSOR"], ["CDISCPILOT01", "LB", "01-708-1406", "LBSEQ", "33", "LBTMSHI", "LAB RESULT/UPPER LIMIT OF NORMAL", "0.2", "DERIVED", "CLINICAL STUDY SPONSOR"], ["CDISCPILOT01", "LB", "01-708-1406", "LBSEQ", "36", "LBTMSHI", "LAB RESULT/UPPER LIMIT OF NORMAL", "0.6", "DERIVED", "CLINICAL STUDY SPONSOR"], ["CDISCPILOT01", "LB", "01-708-1406", "LBSEQ", "64", "LBTMSHI", "LAB RESULT/UPPER LIMIT OF NORMAL", "0.8", "DERIVED", "CLINICAL STUDY SPONSOR"], ["CDISCPILOT01", "LB", "01-708-1406", "LBSEQ", "69", "LBTMSHI", "LAB RESULT/UPPER LIMIT OF NORMAL", "1.0", "DERIVED", "CLINICAL STUDY SPONSOR"], ["CDISCPILOT01", "LB", "01-708-1406", "LBSEQ", "190", "LBTMSHI", "LAB RESULT/UPPER LIMIT OF NORMAL", "0.6", "DERIVED", "CLINICAL STUDY SPONSOR"], ["CDISCPILOT01", "LB", "01-708-1406", "LBSEQ", "195", "LBTMSHI", "LAB RESULT/UPPER LIMIT OF NORMAL", "1.0", "DERIVED", "CLINICAL STUDY SPONSOR"], ["CDISCPILOT01", "LB", "01-708-1406", "LBSEQ", "286", "ENDPOINT", "ENDPOINT VALUE FLAG", "Y", "DERIVED", "CLINICAL STUDY SPONSOR"], ["CDISCPILOT01", "LB", "01-708-1406", "LBSEQ", "286", "LBTMSHI", "LAB RESULT/UPPER LIMIT OF NORMAL", "0.6", "DERIVED", "CLINICAL STUDY SPONSOR"], ["CDISCPILOT01", "LB", "01-708-1406", "LBSEQ", "291", "ENDPOINT", "ENDPOINT VALUE FLAG", "Y", "DERIVED", "CLINICAL STUDY SPONSOR"], ["CDISCPILOT01", "LB", "01-708-1406", "LBSEQ", "291", "LBTMSHI", "LAB RESULT/UPPER LIMIT OF NORMAL", "1.0", "DERIVED", "CLINICAL STUDY SPONSOR"], ["CDISCPILOT01", "LB", "01-708-1428", "LBSEQ", "27", "LBTMSHI", "LAB RESULT/UPPER LIMIT OF NORMAL", "0.8", "DERI