{"datasetJSONCreationDateTime": "2025-01-04T16:23:56", "datasetJSONVersion": "1.1.0", "fileOID": "UpdatedCDISCPILOT.CDISC SDTM.3.2.SUPPDS", "studyOID": "UpdatedCDISCPILOT.CDISC SDTM.3.2", "metaDataVersionOID": "MDV.UpdatedCDISCPILOT.CDISC SDTM.3.2", "itemGroupOID": "{SUPPDS", "records": 3, "name": "SUPPDS", "label": "Supplemental Qualifiers for DS", "columns": [{"itemOID": "IT.SUPPDS.STUDYID", "name": "STUDYID", "label": "Study Identifier", "dataType": "string", "length": 12, "keySequence": 1}, {"itemOID": "IT.SUPPDS.RDOMAIN", "name": "RDOMAIN", "label": "Related Domain Abbreviation", "dataType": "string", "length": 2, "keySequence": 2}, {"itemOID": "IT.SUPPDS.USUBJID", "name": "USUBJID", "label": "Unique Subject Identifier", "dataType": "string", "length": 11, "keySequence": 3}, {"itemOID": "IT.SUPPDS.IDVAR", "name": "IDVAR", "label": "Identifying Variable", "dataType": "string", "length": 8, "keySequence": 4}, {"itemOID": "IT.SUPPDS.IDVARVAL", "name": "IDVARVAL", "label": "Identifying Variable Value", "dataType": "string", "length": 200, "keySequence": 5}, {"itemOID": "IT.SUPPDS.QNAM", "name": "QNAM", "label": "Qualifier Variable Name", "dataType": "string", "length": 8, "keySequence": 6}, {"itemOID": "IT.SUPPDS.QLABEL", "name": "QLABEL", "label": "Qualifier Variable Label", "dataType": "string", "length": 40}, {"itemOID": "IT.SUPPDS.QVAL", "name": "QVAL", "label": "Data Value", "dataType": "string", "length": 200}, {"itemOID": "IT.SUPPDS.QORIG", "name": "QORIG", "label": "Origin", "dataType": "string", "length": 200}, {"itemOID": "IT.SUPPDS.QEVAL", "name": "QEVAL", "label": "Evaluator", "dataType": "string", "length": 200}], "rows": [["CDISCPILOT01", "DS", "01-703-1175", "DSSEQ", "1", "ENTCRIT", "PROTOCOL ENTRY CRITERIA NOT MET", "16", "CRF", ""], ["CDISCPILOT01", "DS", "01-705-1382", "DSSEQ", "1", "ENTCRIT", "PROTOCOL ENTRY CRITERIA NOT MET", "25", "CRF", ""], ["CDISCPILOT01", "DS", "01-708-1372", "DSSEQ", "1", "ENTCRIT", "PROTOCOL ENTRY CRITERIA NOT MET", "16", "CRF", ""]]}