{"datasetJSONCreationDateTime": "2025-01-04T16:24:02", "datasetJSONVersion": "1.1.0", "fileOID": "UpdatedCDISCPILOT.CDISC SDTM.3.2.VS", "studyOID": "UpdatedCDISCPILOT.CDISC SDTM.3.2", "metaDataVersionOID": "MDV.UpdatedCDISCPILOT.CDISC SDTM.3.2", "itemGroupOID": "{VS", "records": 29643, "name": "VS", "label": "Vital Signs", "columns": [{"itemOID": "IT.VS.STUDYID", "name": "STUDYID", "label": "Study Identifier", "dataType": "string", "length": 12, "keySequence": 1}, {"itemOID": "IT.VS.DOMAIN", "name": "DOMAIN", "label": "Domain Abbreviation", "dataType": "string", "length": 2}, {"itemOID": "IT.VS.USUBJID", "name": "USUBJID", "label": "Unique Subject Identifier", "dataType": "string", "length": 11, "keySequence": 2}, {"itemOID": "IT.VS.VSSEQ", "name": "VSSEQ", "label": "Sequence Number", "dataType": "integer", "length": 8}, {"itemOID": "IT.VS.VSTESTCD", "name": "VSTESTCD", "label": "Vital Signs Test Short Name", "dataType": "string", "length": 6, "keySequence": 3}, {"itemOID": "IT.VS.VSTEST", "name": "VSTEST", "label": "Vital Signs Test Name", "dataType": "string", "length": 24}, {"itemOID": "IT.VS.VSPOS", "name": "VSPOS", "label": "Vital Signs Position of Subject", "dataType": "string", "length": 8}, {"itemOID": "IT.VS.VSORRES", "name": "VSORRES", "label": "Result or Finding in Original Units", "dataType": "string", "length": 5}, {"itemOID": "IT.VS.VSORRESU", "name": "VSORRESU", "label": "Original Units", "dataType": "string", "length": 9}, {"itemOID": "IT.VS.VSSTRESC", "name": "VSSTRESC", "label": "Character Result/Finding in Std Format", "dataType": "string", "length": 6}, {"itemOID": "IT.VS.VSSTRESN", "name": "VSSTRESN", "label": "Numeric Result/Finding in Standard Units", "dataType": "integer", "length": 8}, {"itemOID": "IT.VS.VSSTRESU", "name": "VSSTRESU", "label": "Standard Units", "dataType": "string", "length": 9}, {"itemOID": "IT.VS.VSSTAT", "name": "VSSTAT", "label": "Completion Status", "dataType": "string", "length": 8}, {"itemOID": "IT.VS.VSLOC", "name": "VSLOC", "label": "Location of Vital Signs Measurement", "dataType": "string", "length": 11}, {"itemOID": "IT.VS.VSBLFL", "name": "VSBLFL", "label": "Baseline Flag", "dataType": "string", "length": 1}, {"itemOID": "IT.VS.VISITNUM", "name": "VISITNUM", "label": "Visit Number", "dataType": "double", "length": 8, "keySequence": 4}, {"itemOID": "IT.VS.VISIT", "name": "VISIT", "label": "Visit Name", "dataType": "string", "length": 19}, {"itemOID": "IT.VS.VISITDY", "name": "VISITDY", "label": "Planned Study Day of Visit", "dataType": "integer", "length": 8}, {"itemOID": "IT.VS.EPOCH", "name": "EPOCH", "label": "Epoch", "dataType": "string", "length": 9}, {"itemOID": "IT.VS.VSDTC", "name": "VSDTC", "label": "Date/Time of Measurements", "dataType": "string", "length": 10}, {"itemOID": "IT.VS.VSDY", "name": "VSDY", "label": "Study Day of Vital Signs", "dataType": "integer", "length": 8}, {"itemOID": "IT.VS.VSTPT", "name": "VSTPT", "label": "Planned Time Point Name", "dataType": "string", "length": 30}, {"itemOID": "IT.VS.VSTPTNUM", "name": "VSTPTNUM", "label": "Planned Time Point Number", "dataType": "integer", "length": 8, "keySequence": 5}, {"itemOID": "IT.VS.VSELTM", "name": "VSELTM", "label": "Planned Elapsed Time from Time Point Ref", "dataType": "string", "length": 4}, {"itemOID": "IT.VS.VSTPTREF", "name": "VSTPTREF", "label": "Time Point Reference", "dataType": "string", "length": 16}], "rows": [["CDISCPILOT01", "VS", "01-701-1015", 1, "DIABP", "Diastolic Blood Pressure", "SUPINE", "64", "mmHg", "64", 64, "mmHg", "", "", "", 1.0, "SCREENING 1", -7, "SCREENING", "2013-12-26", -7, "AFTER LYING DOWN FOR 5 MINUTES", 815, "PT5M", "PATIENT SUPINE"], ["CDISCPILOT01", "VS", "01-701-1015", 2, "DIABP", "Diastolic Blood Pressure", "STANDING", "83", "mmHg", "83", 83, "mmHg", "", "", "", 1.0, "SCREENING 1", -7, "SCREENING", "2013-12-26", -7, "AFTER STANDING FOR 1 MINUTE", 816, "PT1M", "PATIENT STANDING"], ["CDISCPILOT01", "VS", "01-701-1015", 3, "DIABP", "Diastolic Blood Pressure", "STANDING", "57", "mmHg", "57", 57, "mmHg", "", "", "", 1.0, "SCREENING 1", -7, "SCREENING", "2013-12-26", -7, "AFTER STANDING FOR 3 MINUTES", 817, "PT3M", "PATIENT STANDING"], ["CDISCPILOT01", "VS", "01-701-1015", 4, "DIABP", "Diastolic Blood Pressure", "SUPINE", "68", "mmHg", "68", 68, "mmHg", "", "", "", 2.0, "SCREENING 2", -1, "SCREENING", "2013-12-31", -2, "AFTER LYING DOWN FOR 5 MINUTES", 815, "PT5M", "PATIENT SUPINE"], ["CDISCPILOT01", "VS", "01-701-1015", 5, "DIABP", "Diastolic Blood Pressure", "STANDING", "59", "mmHg", "59", 59, "mmHg", "", "", "", 2.0, "SCREENING 2", -1, "SCREENING", "2013-12-31", -2, "AFTER STANDING FOR 1 MINUTE", 816, "PT1M", "PATIENT STANDING"], ["CDISCPILOT01", "VS", "01-701-1015", 6, "DIABP", "Diastolic Blood Pressure", "STANDING", "71", "mmHg", "71", 71, "mmHg", "", "", "", 2.0, "SCREENING 2", -1, "SCREENING", "2013-12-31", -2, "AFTER STANDING FOR 3 MINUTES", 817, "PT3M", "PATIENT STANDING"], ["CDISCPILOT01", "VS", "01-701-1015", 7, "DIABP", "Diastolic Blood Pressure", "SUPINE", "56", "mmHg", "56", 56, "mmHg", "", "", "Y", 3.0, "BASELINE", 1, "TREATMENT", "2014-01-02", 1, "AFTER LYING DOWN FOR 5 MINUTES", 815, "PT5M", "PATIENT SUPINE"], ["CDISCPILOT01", "VS", "01-701-1015", 8, "DIABP", "Diastolic Blood Pressure", "STANDING", "51", "mmHg", "51", 51, "mmHg", "", "", "Y", 3.0, "BASELINE", 1, "TREATMENT", "2014-01-02", 1, "AFTER STANDING FOR 1 MINUTE", 816, "PT1M", "PATIENT STANDING"], ["CDISCPILOT01", "VS", "01-701-1015", 9, "DIABP", "Diastolic Blood Pressure", "STANDING", "61", "mmHg", "61", 61, "mmHg", "", "", "Y", 3.0, "BASELINE", 1, "TREATMENT", "2014-01-02", 1, "AFTER STANDING FOR 3 MINUTES", 817, "PT3M", "PATIENT STANDING"], ["CDISCPILOT01", "VS", "01-701-1015", 10, "DIABP", "Diastolic Blood Pressure", "SUPINE", "67", "mmHg", "67", 67, "mmHg", "", "", "", 3.5, "AMBUL ECG PLACEMENT", 13, "TREATMENT", "2014-01-14", 13, "AFTER LYING DOWN FOR 5 MINUTES", 815, "PT5M", "PATIENT SUPINE"], ["CDISCPILOT01", "VS", "01-701-1015", 11, "DIABP", "Diastolic Blood Pressure", "STANDING", "61", "mmHg", "61", 61, "mmHg", "", "", "", 3.5, "AMBUL ECG PLACEMENT", 13, "TREATMENT", "2014-01-14", 13, "AFTER STANDING FOR 1 MINUTE", 816, "PT1M", "PATIENT STANDING"], ["CDISCPILOT01", "VS", "01-701-1015", 12, "DIABP", "Diastolic Blood Pressure", "STANDING", "65", "mmHg", "65", 65, "mmHg", "", "", "", 3.5, "AMBUL ECG PLACEMENT", 13, "TREATMENT", "2014-01-14", 13, "AFTER STANDING FOR 3 MINUTES", 817, "PT3M", "PATIENT STANDING"], ["CDISCPILOT01", "VS", "01-701-1015", 13, "DIABP", "Diastolic Blood Pressure", "SUPINE", "56", "mmHg", "56", 56, "mmHg", "", "", "", 4.0, "WEEK 2", 14, "TREATMENT", "2014-01-16", 15, "AFTER LYING DOWN FOR 5 MINUTES", 815, "PT5M", "PATIENT SUPINE"], ["CDISCPILOT01", "VS", "01-701-1015", 14, "DIABP", "Diastolic Blood Pressure", "STANDING", "50", "mmHg", "50", 50, "mmHg", "", "", "", 4.0, "WEEK 2", 14, "TREATMENT", "2014-01-16", 15, "AFTER STANDING FOR 1 MINUTE", 816, "PT1M", "PATIENT STANDING"], ["CDISCPILOT01", "VS", "01-701-1015", 15, "DIABP", "Diastolic Blood Pressure", "STANDING", "54", "mmHg", "54", 54, "mmHg", "", "", "", 4.0, "WEEK 2", 14, "TREATMENT", "2014-01-16", 15, "AFTER STANDING FOR 3 MINUTES", 817, "PT3M", "PATIENT STANDING"], ["CDISCPILOT01", "VS", "01-701-1015", 16, "DIABP", "Diastolic Blood Pressure", "SUPINE", "64", "mmHg", "64", 64, "mmHg", "", "", "", 5.0, "WEEK 4", 28, "TREATMENT", "2014-01-30", 29, "AFTER LYING DOWN FOR 5 MINUTES", 815, "PT5M", "PATIENT SUPINE"], ["CDISCPILOT01", "VS", "01-701-1015", 17, "DIABP", "Diastolic Blood Pressure", "STANDING", "55", "mmHg", "55", 55, "mmHg", "", "", "", 5.0, "WEEK 4", 28, "TREATMENT", "2014-01-30", 29, "AFTER STANDING FOR 1 MINUTE", 816, "PT1M", "PATIENT STANDING"], ["CDISCPILOT01", "VS", "01-701-1015", 18, "DIABP", "Diastolic Blood Pressure", "STANDING", "53", "mmHg", "53", 53, "mmHg", "", "", "", 5.0, "WEEK 4", 28, "TREATMENT", "2014-01-30", 29, "AFTER STANDING FOR 3 MINUTES", 817, "PT3M", "PATIENT STANDING"], ["CDISCPILOT01", "VS", "01-701-1015", 19, "DIABP", "Diastolic Blood Pressure", "SUPINE", "72", "mmHg", "72", 72, "mmHg", "", "", "", 6.0, "AMBUL ECG REMOVAL", 30, "TREATMENT", "2014-02-01", 31, "AFTER LYING DOWN FOR 5 MINUTES", 815, "PT5M", "PATIENT SUPINE"], ["CDISCPILOT01", "VS", "01-701-1015", 20, "DIABP", "Diastolic Blood Pressure", "STANDING", "61", "mmHg", "61", 61, "mmHg", "", "", "", 6.0, "AMBUL ECG REMOVAL", 30, "TREATMENT", "2014-02-01", 31, "AFTER STANDING FOR 1 MINUTE", 816, "PT1M", "PATIENT STANDING"], ["CDISCPILOT01", "VS", "01-701-1015", 21, "DIABP", "Diastolic Blood Pressure", "STANDING", "53", "mmHg", "53", 53, "mmHg", "", "", "", 6.0, "AMBUL ECG REMOVAL", 30, "TREATMENT", "2014-02-01", 31, "AFTER STANDING FOR 3 MINUTES", 817, "PT3M", "PATIENT STANDING"], ["CDISCPILOT01", "VS", "01-701-1015", 22, "DIABP", "Diastolic Blood Pressure", "SUPINE", "55", "mmHg", "55", 55, "mmHg", "", "", "", 7.0, "WEEK 6", 42, "TREATMENT", "2014-02-12", 42, "AFTER LYING DOWN FOR 5 MINUTES", 815, "PT5M", "PATIENT SUPINE"], ["CDISCPILOT01", "VS", "01-701-1015", 23, "DIABP", "Diastolic Blood Pressure", "STANDING", "63", "mmHg", "63", 63, "mmHg", "", "", "", 7.0, "WEEK 6", 42, "TREATMENT", "2014-02-12", 42, "AFTER STANDING FOR 1 MINUTE", 816, "PT1M", "PATIENT STANDING"], ["CDISCPILOT01", "VS", "01-701-1015", 24, "DIABP", "Diastolic Blood Pressure", "STANDING", "60", "mmHg", "60", 60, "mmHg", "", "", "", 7.0, "WEEK 6", 42, "TREATMENT", "2014-02-12", 42, "AFTER STANDING FOR 3 MINUTES", 817, "PT3M", "PATIENT STANDING"], ["CDISCPILOT01", "VS", "01-701-1015", 25, "DIABP", "Diastolic Blood Pressure", "SUPINE", "67", "mmHg", "67", 67, "mmHg", "", "", "", 8.0, "WEEK 8", 56, "TREATMENT", "2014-03-05", 63, "AFTER LYING DOWN FOR 5 MINUTES", 815, "PT5M", "PATIENT SUPINE"], ["CDISCPILOT01", "VS", "01-701-1015", 26, "DIABP", "Diastolic Blood Pressure", "STANDING", "62", "mmHg", "62", 62, "mmHg", "", "", "", 8.0, "WEEK 8", 56, "TREATMENT", "2014-03-05", 63, "AFTER STANDING FOR 1 MINUTE", 816, "PT1M", "PATIENT STANDING"], ["CDISCPILOT01", "VS", "01-701-1015", 27, "DIABP", "Diastolic Blood Pressure", "STANDING", "71", "mmHg", "71", 71, "mmHg", "", "", "", 8.0, "WEEK 8", 56, "TREATMENT", "2014-03-05", 63, "AFTER STANDING FOR 3 MINUTES", 817, "PT3M", "PATIENT STANDING"], ["CDISCPILOT01", "VS", "01-701-1015", 28, "DIABP", "Diastolic Blood Pressure", "SUPINE", "68", "mmHg", "68", 68, "mmHg", "", "", "", 9.0, "WEEK 12", 84, "TREATMENT", "2014-03-26", 84, "AFTER LYING DOWN FOR 5 MINUTES", 815, "PT5M", "PATIENT SUPINE"], ["CDISCPILOT01", "VS", "01-701-1015", 29, "DIABP", "Diastolic Blood Pressure", "STANDING", "60", "mmHg", "60", 60, "mmHg", "", "", "", 9.0, "WEEK 12", 84, "TREATMENT", "2014-03-26", 84, "AFTER STANDING FOR 1 MINUTE", 816, "PT1M", "PATIENT STANDING"], ["CDISCPILOT01", "VS", "01-701-1015", 30, "DIABP", "Diastolic Blood Pressure", "STANDING", "64", "mmHg", "64", 64, "mmHg", "", "", "", 9.0, "WEEK 12", 84, "TREATMENT", "2014-03-26", 84, "AFTER STANDING FOR 3 MINUTES", 817, "PT3M", "PATIENT STANDING"], ["CDISCPILOT01", "VS", "01-701-1015", 31, "DIABP", "Diastolic Blood Pressure", "SUPINE", "66", "mmHg", "66", 66, "mmHg", "", "", "", 10.0, "WEEK 16", 112, "TREATMENT", "2014-05-07", 126, "AFTER LYING DOWN FOR 5 MINUTES", 815, "PT5M", "PATIENT SUPINE"], ["CDISCPILOT01", "VS", "01-701-1015", 32, "DIABP", "Diastolic Blood Pressure", "STANDING", "68", "mmHg", "68", 68, "mmHg", "", "", "", 10.0, "WEEK 16", 112, "TREATMENT", "2014-05-07", 126, "AFTER STANDING FOR 1 MINUTE", 816, "PT1M", "PATIENT STANDING"], ["CDISCPILOT01", "VS", "01-701-1015", 33, "DIABP", "Diastolic Blood Pressure", "STANDING", "66", "mmHg", "66", 66, "mmHg", "", "", "", 10.0, "WEEK 16", 112, "TREATMENT", "2014-05-07", 126, "AFTER STANDING FOR 3 MINUTES", 817, "PT3M", "PATIENT STANDING"], ["CDISCPILOT01", "VS", "01-701-1015", 34, "DIABP", "Diastolic Blood Pressure", "SUPINE", "67", "mmHg", "67", 67, "mmHg", "", "", "", 11.0, "WEEK 20", 140, "TREATMENT", "2014-05-21", 140, "AFTER LYING DOWN FOR 5 MINUTES", 815, "PT5M", "PATIENT SUPINE"], ["CDISCPILOT01", "VS", "01-701-1015", 35, "DIABP", "Diastolic Blood Pressure", "STANDING", "65", "mmHg", "65", 65, "mmHg", "", "", "", 11.0, "WEEK 20", 140, "TREATMENT", "2014-05-21", 140, "AFTER STANDING FOR 1 MINUTE", 816, "PT1M", "PATIENT STANDING"], ["CDISCPILOT01", "VS", "01-701-1015", 36, "DIABP", "Diastolic Blood Pressure", "STANDING", "63", "mmHg", "63", 63, "mmHg", "", "", "", 11.0, "WEEK 20", 140, "TREATMENT", "2014-05-21", 140, "AFTER STANDING FOR 3 MINUTES", 817, "PT3M", "PATIENT STANDING"], ["CDISCPILOT01", "VS", "01-701-1015", 37, "DIABP", "Diastolic Blood Pressure", "SUPINE", "63", "mmHg", "63", 63, "mmHg", "", "", "", 12.0, "WEEK 24", 168, "TREATMENT", "2014-06-18", 168, "AFTER LYING DOWN FOR 5 MINUTES", 815, "PT5M", "PATIENT SUPINE"], ["CDISCPILOT01", "VS", "01-701-1015", 38, "DIABP", "Diastolic Blood Pressure", "STANDING", "57", "mmHg", "57", 57, "mmHg", "", "", "", 12.0, "WEEK 24", 168, "TREATMENT", "2014-06-18", 168, "AFTER STANDING FOR 1 MINUTE", 816, "PT1M", "PATIENT STANDING"], ["CDISCPILOT01", "VS", "01-701-1015", 39, "DIABP", "Diastolic Blood Pressure", "STANDING", "71", "mmHg", "71", 71, "mmHg", "", "", "", 12.0, "WEEK 24", 168, "TREATMENT", "2014-06-18", 168, "AFTER STANDING FOR 3 MINUTES", 817, "PT3M", "PATIENT STANDING"], ["CDISCPILOT01", "VS", "01-701-1015", 40, "DIABP", "Diastolic Blood Pressure", "SUPINE", "61", "mmHg", "61", 61, "mmHg", "", "", "", 13.0, "WEEK 26", 182, "TREATMENT", "2014-07-02", 182, "AFTER LYING DOWN FOR 5 MINUTES", 815, "PT5M", "PATIENT SUPINE"], ["CDISCPILOT01", "VS", "01-701-1015", 41, "DIABP", "Diastolic Blood Pressure", "STANDING", "59", "mmHg", "59", 59, "mmHg", "", "", "", 13.0, "WEEK 26", 182, "TREATMENT", "2014-07-02", 182, "AFTER STANDING FOR 1 MINUTE", 816, "PT1M", "PATIENT STANDING"], ["CDISCPILOT01", "VS", "01-701-1015", 42, "DIABP", "Diastolic Blood Pressure", "STANDING", "55", "mmHg", "55", 55, "mmHg", "", "", "", 13.0, "WEEK 26", 182, "TREATMENT", "2014-07-02", 182, "AFTER STANDING FOR 3 MINUTES", 817, "PT3M", "PATIENT STANDING"], ["CDISCPILOT01", "VS", "01-701-1015", 43, "HEIGHT", "Height", "", "58.0", "in", "147.32", 147, "cm", "", "", "", 1.0, "SCREENING 1", -7, "SCREENING", "2013-12-26", -7, "", null, "", ""], ["CDISCPILOT01", "VS", "01-701-1015", 44, "PULSE", "Pulse Rate", "SUPINE", "57", "beats/min", "57", 57, "beats/min", "", "", "", 1.0, "SCREENING 1", -7, "SCREENING", "2013-12-26", -7, "AFTER LYING DOWN FOR 5 MINUTES", 815, "PT5M", "PATIENT SUPINE"], ["CDISCPILOT01", "VS", "01-701-1015", 45, "PULSE", "Pulse Rate", "STANDING", "62", "beats/min", "62", 62, "beats/min", "", "", "", 1.0, "SCREENING 1", -7, "SCREENING", "2013-12-26", -7, "AFTER STANDING FOR 1 MINUTE", 816, "PT1M", "PATIENT STANDING"], ["CDISCPILOT01", "VS", "01-701-1015", 46, "PULSE", "Pulse Rate", "STANDING", "65", "beats/min", "65", 65, "beats/min", "", "", "", 1.0, "SCREENING 1", -7, "SCREENING", "2013-12-26", -7, "AFTER STANDING FOR 3 MINUTES", 817, "PT3M", "PATIENT STANDING"], ["CDISCPILOT01", "VS", "01-701-1015", 47, "PULSE", "Pulse Rate", "SUPINE", "56", "beats/min", "56", 56, "beats/min", "", "", "", 2.0, "SCREENING 2", -1, "SCREENING", "2013-12-31", -2, "AFTER LYING DOWN FOR 5 MINUTES", 815, "PT5M", "PATIENT SUPINE"], ["CDISCPILOT01", "VS", "01-701-1015", 48, "PULSE", "Pulse Rate", "STANDING", "60", "beats/min", "60", 60, "beats/min", "", "", "", 2.0, "SCREENING 2", -1, "SCREENING", "2013-12-31", -2, "AFTER STANDING FOR 1 MINUTE", 816, "PT1M", "PATIENT STANDING"], ["CDISCPILOT01", "VS", "01-701-1015", 49, "PULSE", "Pulse Rate", "STANDING", "57", "beats/min", "57", 57, "beats/min", "", "", "", 2.0, "SCREENING 2", -1, "SCREENING", "2013-12-31", -2, "AFTER STANDING FOR 3 MINUTES", 817, "PT3M", "PATIENT STANDING"], ["CDISCPILOT01", "VS", "01-701-1015", 50, "PULSE", "Pulse Rate", "SUPINE", "56", "beats/min", "56", 56, "beats/min", "", "", "Y", 3.0, "BASELINE", 1, "TREATMENT", "2014-01-02", 1, "AFTER LYING DOWN FOR 5 MINUTES", 815, "PT5M", "PATIENT SUPINE"], ["CDISCPILOT01", "VS", "01-701-1015", 51, "PULSE", "Pulse Rate", "STANDING", "59", "beats/min", "59", 59, "beats/min", "", "", "Y", 3.0, "BASELINE", 1, "TREATMENT", "2014-01-02", 1, "AFTER STANDING FOR 1 MINUTE", 816, "PT1M", "PATIENT STANDING"], ["CDISCPILOT01", "VS", "01-701-1015", 52, "PULSE", "Pulse Rate", "STANDING", "59", "beats/min", "59", 59, "beats/min", "", "", "Y", 3.0, "BASELINE", 1, "TREATMENT", "2014-01-02", 1, "AFTER STANDING FOR 3 MINUTES", 817, "PT3M", "PATIENT STANDING"], ["CDISCPILOT01", "VS", "01-701-1015", 53, "PULSE", "Pulse Rate", "SUPINE", "61", "beats/min", "61", 61, "beats/min", "", "", "", 3.5, "AMBUL ECG PLACEMENT", 13, "TREATMENT", "2014-01-14", 13, "AFTER LYING DOWN FOR 5 MINUTES", 815, "PT5M", "PATIENT SUPINE"], ["CDISCPILOT01", "VS", "01-701-1015", 54, "PULSE", "Pulse Rate", "STANDING", "65", "beats/min", "65", 65, "beats/min", "", "", "", 3.5, "AMBUL ECG PLACEMENT", 13, "TREATMENT", "2014-01-14", 13, "AFTER STANDING FOR 1 MINUTE", 816, "PT1M", "PATIENT STANDING"], ["CDISCPILOT01", "VS", "01-701-1015", 55, "PULSE", "Pulse Rate", "STANDING", "61", "beats/min", "61", 61, "beats/min", "", "", "", 3.5, "AMBUL ECG PLACEMENT", 13, "TREATMENT", "2014-01-14", 13, "AFTER STANDING FOR 3 MINUTES", 817, "PT3M", "PATIENT STANDING"], ["CDISCPILOT01", "VS", "01-701-1015", 56, "PULSE", "Pulse Rate", "SUPINE", "58", "beats/min", "58", 58, "beats/min", "", "", "", 4.0, "WEEK 2", 14, "TREATMENT", "2014-01-16", 15, "AFTER LYING DOWN FOR 5 MINUTES", 815, "PT5M", "PATIENT SUPINE"], ["CDISCPILOT01", "VS", "01-701-1015", 57, "PULSE", "Pulse Rate", "STANDING", "61", "beats/min", "61", 61, "beats/min", "", "", "", 4.0, "WEEK 2", 14, "TREATMENT", "2014-01-16", 15, "AFTER STANDING FOR 1 MINUTE", 816, "PT1M", "PATIENT STANDING"], ["CDISCPILOT01", "VS", "01-701-1015", 58, "PULSE", "Pulse Rate", "STANDING", "62", "beats/min", "62", 62, "beats/min", "", "", "", 4.0, "WEEK 2", 14, "TREATMENT", "2014-01-16", 15, "AFTER STANDING FOR 3 MINUTES", 817, "PT3M", "PATIENT STANDING"], ["CDISCPILOT01", "VS", "01-701-1015", 59, "PULSE", "Pulse Rate", "SUPINE", "59", "beats/min", "59", 59, "beats/min", "", "", "", 5.0, "WEEK 4", 28, "TREATMENT", "2014-01-30", 29, "AFTER LYING DOWN FOR 5 MINUTES", 815, "PT5M", "PATIENT SUPINE"], ["CDISCPILOT01", "VS", "01-701-1015", 60, "PULSE", "Pulse Rate", "STANDING", "62", "beats/min", "62", 62, "beats/min", "", "", "", 5.0, "WEEK 4", 28, "TREATMENT", "2014-01-30", 29, "AFTER STANDING FOR 1 MINUTE", 816, "PT1M", "PATIENT STANDING"], ["CDISCPILOT01", "VS", "01-701-1015", 61, "PULSE", "Pulse Rate", "STANDING", "59", "beats/min", "59", 59, "beats/min", "", "", "", 5.0, "WEEK 4", 28, "TREATMENT", "2014-01-30", 29, "AFTER STANDING FOR 3 MINUTES", 817, "PT3M", "PATIENT STANDING"], ["CDISCPILOT01", "VS", "01-701-1015", 62, "PULSE", "Pulse Rate", "SUPINE", "67", "beats/min", "67", 67, "beats/min", "", "", "", 6.0, "AMBUL ECG REMOVAL", 30, "TREATMENT", "2014-02-01", 31, "AFTER LYING DOWN FOR 5 MINUTES", 815, "PT5M", "PATIENT SUPINE"], ["CDISCPILOT01", "VS", "01-701-1015", 63, "PULSE", "Pulse Rate", "STANDING", "69", "beats/min", "69", 69, "beats/min", "", "", "", 6.0, "AMBUL ECG REMOVAL", 30, "TREATMENT", "2014-02-01", 31, "AFTER STANDING FOR 1 MINUTE", 816, "PT1M", "PATIENT STANDING"], ["CDISCPILOT01", "VS", "01-701-1015", 64, "PULSE", "Pulse Rate", "STANDING", "65", "beats/min", "65", 65, "beats/min", "", "", "", 6.0, "AMBUL ECG REMOVAL", 30, "TREATMENT", "2014-02-01", 31, "AFTER STANDING FOR 3 MINUTES", 817, "PT3M", "PATIENT STANDING"], ["CDISCPILOT01", "VS", "01-701-1015", 65, "PULSE", "Pulse Rate", "SUPINE", "55", "beats/min", "55", 55, "beats/min", "", "", "", 7.0, "WEEK 6", 42, "TREATMENT", "2014-02-12", 42, "AFTER LYING DOWN FOR 5 MINUTES", 815, "PT5M", "PATIENT SUPINE"], ["CDISCPILOT01", "VS", "01-701-1015", 66, "PULSE", "Pulse Rate", "STANDING", "56", "beats/min", "56", 56, "beats/min", "", "", "", 7.0, "WEEK 6", 42, "TREATMENT", "2014-02-12", 42, "AFTER STANDING FOR 1 MINUTE", 816, "PT1M", "PATIENT STANDING"], ["CDISCPILOT01", "VS", "01-701-1015", 67, "PULSE", "Pulse Rate", "STANDING", "57", "beats/min", "57", 57, "beats/min", "", "", "", 7.0, "WEEK 6", 42, "TREATMENT", "2014-02-12", 42, "AFTER STANDING FOR 3 MINUTES", 817, "PT3M", "PATIENT STANDING"], ["CDISCPILOT01", "VS", "01-701-1015", 68, "PULSE", "Pulse Rate", "SUPINE", "57", "beats/min", "57", 57, "beats/min", "", "", "", 8.0, "WEEK 8", 56, "TREATMENT", "2014-03-05", 63, "AFTER LYING DOWN FOR 5 MINUTES", 815, "PT5M", "PATIENT SUPINE"], ["CDISCPILOT01", "VS", "01-701-1015", 69, "PULSE", "Pulse Rate", "STANDING", "60", "beats/min", "60", 60, "beats/min", "", "", "", 8.0, "WEEK 8", 56, "TREATMENT", "2014-03-05", 63, "AFTER STANDING FOR 1 MINUTE", 816, "PT1M", "PATIENT STANDING"], ["CDISCPILOT01", "VS", "01-701-1015", 70, "PULSE", "Pulse Rate", "STANDING", "57", "beats/min", "57", 57, "beats/min", "", "", "", 8.0, "WEEK 8", 56, "TREATMENT", "2014-03-05", 63, "AFTER STANDING FOR 3 MINUTES", 817, "PT3M", "PATIENT STANDING"], ["CDISCPILOT01", "VS", "01-701-1015", 71, "PULSE", "Pulse Rate", "SUPINE", "54", "beats/min", "54", 54, "beats/min", "", "", "", 9.0, "WEEK 12", 84, "TREATMENT", "2014-03-26", 84, "AFTER LYING DOWN FOR 5 MINUTES", 815, "PT5M", "PATIENT SUPINE"], ["CDISCPILOT01", "VS", "01-701-1015", 72, "PULSE", "Pulse Rate", "STANDING", "53", "beats/min", "53", 53, "beats/min", "", "", "", 9.0, "WEEK 12", 84, "TREATMENT", "2014-03-26", 84, "AFTER STANDING FOR 1 MINUTE", 816, "PT1M", "PATIENT STANDING"], ["CDISCPILOT01", "VS", "01-701-1015", 73, "PULSE", "Pulse Rate", "STANDING", "52", "beats/min", "52", 52, "beats/min", "", "", "", 9.0, "WEEK 12", 84, "TREATMENT", "2014-03-26", 84, "AFTER STANDING FOR 3 MINUTES", 817, "PT3M", "PATIENT STANDING"], ["CDISCPILOT01", "VS", "01-701-1015", 74, "PULSE", "Pulse Rate", "SUPINE", "60", "beats/min", "60", 60, "beats/min", "", "", "", 10.0, "WEEK 16", 112, "TREATMENT", "2014-05-07", 126, "AFTER LYING DOWN FOR 5 MINUTES", 815, "PT5M", "PATIENT SUPINE"], ["CDISCPILOT01", "VS", "01-701-1015", 75, "PULSE", "Pulse Rate", "STANDING", "55", "beats/min", "55", 55, "beats/min", "", "", "", 10.0, "WEEK 16", 112, "TREATMENT", "2014-05-07", 126, "AFTER STANDING FOR 1 MINUTE", 816, "PT1M", "PATIENT STANDING"], ["CDISCPILOT01", "VS", "01-701-1015", 76, "PULSE", "Pulse Rate", "STANDING", "61", "beats/min", "61", 61, "beats/min", "", "", "", 10.0, "WEEK 16", 112, "TREATMENT", "2014-05-07", 126, "AFTER STANDING FOR 3 MINUTES", 817, "PT3M", "PATIENT STANDING"], ["CDISCPILOT01", "VS", "01-701-1015", 77, "PULSE", "Pulse Rate", "SUPINE", "54", "beats/min", "54", 54, "beats/min", "", "", "", 11.0, "WEEK 20", 140, "TREATMENT", "2014-05-21", 140, "AFTER LYING DOWN FOR 5 MINUTES", 815, "PT5M", "PATIENT SUPINE"], ["CDISCPILOT01", "VS", "01-701-1015", 78, "PULSE", "Pulse Rate", "STANDING", "59", "beats/min", "59", 59, "beats/min", "", "", "", 11.0, "WEEK 20", 140, "TREATMENT", "2014-05-21", 140, "AFTER STANDING FOR 1 MINUTE", 816, "PT1M", "PATIENT STANDING"], ["CDISCPILOT01", "VS", "01-701-1015", 79, "PULSE", "Pulse Rate", "STANDING", "58", "beats/min", "58", 58, "beats/min", "", "", "", 11.0, "WEEK 20", 140, "TREATMENT", "2014-05-21", 140, "AFTER STANDING FOR 3 MINUTES", 817, "PT3M", "PATIENT STANDING"], ["CDISCPILOT01", "VS", "01-701-1015", 80, "PULSE", "Pulse Rate", "SUPINE", "55", "beats/min", "55", 55, "beats/min", "", "", "", 12.0, "WEEK 24", 168, "TREATMENT", "2014-06-18", 168, "AFTER LYING DOWN FOR 5 MINUTES", 815, "PT5M", "PATIENT SUPINE"], ["CDISCPILOT01", "VS", "01-701-1015", 81, "PULSE", "Pulse Rate", "STANDING", "57", "beats/min", "57", 57, "beats/min", "", "", "", 12.0, "WEEK 24", 168, "TREATMENT", "2014-06-18", 168, "AFTER STANDING FOR 1 MINUTE", 816, "PT1M", "PATIENT STANDING"], ["CDISCPILOT01", "VS", "01-701-1015", 82, "PULSE", "Pulse Rate", "STANDING", "56", "beats/min", "56", 56, "beats/min", "", "", "", 12.0, "WEEK 24", 168, "TREATMENT", "2014-06-18", 168, "AFTER STANDING FOR 3 MINUTES", 817, "PT3M", "PATIENT STANDING"], ["CDISCPILOT01", "VS", "01-701-1015", 83, "PULSE", "Pulse Rate", "SUPINE", "60", "beats/min", "60", 60, "beats/min", "", "", "", 13.0, "WEEK 26", 182, "TREATMENT", "2014-07-02", 182, "AFTER LYING DOWN FOR 5 MINUTES", 815, "PT5M", "PATIENT SUPINE"], ["CDISCPILOT01", "VS", "01-701-1015", 84, "PULSE", "Pulse Rate", "STANDING", "61", "beats/min", "61", 61, "beats/min", "", "", "", 13.0, "WEEK 26", 182, "TREATMENT", "2014-07-02", 182, "AFTER STANDING FOR 1 MINUTE", 816, "PT1M", "PATIENT STANDING"], ["CDISCPILOT01", "VS", "01-701-1015", 85, "PULSE", "Pulse Rate", "STANDING", "59", "beats/min", "59", 59, "beats/min", "", "", "", 13.0, "WEEK 26", 182, "TREATMENT", "2014-07-02", 182, "AFTER STANDING FOR 3 MINUTES", 817, "PT3M", "PATIENT STANDING"], ["CDISCPILOT01", "VS", "01-701-1015", 86, "SYSBP", "Systolic Blood Pressure", "SUPINE", "131", "mmHg", "131", 131, "mmHg", "", "", "", 1.0, "SCREENING 1", -7, "SCREENING", "2013-12-26", -7, "AFTER LYING DOWN FOR 5 MINUTES", 815, "PT5M", "PATIENT SUPINE"], ["CDISCPILOT01", "VS", "01-701-1015", 87, "SYSBP", "Systolic Blood Pressure", "STANDING", "129", "mmHg", "129", 129, "mmHg", "", "", "", 1.0, "SCREENING 1", -7, "SCREENING", "2013-12-26", -7, "AFTER STANDING FOR 1 MINUTE", 816, "PT1M", "PATIENT STANDING"], ["CDISCPILOT01", "VS", "01-701-1015", 88, "SYSBP", "Systolic Blood Pressure", "STANDING", "147", "mmHg", "147", 147, "mmHg", "", "", "", 1.0, "SCREENING 1", -7, "SCREENING", "2013-12-26", -7, "AFTER STANDING FOR 3 MINUTES", 817, "PT3M", "PATIENT STANDING"], ["CDISCPILOT01", "VS", "01-701-1015", 89, "SYSBP", "Systolic Blood Pressure", "SUPINE", "138", "mmHg", "138", 138, "mmHg", "", "", "", 2.0, "SCREENING 2", -1, "SCREENING", "2013-12-31", -2, "AFTER LYING DOWN FOR 5 MINUTES", 815, "PT5M", "PATIENT SUPINE"], ["CDISCPILOT01", "VS", "01-701-1015", 90, "SYSBP", "Systolic Blood Pressure", "STANDING", "137", "mmHg", "137", 137, "mmHg", "", "", "", 2.0, "SCREENING 2", -1, "SCREENING", "2013-12-31", -2, "AFTER STANDING FOR 1 MINUTE", 816, "PT1M", "PATIENT STANDING"], ["CDISCPILOT01", "VS", "01-701-1015", 91, "SYSBP", "Systolic Blood Pressure", "STANDING", "145", "mmHg", "145", 145, "mmHg", "", "", "", 2.0, "SCREENING 2", -1, "SCREENING", "2013-12-31", -2, "AFTER STANDING FOR 3 MINUTES", 817, "PT3M", "PATIENT STANDING"], ["CDISCPILOT01", "VS", "01-701-1015", 92, "SYSBP", "Systolic Blood Pressure", "SUPINE", "130", "mmHg", "130", 130, "mmHg", "", "", "Y", 3.0, "BASELINE", 1, "TREATMENT", "2014-01-02", 1, "AFTER LYING DOWN FOR 5 MINUTES", 815, "PT5M", "PATIENT SUPINE"], ["CDISCPILOT01", "VS", "01-701-1015", 93, "SYSBP", "Systolic Blood Pressure", "STANDING", "121", "mmHg", "121", 121, "mmHg", "", "", "Y", 3.0, "BASELINE", 1, "TREATMENT", "2014-01-02", 1, "AFTER STANDING FOR 1 MINUTE", 816, "PT1M", "PATIENT STANDING"], ["CDISCPILOT01", "VS", "01-701-1015", 94, "SYSBP", "Systolic Blood Pressure", "STANDING", "131", "mmHg", "131", 131, "mmHg", "", "", "Y", 3.0, "BASELINE", 1, "TREATMENT", "2014-01-02", 1, "AFTER STANDING FOR 3 MINUTES", 817, "PT3M", "PATIENT STANDING"], ["CDISCPILOT01", "VS", "01-701-1015", 95, "SYSBP", "Systolic Blood Pressure", "SUPINE", "137", "mmHg", "137", 137, "mmHg", "", "", "", 3.5, "AMBUL ECG PLACEMENT", 13, "TREATMENT", "2014-01-14", 13, "AFTER LYING DOWN FOR 5 MINUTES", 815, "PT5M", "PATIENT SUPINE"], ["CDISCPILOT01", "VS", "01-701-1015", 96, "SYSBP", "Systolic Blood Pressure", "STANDING", "127", "mmHg", "127", 127, "mmHg", "", "", "", 3.5, "AMBUL ECG PLACEMENT", 13, "TREATMENT", "2014-01-14", 13, "AFTER STANDING FOR 1 MINUTE", 816, "PT1M", "PATIENT STANDING"], ["CDISCPILOT01", "VS", "01-701-1015", 97, "SYSBP", "Systolic Blood Pressure", "STANDING", "146", "mmHg", "146", 146, "mmHg", "", "", "", 3.5, "AMBUL ECG PLACEMENT", 13, "TREATMENT", "2014-01-14", 13, "AFTER STANDING FOR 3 MINUTES", 817, "PT3M", "PATIENT STANDING"], ["CDISCPILOT01", "VS", "01-701-1015", 98, "SYSBP", "Systolic Blood Pressure", "SUPINE", "114", "mmHg", "114", 114, "mmHg", "", "", "", 4.0, "WEEK 2", 14, "TREATMENT", "2014-01-16", 15, "AFTER LYING DOWN FOR 5 MINUTES", 815, "PT5M", "PATIENT SUPINE"], ["CDISCPILOT01", "VS", "01-701-1015", 99, "SYSBP", "Systolic Blood Pressure", "STANDING", "121", "mmHg", "121", 121, "mmHg", "", "", "", 4.0, "WEEK 2", 14, "TREATMENT", "2014-01-16", 15, "AFTER STANDING FOR 1 MINUTE", 816, "PT1M", "PATIENT STANDING"], ["CDISCPILOT01", "VS", "01-701-1015", 100, "SYSBP", "Systolic Blood Pressure", "STANDING", "132", "mmHg", "132", 132, "mmHg", "", "", "", 4.0, "WEEK 2", 14, "TREATMENT", "2014-01-16", 15, "AFTER STANDING FOR 3 MINUTES", 817, "PT3M", "PATIENT STANDING"], ["CDISCPILOT01", "VS", "01-701-1015", 101, "SYSBP", "Systolic Blood Pressure", "SUPINE", "138", "mmHg", "138", 138, "mmHg", "", "", "", 5.0, "WEEK 4", 28, "TREATMENT", "2014-01-30", 29, "AFTER LYING DOWN FOR 5 MINUTES", 815, "PT5M", "PATIENT SUPINE"], ["CDISCPILOT01", "VS", "01-701-1015", 102, "SYSBP", "Systolic Blood Pressure", "STANDING", "137", "mmHg", "137", 137, "mmHg", "", "", "", 5.0, "WEEK 4", 28, "TREATMENT", "2014-01-30", 29, "AFTER STANDING FOR 1 MINUTE", 816, "PT1M", "PATIENT STANDING"], ["CDISCPILOT01", "VS", "01-701-1015", 103, "SYSBP", "Systolic Blood Pressure", "STANDING", "132", "mmHg", "132", 132, "mmHg", "", "", "", 5.0, "WEEK 4", 28, "TREATMENT", "2014-01-30", 29, "AFTER STANDING FOR 3 MINUTES", 817, "PT3M", "PATIENT STANDING"], ["CDISCPILOT01", "VS", "01-701-1015", 104, "SYSBP", "Systolic Blood Pressure", "SUPINE", "138", "mmHg", "138", 138, "mmHg", "", "", "", 6.0, "AMBUL ECG REMOVAL", 30, "TREATMENT", "2014-02-01", 31, "AFTER LYING DOWN FOR 5 MINUTES", 815, "PT5M", "PATIENT SUPINE"], ["CDISCPILOT01", "VS", "01-701-1015", 105, "SYSBP", "Systolic Blood Pressure", "STANDING", "131", "mmHg", "131", 131, "mmHg", "", "", "", 6.0, "AMBUL ECG REMOVAL", 30, "TREATMENT", "2014-02-01", 31, "AFTER STANDING FOR 1 MINUTE", 816, "PT1M", "PATIENT STANDING"], ["CDISCPILOT01", "VS", "01-701-1015", 106, "SYSBP", "Systolic Blood Pressure", "STANDING", "123", "mmHg", "123", 123, "mmHg", "", "", "", 6.0, "AMBUL ECG REMOVAL", 30, "TREATMENT", "2014-02-01", 31, "AFTER STANDING FOR 3 MINUTES", 817, "PT3M", "PATIENT STANDING"], ["CDISCPILOT01", "VS", "01-701-1015", 107, "SYSBP", "Systolic Blood Pressure", "SUPINE", "148", "mmHg", "148", 148, "mmHg", "", "", "", 7.0, "WEEK 6", 42, "TREATMENT", "2014-02-12", 42, "AFTER LYING DOWN FOR 5 MINUTES", 815, "PT5M", "PATIENT SUPINE"], ["CDISCPILOT01", "VS", "01-701-1015", 108, "SYSBP", "Systolic Blood Pressure", "STANDING", "137", "mmHg", "137", 137, "mmHg", "", "", "", 7.0, "WEEK 6", 42, "TREATMENT", "2014-02-12", 42, "AFTER STANDING FOR 1 MINUTE", 816, "PT1M", "PATIENT STANDING"], ["CDISCPILOT01", "VS", "01-701-1015", 109, "SYSBP", "Systolic Blood Pressure", "STANDING", "138", "mmHg", "138", 138, "mmHg", "", "", "", 7.0, "WEEK 6", 42, "TREATMENT", "2014-02-12", 42, "AFTER STANDING FOR 3 MINUTES", 817, "PT3M", "PATIENT STANDING"], ["CDISCPILOT01", "VS", "01-701-1015", 110, "SYSBP", "Systolic Blood Pressure", "SUPINE", "138", "mmHg", "138", 138, "mmHg", "", "", "", 8.0, "WEEK 8", 56, "TREATMENT", "2014-03-05", 63, "AFTER LYING DOWN FOR 5 MINUTES", 815, "PT5M", "PATIENT SUPINE"], ["CDISCPILOT01", "VS", "01-701-1015", 111, "SYSBP", "Systolic Blood Pressure", "STANDING", "146", "mmHg", "146", 146, "mmHg", "", "", "", 8.0, "WEEK 8", 56, "TREATMENT", "2014-03-05", 63, "AFTER STANDING FOR 1 MINUTE", 816, "PT1M", "PATIENT STANDING"], ["CDISCPILOT01", "VS", "01-701-1015", 112, "SYSBP", "Systolic Blood Pressure", "STANDING", "140", "mmHg", "140", 140, "mmHg", "", "", "", 8.0, "WEEK 8", 56, "TREATMENT", "2014-03-05", 63, "AFTER STANDING FOR 3 MINUTES", 817, "PT3M", "PATIENT STANDING"], ["CDISCPILOT01", "VS", "01-701-1015", 113, "SYSBP", "Systolic Blood Pressure", "SUPINE", "139", "mmHg", "139", 139, "mmHg", "", "", "", 9.0, "WEEK 12", 84, "TREATMENT", "2014-03-26", 84, "AFTER LYING DOWN FOR 5 MINUTES", 815, "PT5M", "PATIENT SUPINE"], ["CDISCPILOT01", "VS", "01-701-1015", 114, "SYSBP", "Systolic Blood Pressure", "STANDING", "146", "mmHg", "146", 146, "mmHg", "", "", "", 9.0, "WEEK 12", 84, "TREATMENT", "2014-03-26", 84, "AFTER STANDING FOR 1 MINUTE", 816, "PT1M", "PATIENT STANDING"], ["CDISCPILOT01", "VS", "01-701-1015", 115, "SYSBP", "Systolic Blood Pressure", "STANDING", "138", "mmHg", "138", 138, "mmHg", "", "", "", 9.0, "WEEK 12", 84, "TREATMENT", "2014-03-26", 84, "AFTER STANDING FOR 3 MINUTES", 817, "PT3M", "PATIENT STANDING"], ["CDISCPILOT01", "VS", "01-701-1015", 116, "SYSBP", "Systolic Blood Pressure", "SUPINE", "163", "mmHg", "163", 163, "mmHg", "", "", "", 10.0, "WEEK 16", 112, "TREATMENT", "2014-05-07", 126, "AFTER LYING DOWN FOR 5 MINUTES", 815, "PT5M", "PATIENT SUPINE"], ["CDISCPILOT01", "VS", "01-701-1015", 117, "SYSBP", "Systolic Blood Pressure", "STANDING", "145", "mmHg", "145", 145, "mmHg", "", "", "", 10.0, "WEEK 16", 112, "TREATMENT", "2014-05-07", 126, "AFTER STANDING FOR 1 MINUTE", 816, "PT1M", "PATIENT STANDING"], ["CDISCPILOT01", "VS", "01-701-1015", 118, "SYSBP", "Systolic Blood Pressure", "STANDING", "152", "mmHg", "152", 152, "mmHg", "", "", "", 10.0, "WEEK 16", 112, "TREATMENT", "2014-05-07", 126, "AFTER STANDING FOR 3 MINUTES", 817, "PT3M", "PATIENT STANDING"], ["CDISCPILOT01", "VS", "01-701-1015", 119, "SYSBP", "Systolic Blood Pressure", "SUPINE", "137", "mmHg", "137", 137, "mmHg", "", "", "", 11.0, "WEEK 20", 140, "TREATMENT", "2014-05-21", 140, "AFTER LYING DOWN FOR 5 MINUTES", 815, "PT5M", "PATIENT SUPINE"], ["CDISCPILOT01", "VS", "01-701-1015", 120, "SYSBP", "Systolic Blood Pressure", "STANDING", "139", "mmHg", "139", 139, "mmHg", "", "", "", 11.0, "WEEK 20", 140, "TREATMENT", "2014-05-21", 140, "AFTER STANDING FOR 1 MINUTE", 816, "PT1M", "PATIENT STANDING"], ["CDISCPILOT01", "VS", "01-701-1015", 121, "SYSBP", "Systolic Blood Pressure", "STANDING", "136", "mmHg", "136", 136, "mmHg", "", "", "", 11.0, "WEEK 20", 140, "TREATMENT", "2014-05-21", 140, "AFTER STANDING FOR 3 MINUTES", 817, "PT3M", "PATIENT STANDING"], ["CDISCPILOT01", "VS", "01-701-1015", 122, "SYSBP", "Systolic Blood Pressure", "SUPINE", "129", "mmHg", "129", 129, "mmHg", "", "", "", 12.0, "WEEK 24", 168, "TREATMENT", "2014-06-18", 168, "AFTER LYING DOWN FOR 5 MINUTES", 815, "PT5M", "PATIENT SUPINE"], ["CDISCPILOT01", "VS", "01-701-1015", 123, "SYSBP", "Systolic Blood Pressure", "STANDING", "131", "mmHg", "131", 131, "mmHg", "", "", "", 12.0, "WEEK 24", 168, "TREATMENT", "2014-06-18", 168, "AFTER STANDING FOR 1 MINUTE", 816, "PT1M", "PATIENT STANDING"], ["CDISCPILOT01", "VS", "01-701-1015", 124, "SYSBP", "Systolic Blood Pressure", "STANDING", "137", "mmHg", "137", 137, "mmHg", "", "", "", 12.0, "WEEK 24", 168, "TREATMENT", "2014-06-18", 168, "AFTER STANDING FOR 3 MINUTES", 817, "PT3M", "PATIENT STANDING"], ["CDISCPILOT01", "VS", "01-701-1015", 125, "SYSBP", "Systolic Blood Pressure", "SUPINE", "127", "mmHg", "127", 127, "mmHg", "", "", "", 13.0, "WEEK 26", 182, "TREATMENT", "2014-07-02", 182, "AFTER LYING DOWN FOR 5 MINUTES", 815, "PT5M", "PATIENT SUPINE"], ["CDISCPILOT01", "VS", "01-701-1015", 126, "SYSBP", "Systolic Blood Pressure", "STANDING", "128", "mmHg", "128", 128, "mmHg", "", "", "", 13.0, "WEEK 26", 182, "TREATMENT", "2014-07-02", 182, "AFTER STANDING FOR 1 MINUTE", 816, "PT1M", "PATIENT STANDING"], ["CDISCPILOT01", "VS", "01-701-1015", 127, "SYSBP", "Systolic Blood Pressure", "STANDING", "129", "mmHg", "129", 129, "mmHg", "", "", "", 13.0, "WEEK 26", 182, "TREATMENT", "2014-07-02", 182, "AFTER STANDING FOR 3 MINUTES", 817, "PT3M", "PATIENT STANDING"], ["CDISCPILOT01", "VS", "01-701-1015", 128, "TEMP", "Temperature", "", "96.9", "F", "36.06", 36, "C", "", "ORAL CAVITY", "", 1.0, "SCREENING 1", -7, "SCREENING", "2013-12-26", -7, "", null, "", ""], ["CDISCPILOT01", "VS", "01-701-1015", 129, "TEMP", "Temperature", "", "97.0", "F", "36.11", 36, "C", "", "ORAL CAVITY", "", 2.0, "SCREENING 2", -1, "SCREENING", "2013-12-31", -2, "", null, "", ""], ["CDISCPILOT01", "VS", "01-701-1015", 130, "TEMP", "Temperature", "", "97.2", "F", "36.22", 36, "C", "", "ORAL CAVITY", "Y", 3.0, "BASELINE", 1, "TREATMENT", "2014-01-02", 1, "", null, "", ""], ["CDISCPILOT01", "VS", "01-701-1015", 131, "TEMP", "Temperature", "", "96.6", "F", "35.89", 35, "C", "", "ORAL CAVITY", "", 3.5, "AMBUL ECG PLACEMENT", 13, "TREATMENT", "2014-01-14", 13, "", null, "", ""], ["CDISCPILOT01", "VS", "01-701-1015", 132, "TEMP", "Temperature", "", "97.7", "F", "36.5", 36, "C", "", "ORAL CAVITY", "", 4.0, "WEEK 2", 14, "TREATMENT", "2014-01-16", 15, "", null, "", ""], ["CDISCPILOT01", "VS", "01-701-1015", 133, "TEMP", "Temperature", "", "97.0", "F", "36.11", 36, "C", "", "ORAL CAVITY", "", 5.0, "WEEK 4", 28, "TREATMENT", "2014-01-30", 29, "", null, "", ""], ["CDISCPILOT01", "VS", "01-701-1015", 134, "TEMP", "Temperature", "", "97.5", "F", "36.39", 36, "C", "", "ORAL CAVITY", "", 6.0, "AMBUL ECG REMOVAL", 30, "TREATMENT", "2014-02-01", 31, "", null, "", ""], ["CDISCPILOT01", "VS", "01-701-1015", 135, "TEMP", "Temperature", "", "97.4", "F", "36.33", 36, "C", "", "ORAL CAVITY", "", 7.0, "WEEK 6", 42, "TREATMENT", "2014-02-12", 42, "", null, "", ""], ["CDISCPILOT01", "VS", "01-701-1015", 136, "TEMP", "Temperature", "", "98.0", "F", "36.67", 36, "C", "", "ORAL CAVITY", "", 8.0, "WEEK 8", 56, "TREATMENT", "2014-03-05", 63, "", null, "", ""], ["CDISCPILOT01", "VS", "01-701-1015", 137, "TEMP", "Temperature", "", "97.4", "F", "36.33", 36, "C", "", "ORAL CAVITY", "", 9.0, "WEEK 12", 84, "TREATMENT", "2014-03-26", 84, "", null, "", ""], ["CDISCPILOT01", "VS", "01-701-1015", 138, "TEMP", "Temperature", "", "97.9", "F", "36.61", 36, "C", "", "ORAL CAVITY", "", 10.0, "WEEK 16", 112, "TREATMENT", "2014-05-07", 126, "", null, "", ""], ["CDISCPILOT01", "VS", "01-701-1015", 139, "TEMP", "Temperature", "", "97.4", "F", "36.33", 36, "C", "", "ORAL CAVITY", "", 11.0, "WEEK 20", 140, "TREATMENT", "2014-05-21", 140, "", null, "", ""], ["CDISCPILOT01", "VS", "01-701-1015", 140, "TEMP", "Temperature", "", "97.7", "F", "36.5", 36, "C", "", "ORAL CAVITY", "", 12.0, "WEEK 24", 168, "TREATMENT", "2014-06-18", 168, "", null, "", ""], ["CDISCPILOT01", "VS", "01-701-1015", 141, "TEMP", "Temperature", "", "97.2", "F", "36.22", 36, "C", "", "ORAL CAVITY", "", 13.0, "WEEK 26", 182, "TREATMENT", "2014-07-02", 182, "", null, "", ""], ["CDISCPILOT01", "VS", "01-701-1015", 142, "WEIGHT", "Weight", "", "119.0", "LB", "53.98", 53, "kg", "", "", "", 1.0, "SCREENING 1", -7, "SCREENING", "2013-12-26", -7, "", null, "", ""], ["CDISCPILOT01", "VS", "01-701-1015", 143, "WEIGHT", "Weight", "", "120.0", "LB", "54.43", 54, "kg", "", "", "Y", 3.0, "BASELINE", 1, "TREATMENT", "2014-01-02", 1, "", null, "", ""], ["CDISCPILOT01", "VS", "01-701-1015", 144, "WEIGHT", "Weight", "", "117.0", "LB", "53.07", 53, "kg", "", "", "", 4.0, "WEEK 2", 14, "TREATMENT", "2014-01-16", 15, "", null, "", ""], ["CDISCPILOT01", "VS", "01-701-1015", 145, "WEIGHT", "Weight", "", "119.0", "LB", "53.98", 53, "kg", "", "", "", 5.0, "WEEK 4", 28, "TREATMENT", "2014-01-30", 29, "", null, "", ""], ["CDISCPILOT01", "VS", "01-701-1015", 146, "WEIGHT", "Weight", "", "117.0", "LB", "53.07", 53, "kg", "", "", "", 7.0, "WEEK 6", 42, "TREATMENT", "2014-02-12", 42, "", null, "", ""], ["CDISCPILOT01", "VS", "01-701-1015", 147, "WEIGHT", "Weight", "", "117.0", "LB", "53.07", 53, "kg", "", "", "", 8.0, "WEEK 8", 56, "TREATMENT", "2014-03-05", 63, "", null, "", ""], ["CDISCPILOT01", "VS", "01-701-1015", 148, "WEIGHT", "Weight", "", "117.0", "LB", "53.07", 53, "kg", "", "", "", 9.0, "WEEK 12", 84, "TREATMENT", "2014-03-26", 84, "", null, "", ""], ["CDISCPILOT01", "VS", "01-701-1015", 149, "WEIGHT", "Weight", "", "117.0", "LB", "53.07", 53, "kg", "", "", "", 10.0, "WEEK 16", 112, "TREATMENT", "2014-05-07", 126, "", null, "", ""], ["CDISCPILOT01", "VS", "01-701-1015", 150, "WEIGHT", "Weight", "", "117.0", "LB", "53.07", 53, "kg", "", "", "", 11.0, "WEEK 20", 140, "TREATMENT", "2014-05-21", 140, "", null, "", ""], ["CDISCPILOT01", "VS", "01-701-1015", 151, "WEIGHT", "Weight", "", "117.0", "LB", "53.07", 53, "kg", "", "", "", 12.0, "WEEK 24", 168, "TREATMENT", "2014-06-18", 168, "", null, "", ""], ["CDISCPILOT01", "VS", "01-701-1015", 152, "WEIGHT", "Weight", "", "118.0", "LB", "53.52", 53, "kg", "", "", "", 13.0, "WEEK 26", 182, "TREATMENT", "2014-07-02", 182, "", null, "", ""], ["CDISCPILOT01", "VS", "01-701-1023", 1, "DIABP", "Diastolic Blood Pressure", "SUPINE", "86", "mmHg", "86", 86, "mmHg", "", "", "", 1.0, "SCREENING 1", -7, "SCREENING", "2012-07-22", -14, "AFTER LYING DOWN FOR 5 MINUTES", 815, "PT5M", "PATIENT SUPINE"], ["CDISCPILOT01", "VS", "01-701-1023", 2, "DIABP", "Diastolic Blood Pressure", "STANDING", "89", "mmHg", "89", 89, "mmHg", "", "", "", 1.0, "SCREENING 1", -7, "SCREENING", "2012-07-22", -14, "AFTER STANDING FOR 1 MINUTE", 816, "PT1M", "PATIENT STANDING"], ["CDISCPILOT01", "VS", "01-701-1023", 3, "DIABP", "Diastolic Blood Pressure", "STANDING", "90", "mmHg", "90", 90, "mmHg", "", "", "", 1.0, "SCREENING 1", -7, "SCREENING", "2012-07-22", -14, "AFTER STANDING FOR 3 MINUTES", 817, "PT3M", "PATIENT STANDING"], ["CDISCPILOT01", "VS", "01-701-1023", 4, "DIABP", "Diastolic Blood Pressure", "SUPINE", "77", "mmHg", "77", 77, "mmHg", "", "", "", 2.0, "SCREENING 2", -1, "SCREENING", "2012-08-03", -2, "AFTER LYING DOWN FOR 5 MINUTES", 815, "PT5M", "PATIENT SUPINE"], ["CDISCPILOT01", "VS", "01-701-1023", 5, "DIABP", "Diastolic Blood Pressure", "STANDING", "79", "mmHg", "79", 79, "mmHg", "", "", "", 2.0, "SCREENING 2", -1, "SCREENING", "2012-08-03", -2, "AFTER STANDING FOR 1 MINUTE", 816, "PT1M", "PATIENT STANDING"], ["CDISCPILOT01", "VS", "01-701-1023", 6, "DIABP", "Diastolic Blood Pressure", "STANDING", "85", "mmHg", "85", 85, "mmHg", "", "", "", 2.0, "SCREENING 2", -1, "SCREENING", "2012-08-03", -2, "AFTER STANDING FOR 3 MINUTES", 817, "PT3M", "PATIENT STANDING"], ["CDISCPILOT01", "VS", "01-701-1023", 7, "DIABP", "Diastolic Blood Pressure", "SUPINE", "84", "mmHg", "84", 84, "mmHg", "", "", "Y", 3.0, "BASELINE", 1, "TREATMENT", "2012-08-05", 1, "AFTER LYING DOWN FOR 5 MINUTES", 815, "PT5M", "PATIENT SUPINE"], ["CDISCPILOT01", "VS", "01-701-1023", 8, "DIABP", "Diastolic Blood Pressure", "STANDING", "86", "mmHg", "86", 86, "mmHg", "", "", "Y", 3.0, "BASELINE", 1, "TREATMENT", "2012-08-05", 1, "AFTER STANDING FOR 1 MINUTE", 816, "PT1M", "PATIENT STANDING"], ["CDISCPILOT01", "VS", "01-701-1023", 9, "DIABP", "Diastolic Blood Pressure", "STANDING", "88", "mmHg", "88", 88, "mmHg", "", "", "Y", 3.0, "BASELINE", 1, "TREATMENT", "2012-08-05", 1, "AFTER STANDING FOR 3 MINUTES", 817, "PT3M", "PATIENT STANDING"], ["CDISCPILOT01", "VS", "01-701-1023", 10, "DIABP", "Diastolic Blood Pressure", "SUPINE", "82", "mmHg", "82", 82, "mmHg", "", "", "", 3.5, "AMBUL ECG PLACEMENT", 13, "TREATMENT", "2012-08-26", 22, "AFTER LYING DOWN FOR 5 MINUTES", 815, "PT5M", "PATIENT SUPINE"], ["CDISCPILOT01", "VS", "01-701-1023", 11, "DIABP", "Diastolic Blood Pressure", "STANDING", "88", "mmHg", "88", 88, "mmHg", "", "", "", 3.5, "AMBUL ECG PLACEMENT", 13, "TREATMENT", "2012-08-26", 22, "AFTER STANDING FOR 1 MINUTE", 816, "PT1M", "PATIENT STANDING"], ["CDISCPILOT01", "VS", "01-701-1023", 12, "DIABP", "Diastolic Blood Pressure", "STANDING", "89", "mmHg", "89", 89, "mmHg", "", "", "", 3.5, "AMBUL ECG PLACEMENT", 13, "TREATMENT", "2012-08-26", 22, "AFTER STANDING FOR 3 MINUTES", 817, "PT3M", "PATIENT STANDING"], ["CDISCPILOT01", "VS", "01-701-1023", 13, "DIABP", "Diastolic Blood Pressure", "SUPINE", "88", "mmHg", "88", 88, "mmHg", "", "", "", 4.0, "WEEK 2", 14, "TREATMENT", "2012-08-27", 23, "AFTER LYING DOWN FOR 5 MINUTES", 815, "PT5M", "PATIENT SUPINE"], ["CDISCPILOT01", "VS", "01-701-1023", 14, "DIABP", "Diastolic Blood Pressure", "STANDING", "86", "mmHg", "86", 86, "mmHg", "", "", "", 4.0, "WEEK 2", 14, "TREATMENT", "2012-08-27", 23, "AFTER STANDING FOR 1 MINUTE", 816, "PT1M", "PATIENT STANDING"], ["CDISCPILOT01", "VS", "01-701-1023", 15, "DIABP", "Diastolic Blood Pressure", "STANDING", "90", "mmHg", "90", 90, "mmHg", "", "", "", 4.0, "WEEK 2", 14, "TREATMENT", "2012-08-27", 23, "AFTER STANDING FOR 3 MINUTES", 817, "PT3M", "PATIENT STANDING"], ["CDISCPILOT01", "VS", "01-701-1023", 16, "DIABP", "Diastolic Blood Pressure", "SUPINE", "86", "mmHg", "86", 86, "mmHg", "", "", "", 5.0, "WEEK 4", 28, "TREATMENT", "2012-09-02", 29, "AFTER LYING DOWN FOR 5 MINUTES", 815, "PT5M", "PATIENT SUPINE"], ["CDISCPILOT01", "VS", "01-701-1023", 17, "DIABP", "Diastolic Blood Pressure", "STANDING", "88", "mmHg", "88", 88, "mmHg", "", "", "", 5.0, "WEEK 4", 28, "TREATMENT", "2012-09-02", 29, "AFTER STANDING FOR 1 MINUTE", 816, "PT1M", "PATIENT STANDING"], ["CDISCPILOT01", "VS", "01-701-1023", 18, "DIABP", "Diastolic Blood Pressure", "STANDING", "92", "mmHg", "92", 92, "mmHg", "", "", "", 5.0, "WEEK 4", 28, "TREATMENT", "2012-09-02", 29, "AFTER STANDING FOR 3 MINUTES", 817, "PT3M", "PATIENT STANDING"], ["CDISCPILOT01", "VS", "01-701-1023", 19, "DIABP", "Diastolic Blood Pressure", "SUPINE", "89", "mmHg", "89", 89, "mmHg", "", "", "", 201.0, "RETRIEVAL", 168, "TREATMENT", "2013-02-18", 198, "AFTER LYING DOWN FOR 5 MINUTES", 815, "PT5M", "PATIENT SUPINE"], ["CDISCPILOT01", "VS", "01-701-1023", 20, "DIABP", "Diastolic Blood Pressure", "STANDING", "86", "mmHg", "86", 86, "mmHg", "", "", "", 201.0, "RETRIEVAL", 168, "TREATMENT", "2013-02-18", 198, "AFTER STANDING FOR 1 MINUTE", 816, "PT1M", "PATIENT STANDING"], ["CDISCPILOT01", "VS", "01-701-1023", 21, "DIABP", "Diastolic Blood Pressure", "STANDING", "84", "mmHg", "84", 84, "mmHg", "", "", "", 201.0, "RETRIEVAL", 168, "TREATMENT", "2013-02-18", 198, "AFTER STANDING FOR 3 MINUTES", 817, "PT3M", "PATIENT STANDING"], ["CDISCPILOT01", "VS", "01-701-1023", 22, "HEIGHT", "Height", "", "64.0", "in", "162.56", 162, "cm", "", "", "", 1.0, "SCREENING 1", -7, "SCREENING", "2012-07-22", -14, "", null, "", ""], ["CDISCPILOT01", "VS", "01-701-1023", 23, "PULSE", "Pulse Rate", "SUPINE", "65", "beats/min", "65", 65, "beats/min", "", "", "", 1.0, "SCREENING 1", -7, "SCREENING", "2012-07-22", -14, "AFTER LYING DOWN FOR 5 MINUTES", 815, "PT5M", "PATIENT SUPINE"], ["CDISCPILOT01", "VS", "01-701-1023", 24, "PULSE", "Pulse Rate", "STANDING", "78", "beats/min", "78", 78, "beats/min", "", "", "", 1.0, "SCREENING 1", -7, "SCREENING", "2012-07-22", -14, "AFTER STANDING FOR 1 MINUTE", 816, "PT1M", "PATIENT STANDING"], ["CDISCPILOT01", "VS", "01-701-1023", 25, "PULSE", "Pulse Rate", "STANDING", "74", "beats/min", "74", 74, "beats/min", "", "", "", 1.0, "SCREENING 1", -7, "SCREENING", "2012-07-22", -14, "AFTER STANDING FOR 3 MINUTES", 817, "PT3M", "PATIENT STANDING"], ["CDISCPILOT01", "VS", "01-701-1023", 26, "PULSE", "Pulse Rate", "SUPINE", "79", "beats/min", "79", 79, "beats/min", "", "", "", 2.0, "SCREENING 2", -1, "SCREENING", "2012-08-03", -2, "AFTER LYING DOWN FOR 5 MINUTES", 815, "PT5M", "PATIENT SUPINE"], ["CDISCPILOT01", "VS", "01-701-1023", 27, "PULSE", "Pulse Rate", "STANDING", "91", "beats/min", "91", 91, "beats/min", "", "", "", 2.0, "SCREENING 2", -1, "SCREENING", "2012-08-03", -2, "AFTER STANDING FOR 1 MINUTE", 816, "PT1M", "PATIENT STANDING"], ["CDISCPILOT01", "VS", "01-701-1023", 28, "PULSE", "Pulse Rate", "STANDING", "92", "beats/min", "92", 92, "beats/min", "", "", "", 2.0, "SCREENING 2", -1, "SCREENING", "2012-08-03", -2, "AFTER STANDING FOR 3 MINUTES", 817, "PT3M", "PATIENT STANDING"], ["CDISCPILOT01", "VS", "01-701-1023", 29, "PULSE", "Pulse Rate", "SUPINE", "68", "beats/min", "68", 68, "beats/min", "", "", "Y", 3.0, "BASELINE", 1, "TREATMENT", "2012-08-05", 1, "AFTER LYING DOWN FOR 5 MINUTES", 815, "PT5M", "PATIENT SUPINE"], ["CDISCPILOT01", "VS", "01-701-1023", 30, "PULSE", "Pulse Rate", "STANDING", "80", "beats/min", "80", 80, "beats/min", "", "", "Y", 3.0, "BASELINE", 1, "TREATMENT", "2012-08-05", 1, "AFTER STANDING FOR 1 MINUTE", 816, "PT1M", "PATIENT STANDING"], ["CDISCPILOT01", "VS", "01-701-1023", 31, "PULSE", "Pulse Rate", "STANDING", "76", "beats/min", "76", 76, "beats/min", "", "", "Y", 3.0, "BASELINE", 1, "TREATMENT", "2012-08-05", 1, "AFTER STANDING FOR 3 MINUTES", 817, "PT3M", "PATIENT STANDING"], ["CDISCPILOT01", "VS", "01-701-1023", 32, "PULSE", "Pulse Rate", "SUPINE", "71", "beats/min", "71", 71, "beats/min", "", "", "", 3.5, "AMBUL ECG PLACEMENT", 13, "TREATMENT", "2012-08-26", 22, "AFTER LYING DOWN FOR 5 MINUTES", 815, "PT5M", "PATIENT SUPINE"], ["CDISCPILOT01", "VS", "01-701-1023", 33, "PULSE", "Pulse Rate", "STANDING", "79", "beats/min", "79", 79, "beats/min", "", "", "", 3.5, "AMBUL ECG PLACEMENT", 13, "TREATMENT", "2012-08-26", 22, "AFTER STANDING FOR 1 MINUTE", 816, "PT1M", "PATIENT STANDING"], ["CDISCPILOT01", "VS", "01-701-1023", 34, "PULSE", "Pulse Rate", "STANDING", "77", "beats/min", "77", 77, "beats/min", "", "", "", 3.5, "AMBUL ECG PLACEMENT", 13, "TREATMENT", "2012-08-26", 22, "AFTER STANDING FOR 3 MINUTES", 817, "PT3M", "PATIENT STANDING"], ["CDISCPILOT01", "VS", "01-701-1023", 35, "PULSE", "Pulse Rate", "SUPINE", "84", "beats/min", "84", 84, "beats/min", "", "", "", 4.0, "WEEK 2", 14, "TREATMENT", "2012-08-27", 23, "AFTER LYING DOWN FOR 5 MINUTES", 815, "PT5M", "PATIENT SUPINE"], ["CDISCPILOT01", "VS", "01-701-1023", 36, "PULSE", "Pulse Rate", "STANDING", "92", "beats/min", "92", 92, "beats/min", "", "", "", 4.0, "WEEK 2", 14, "TREATMENT", "2012-08-27", 23, "AFTER STANDING FOR 1 MINUTE", 816, "PT1M", "PATIENT STANDING"], ["CDISCPILOT01", "VS", "01-701-1023", 37, "PULSE", "Pulse Rate", "STANDING", "94", "beats/min", "94", 94, "beats/min", "", "", "", 4.0, "WEEK 2", 14, "TREATMENT", "2012-08-27", 23, "AFTER STANDING FOR 3 MINUTES", 817, "PT3M", "PATIENT STANDING"], ["CDISCPILOT01", "VS", "01-701-1023", 38, "PULSE", "Pulse Rate", "SUPINE", "64", "beats/min", "64", 64, "beats/min", "", "", "", 5.0, "WEEK 4", 28, "TREATMENT", "2012-09-02", 29, "AFTER LYING DOWN FOR 5 MINUTES", 815, "PT5M", "PATIENT SUPINE"], ["CDISCPILOT01", "VS", "01-701-1023", 39, "PULSE", "Pulse Rate", "STANDING", "76", "beats/min", "76", 76, "beats/min", "", "", "", 5.0, "WEEK 4", 28, "TREATMENT", "2012-09-02", 29, "AFTER STANDING FOR 1 MINUTE", 816, "PT1M", "PATIENT STANDING"], ["CDISCPILOT01", "VS", "01-701-1023", 40, "PULSE", "Pulse Rate", "STANDING", "70", "beats/min", "70", 70, "beats/min", "", "", "", 5.0, "WEEK 4", 28, "TREATMENT", "2012-09-02", 29, "AFTER STANDING FOR 3 MINUTES", 817, "PT3M", "PATIENT STANDING"], ["CDISCPILOT01", "VS", "01-701-1023", 41, "PULSE", "Pulse Rate", "SUPINE", "72", "beats/min", "72", 72, "beats/min", "", "", "", 201.0, "RETRIEVAL", 168, "TREATMENT", "2013-02-18", 198, "AFTER LYING DOWN FOR 5 MINUTES", 815, "PT5M", "PATIENT SUPINE"], ["CDISCPILOT01", "VS", "01-701-1023", 42, "PULSE", "Pulse Rate", "STANDING", "84", "beats/min", "84", 84, "beats/min", "", "", "", 201.0, "RETRIEVAL", 168, "TREATMENT", "2013-02-18", 198, "AFTER STANDING FOR 1 MINUTE", 816, "PT1M", "PATIENT STANDING"], ["CDISCPILOT01", "VS", "01-701-1023", 43, "PULSE", "Pulse Rate", "STANDING", "76", "beats/min", "76", 76, "beats/min", "", "", "", 201.0, "RETRIEVAL", 168, "TREATMENT", "2013-02-18", 198, "AFTER STANDING FOR 3 MINUTES", 817, "PT3M", "PATIENT STANDING"], ["CDISCPILOT01", "VS", "01-701-1023", 44, "SYSBP", "Systolic Blood Pressure", "SUPINE", "130", "mmHg", "130", 130, "mmHg", "", "", "", 1.0, "SCREENING 1", -7, "SCREENING", "2012-07-22", -14, "AFTER LYING DOWN FOR 5 MINUTES", 815, "PT5M", "PATIENT SUPINE"], ["CDISCPILOT01", "VS", "01-701-1023", 45, "SYSBP", "Systolic Blood Pressure", "STANDING", "132", "mmHg", "132", 132, "mmHg", "", "", "", 1.0, "SCREENING 1", -7, "SCREENING", "2012-07-22", -14, "AFTER STANDING FOR 1 MINUTE", 816, "PT1M", "PATIENT STANDING"], ["CDISCPILOT01", "VS", "01-701-1023", 46, "SYSBP", "Systolic Blood Pressure", "STANDING", "140", "mmHg", "140", 140, "mmHg", "", "", "", 1.0, "SCREENING 1", -7, "SCREENING", "2012-07-22", -14, "AFTER STANDING FOR 3 MINUTES", 817, "PT3M", "PATIENT STANDING"], ["CDISCPILOT01", "VS", "01-701-1023", 47, "SYSBP", "Systolic Blood Pressure", "SUPINE", "131", "mmHg", "131", 131, "mmHg", "", "", "", 2.0, "SCREENING 2", -1, "SCREENING", "2012-08-03", -2, "AFTER LYING DOWN FOR 5 MINUTES", 815, "PT5M", "PATIENT SUPINE"], ["CDISCPILOT01", "VS", "01-701-1023", 48, "SYSBP", "Systolic Blood Pressure", "STANDING", "129", "mmHg", "129", 129, "mmHg", "", "", "", 2.0, "SCREENING 2", -1, "SCREENING", "2012-08-03", -2, "AFTER STANDING FOR 1 MINUTE", 816, "PT1M", "PATIENT STANDING"], ["CDISCPILOT01", "VS", "01-701-1023", 49, "SYSBP", "Systolic Blood Pressure", "STANDING", "138", "mmHg", "138", 138, "mmHg", "", "", "", 2.0, "SCREENING 2", -1, "SCREENING", "2012-08-03", -2, "AFTER STANDING FOR 3 MINUTES", 817, "PT3M", "PATIENT STANDING"], ["CDISCPILOT01", "VS", "01-701-1023", 50, "SYSBP", "Systolic Blood Pressure", "SUPINE", "130", "mmHg", "130", 130, "mmHg", "", "", "Y", 3.0, "BASELINE", 1, "TREATMENT", "2012-08-05", 1, "AFTER LYING DOWN FOR 5 MINUTES", 815, "PT5M", "PATIENT SUPINE"], ["CDISCPILOT01", "VS", "01-701-1023", 51, "SYSBP", "Systolic Blood Pressure", "STANDING", "132", "mmHg", "132", 132, "mmHg", "", "", "Y", 3.0, "BASELINE", 1, "TREATMENT", "2012-08-05", 1, "AFTER STANDING FOR 1 MINUTE", 816, "PT1M", "PATIENT STANDING"], ["CDISCPILOT01", "VS", "01-701-1023", 52, "SYSBP", "Systolic Blood Pressure", "STANDING", "132", "mmHg", "132", 132, "mmHg", "", "", "Y", 3.0, "BASELINE", 1, "TREATMENT", "2012-08-05", 1, "AFTER STANDING FOR 3 MINUTES", 817, "PT3M", "PATIENT STANDING"], ["CDISCPILOT01", "VS", "01-701-1023", 53, "SYSBP", "Systolic Blood Pressure", "SUPINE", "133", "mmHg", "133", 133, "mmHg", "", "", "", 3.5, "AMBUL ECG PLACEMENT", 13, "TREATMENT", "2012-08-26", 22, "AFTER LYING DOWN FOR 5 MINUTES", 815, "PT5M", "PATIENT SUPINE"], ["CDISCPILOT01", "VS", "01-701-1023", 54, "SYSBP", "Systolic Blood Pressure", "STANDING", "130", "mmHg", "130", 130, "mmHg", "", "", "", 3.5, "AMBUL ECG PLACEMENT", 13, "TREATMENT", "2012-08-26", 22, "AFTER STANDING FOR 1 MINUTE", 816, "PT1M", "PATIENT STANDING"], ["CDISCPILOT01", "VS", "01-701-1023", 55, "SYSBP", "Systolic Blood Pressure", "STANDING", "138", "mmHg", "138", 138, "mmHg", "", "", "", 3.5, "AMBUL ECG PLACEMENT", 13, "TREATMENT", "2012-08-26", 22, "AFTER STANDING FOR 3 MINUTES", 817, "PT3M", "PATIENT STANDING"], ["CDISCPILOT01", "VS", "01-701-1023", 56, "SYSBP", "Systolic Blood Pressure", "SUPINE", "122", "mmHg", "122", 122, "mmHg", "", "", "", 4.0, "WEEK 2", 14, "TREATMENT", "2012-08-27", 23, "AFTER LYING DOWN FOR 5 MINUTES", 815, "PT5M", "PATIENT SUPINE"], ["CDISCPILOT01", "VS", "01-701-1023", 57, "SYSBP", "Systolic Blood Pressure", "STANDING", "130", "mmHg", "130", 130, "mmHg", "", "", "", 4.0, "WEEK 2", 14, "TREATMENT", "2012-08-27", 23, "AFTER STANDING FOR 1 MINUTE", 816, "PT1M", "PATIENT STANDING"], ["CDISCPILOT01", "VS", "01-701-1023", 58, "SYSBP", "Systolic Blood Pressure", "STANDING", "138", "mmHg", "138", 138, "mmHg", "", "", "", 4.0, "WEEK 2", 14, "TREATMENT", "2012-08-27", 23, "AFTER STANDING FOR 3 MINUTES", 817, "PT3M", "PATIENT STANDING"], ["CDISCPILOT01", "VS", "01-701-1023", 59, "SYSBP", "Systolic Blood Pressure", "SUPINE", "130", "mmHg", "130", 130, "mmHg", "", "", "", 5.0, "WEEK 4", 28, "TREATMENT", "2012-09-02", 29, "AFTER LYING DOWN FOR 5 MINUTES", 815, "PT5M", "PATIENT SUPINE"], ["CDISCPILOT01", "VS", "01-701-1023", 60, "SYSBP", "Systolic Blood Pressure", "STANDING", "134", "mmHg", "134", 134, "mmHg", "", "", "", 5.0, "WEEK 4", 28, "TREATMENT", "2012-09-02", 29, "AFTER STANDING FOR 1 MINUTE", 816, "PT1M", "PATIENT STANDING"], ["CDISCPILOT01", "VS", "01-701-1023", 61, "SYSBP", "Systolic Blood Pressure", "STANDING", "136", "mmHg", "136", 136, "mmHg", "", "", "", 5.0, "WEEK 4", 28, "TREATMENT", "2012-09-02", 29, "AFTER STANDING FOR 3 MINUTES", 817, "PT3M", "PATIENT STANDING"], ["CDISCPILOT01", "VS", "01-701-1023", 62, "SYSBP", "Systolic Blood Pressure", "SUPINE", "125", "mmHg", "125", 125, "mmHg", "", "", "", 201.0, "RETRIEVAL", 168, "TREATMENT", "2013-02-18", 198, "AFTER LYING DOWN FOR 5 MINUTES", 815, "PT5M", "PATIENT SUPINE"], ["CDISCPILOT01", "VS", "01-701-1023", 63, "SYSBP", "Systolic Blood Pressure", "STANDING", "110", "mmHg", "110", 110, "mmHg", "", "", "", 201.0, "RETRIEVAL", 168, "TREATMENT", "2013-02-18", 198, "AFTER STANDING FOR 1 MINUTE", 816, "PT1M", "PATIENT STANDING"], ["CDISCPILOT01", "VS", "01-701-1023", 64, "SYSBP", "Systolic Blood Pressure", "STANDING", "130", "mmHg", "130", 130, "mmHg", "", "", "", 201.0, "RETRIEVAL", 168, "TREATMENT", "2013-02-18", 198, "AFTER STANDING FOR 3 MINUTES", 817, "PT3M", "PATIENT STANDING"], ["CDISCPILOT01", "VS", "01-701-1023", 65, "TEMP", "Temperature", "", "097.8", "F", "36.56", 36, "C", "", "ORAL CAVITY", "", 1.0, "SCREENING 1", -7, "SCREENING", "2012-07-22", -14, "", null, "", ""], ["CDISCPILOT01", "VS", "01-701-1023", 66, "TEMP", "Temperature", "", "097.8", "F", "36.56", 36, "C", "", "ORAL CAVITY", "", 2.0, "SCREENING 2", -1, "SCREENING", "2012-08-03", -2, "", null, "", ""], ["CDISCPILOT01", "VS", "01-701-1023", 67, "TEMP", "Temperature", "", "097.3", "F", "36.28", 36, "C", "", "ORAL CAVITY", "Y", 3.0, "BASELINE", 1, "TREATMENT", "2012-08-05", 1, "", null, "", ""], ["CDISCPILOT01", "VS", "01-701-1023", 68, "TEMP", "Temperature", "", "097.6", "F", "36.44", 36, "C", "", "ORAL CAVITY", "", 3.5, "AMBUL ECG PLACEMENT", 13, "TREATMENT", "2012-08-26", 22, "", null, "", ""], ["CDISCPILOT01", "VS", "01-701-1023", 69, "TEMP", "Temperature", "", "098.5", "F", "36.94", 36, "C", "", "ORAL CAVITY", "", 4.0, "WEEK 2", 14, "TREATMENT", "2012-08-27", 23, "", null, "", ""], ["CDISCPILOT01", "VS", "01-701-1023", 70, "TEMP", "Temperature", "", "097.2", "F", "36.22", 36, "C", "", "ORAL CAVITY", "", 5.0, "WEEK 4", 28, "TREATMENT", "2012-09-02", 29, "", null, "", ""], ["CDISCPILOT01", "VS", "01-701-1023", 71, "TEMP", "Temperature", "", "97.8", "F", "36.56", 36, "C", "", "ORAL CAVITY", "", 201.0, "RETRIEVAL", 168, "TREATMENT", "2013-02-18", 198, "", null, "", ""], ["CDISCPILOT01", "VS", "01-701-1023", 72, "WEIGHT", "Weight", "", "173.0", "LB", "78.47", 78, "kg", "", "", "", 1.0, "SCREENING 1", -7, "SCREENING", "2012-07-22", -14, "", null, "", ""], ["CDISCPILOT01", "VS", "01-701-1023", 73, "WEIGHT", "Weight", "", "177.0", "LB", "80.29", 80, "kg", "", "", "Y", 3.0, "BASELINE", 1, "TREATMENT", "2012-08-05", 1, "", null, "", ""], ["CDISCPILOT01", "VS", "01-701-1023", 74, "WEIGHT", "Weight", "", "178.0", "LB", "80.74", 80, "kg", "", "", "", 4.0, "WEEK 2", 14, "TREATMENT", "2012-08-27", 23, "", null, "", ""], ["CDISCPILOT01", "VS", "01-701-1023", 75, "WEIGHT", "Weight", "", "177.0", "LB", "80.29", 80, "kg", "", "", "", 5.0, "WEEK 4", 28, "TREATMENT", "2012-09-02", 29, "", null, "", ""], ["CDISCPILOT01", "VS", "01-701-1028", 1, "DIABP", "Diastolic Blood Pressure", "SUPINE", "76", "mmHg", "76", 76, "mmHg", "", "", "", 1.0, "SCREENING 1", -7, "SCREENING", "2013-07-11", -8, "AFTER LYING DOWN FOR 5 MINUTES", 815, "PT5M", "PATIENT SUPINE"], ["CDISCPILOT01", "VS", "01-701-1028", 2, "DIABP", "Diastolic Blood Pressure", "STANDING", "70", "mmHg", "70", 70, "mmHg", "", "", "", 1.0, "SCREENING 1", -7, "SCREENING", "2013-07-11", -8, "AFTER STANDING FOR 1 MINUTE", 816, "PT1M", "PATIENT STANDING"], ["CDISCPILOT01", "VS", "01-701-1028", 3, "DIABP", "Diastolic Blood Pressure", "STANDING", "73", "mmHg", "73", 73, "mmHg", "", "", "", 1.0, "SCREENING 1", -7, "SCREENING", "2013-07-11", -8, "AFTER STANDING FOR 3 MINUTES", 817, "PT3M", "PATIENT STANDING"], ["CDISCPILOT01", "VS", "01-701-1028", 4, "DIABP", "Diastolic Blood Pressure", "SUPINE", "76", "mmHg", "76", 76, "mmHg", "", "", "", 2.0, "SCREENING 2", -1, "SCREENING", "2013-07-17", -2, "AFTER LYING DOWN FOR 5 MINUTES", 815, "PT5M", "PATIENT SUPINE"], ["CDISCPILOT01", "VS", "01-701-1028", 5, "DIABP", "Diastolic Blood Pressure", "STANDING", "76", "mmHg", "76", 76, "mmHg", "", "", "", 2.0, "SCREENING 2", -1, "SCREENING", "2013-07-17", -2, "AFTER STANDING FOR 1 MINUTE", 816, "PT1M", "PATIENT STANDING"], ["CDISCPILOT01", "VS", "01-701-1028", 6, "DIABP", "Diastolic Blood Pressure", "STANDING", "85", "mmHg", "85", 85, "mmHg", "", "", "", 2.0, "SCREENING 2", -1, "SCREENING", "2013-07-17", -2, "AFTER STANDING FOR 3 MINUTES", 817, "PT3M", "PATIENT STANDING"], ["CDISCPILOT01", "VS", "01-701-1028", 7, "DIABP", "Diastolic Blood Pressure", "SUPINE", "85", "mmHg", "85", 85, "mmHg", "", "", "Y", 3.0, "BASELINE", 1, "TREATMENT", "2013-07-19", 1, "AFTER LYING DOWN FOR 5 MINUTES", 815, "PT5M", "PATIENT SUPINE"], ["CDISCPILOT01", "VS", "01-701-1028", 8, "DIABP", "Diastolic Blood Pressure", "STANDING", "76", "mmHg", "76", 76, "mmHg", "", "", "Y", 3.0, "BASELINE", 1, "TREATMENT", "2013-07-19", 1, "AFTER STANDING FOR 1 MINUTE", 816, "PT1M", "PATIENT STANDING"], ["CDISCPILOT01", "VS", "01-701-1028", 9, "DIABP", "Diastolic Blood Pressure", "STANDING", "75", "mmHg", "75", 75, "mmHg", "", "", "Y", 3.0, "BASELINE", 1, "TREATMENT", "2013-07-19", 1, "AFTER STANDING FOR 3 MINUTES", 817, "PT3M", "PATIENT STANDING"], ["CDISCPILOT01", "VS", "01-701-1028", 10, "DIABP", "Diastolic Blood Pressure", "SUPINE", "82", "mmHg", "82", 82, "mmHg", "", "", "", 3.5, "AMBUL ECG PLACEMENT", 13, "TREATMENT", "2013-07-31", 13, "AFTER LYING DOWN FOR 5 MINUTES", 815, "PT5M", "PATIENT SUPINE"], ["CDISCPILOT01", "VS", "01-701-1028", 11, "DIABP", "Diastolic Blood Pressure", "STANDING", "82", "mmHg", "82", 82, "mmHg", "", "", "", 3.5, "AMBUL ECG PLACEMENT", 13, "TREATMENT", "2013-07-31", 13, "AFTER STANDING FOR 1 MINUTE", 816, "PT1M", "PATIENT STANDING"], ["CDISCPILOT01", "VS", "01-701-1028", 12, "DIABP", "Diastolic Blood Pressure", "STANDING", "84", "mmHg", "84", 84, "mmHg", "", "", "", 3.5, "AMBUL ECG PLACEMENT", 13, "TREATMENT", "2013-07-31", 13, "AFTER STANDING FOR 3 MINUTES", 817, "PT3M", "PATIENT STANDING"], ["CDISCPILOT01", "VS", "01-701-1028", 13, "DIABP", "Diastolic Blood Pressure", "SUPINE", "78", "mmHg", "78", 78, "mmHg", "", "", "", 4.0, "WEEK 2", 14, "TREATMENT", "2013-08-01", 14, "AFTER LYING DOWN FOR 5 MINUTES", 815, "PT5M", "PATIENT SUPINE"], ["CDISCPILOT01", "VS", "01-701-1028", 14, "DIABP", "Diastolic Blood Pressure", "STANDING", "80", "mmHg", "80", 80, "mmHg", "", "", "", 4.0, "WEEK 2", 14, "TREATMENT", "2013-08-01", 14, "AFTER STANDING FOR 1 MINUTE", 816, "PT1M", "PATIENT STANDING"], ["CDISCPILOT01", "VS", "01-701-1028", 15, "DIABP", "Diastolic Blood Pressure", "STANDING", "80", "mmHg", "80", 80, "mmHg", "", "", "", 4.0, "WEEK 2", 14, "TREATMENT", "2013-08-01", 14, "AFTER STANDING FOR 3 MINUTES", 817, "PT3M", "PATIENT STANDING"], ["CDISCPILOT01", "VS", "01-701-1028", 16, "DIABP", "Diastolic Blood Pressure", "SUPINE", "69", "mmHg", "69", 69, "mmHg", "", "", "", 5.0, "WEEK 4", 28, "TREATMENT", "2013-08-14", 27, "AFTER LYING DOWN FOR 5 MINUTES", 815, "PT5M", "PATIENT SUPINE"], ["CDISCPILOT01", "VS", "01-701-1028", 17, "DIABP", "Diastolic Blood Pressure", "STANDING", "72", "mmHg", "72", 72, "mmHg", "", "", "", 5.0, "WEEK 4", 28, "TREATMENT", "2013-08-14", 27, "AFTER STANDING FOR 1 MINUTE", 816, "PT1M", "PATIENT STANDING"], ["CDISCPILOT01", "VS", "01-701-1028", 18, "DIABP", "Diastolic Blood Pressure", "STANDING", "68", "mmHg", "68", 68, "mmHg", "", "", "", 5.0, "WEEK 4", 28, "TREATMENT", "2013-08-14", 27, "AFTER STANDING FOR 3 MINUTES", 817, "PT3M", "PATIENT STANDING"], ["CDISCPILOT01", "VS", "01-701-1028", 19, "DIABP", "Diastolic Blood Pressure", "SUPINE", "76", "mmHg", "76", 76, "mmHg", "", "", "", 6.0, "AMBUL ECG REMOVAL", 30, "TREATMENT", "2013-08-16", 29, "AFTER LYING DOWN FOR 5 MINUTES", 815, "PT5M", "PATIENT SUPINE"], ["CDISCPILOT01", "VS", "01-701-1028", 20, "DIABP", "Diastolic Blood Pressure", "STANDING", "85", "mmHg", "85", 85, "mmHg", "", "", "", 6.0, "AMBUL ECG REMOVAL", 30, "TREATMENT", "2013-08-16", 29, "AFTER STANDING FOR 1 MINUTE", 816, "PT1M", "PATIENT STANDING"], ["CDISCPILOT01", "VS", "01-701-1028", 21, "DIABP", "Diastolic Blood Pressure", "STANDING", "81", "mmHg", "81", 81, "mmHg", "", "", "", 6.0, "AMBUL ECG REMOVAL", 30, "TREATMENT", "2013-08-16", 29, "AFTER STANDING FOR 3 MINUTES", 817, "PT3M", "PATIENT STANDING"], ["CDISCPILOT01", "VS", "01-701-1028", 22, "DIABP", "Diastolic Blood Pressure", "SUPINE", "69", "mmHg", "69", 69, "mmHg", "", "", "", 7.0, "WEEK 6", 42, "TREATMENT", "2013-08-29", 42, "AFTER LYING DOWN FOR 5 MINUTES", 815, "PT5M", "PATIENT SUPINE"], ["CDISCPILOT01", "VS", "01-701-1028", 23, "DIABP", "Diastolic Blood Pressure", "STANDING", "77", "mmHg", "77", 77, "mmHg", "", "", "", 7.0, "WEEK 6", 42, "TREATMENT", "2013-08-29", 42, "AFTER STANDING FOR 1 MINUTE", 816, "PT1M", "PATIENT STANDING"], ["CDISCPILOT01", "VS", "01-701-1028", 24, "DIABP", "Diastolic Blood Pressure", "STANDING", "76", "mmHg", "76", 76, "mmHg", "", "", "", 7.0, "WEEK 6", 42, "TREATMENT", "2013-08-29", 42, "AFTER STANDING FOR 3 MINUTES", 817, "PT3M", "PATIENT STANDING"], ["CDISCPILOT01", "VS", "01-701-1028", 25, "DIABP", "Diastolic Blood Pressure", "SUPINE", "76", "mmHg", "76", 76, "mmHg", "", "", "", 8.0, "WEEK 8", 56, "TREATMENT", "2013-09-10", 54, "AFTER LYING DOWN FOR 5 MINUTES", 815, "PT5M", "PATIENT SUPINE"], ["CDISCPILOT01", "VS", "01-701-1028", 26, "DIABP", "Diastolic Blood Pressure", "STANDING", "81", "mmHg", "81", 81, "mmHg", "", "", "", 8.0, "WEEK 8", 56, "TREATMENT", "2013-09-10", 54, "AFTER STANDING FOR 1 MINUTE", 816, "PT1M", "PATIENT STANDING"], ["CDISCPILOT01", "VS", "01-701-1028", 27, "DIABP", "Diastolic Blood Pressure", "STANDING", "84", "mmHg", "84", 84, "mmHg", "", "", "", 8.0, "WEEK 8", 56, "TREATMENT", "2013-09-10", 54, "AFTER STANDING FOR 3 MINUTES", 817, "PT3M", "PATIENT STANDING"], ["CDISCPILOT01", "VS", "01-701-1028", 28, "DIABP", "Diastolic Blood Pressure", "SUPINE", "74", "mmHg", "74", 74, "mmHg", "", "", "", 9.0, "WEEK 12", 84, "TREATMENT", "2013-10-09", 83, "AFTER LYING DOWN FOR 5 MINUTES", 815, "PT5M", "PATIENT SUPINE"], ["CDISCPILOT01", "VS", "01-701-1028", 29, "DIABP", "Diastolic Blood Pressure", "STANDING", "83", "mmHg", "83", 83, "mmHg", "", "", "", 9.0, "WEEK 12", 84, "TREATMENT", "2013-10-09", 83, "AFTER STANDING FOR 1 MINUTE", 816, "PT1M", "PATIENT STANDING"], ["CDISCPILOT01", "VS", "01-701-1028", 30, "DIABP", "Diastolic Blood Pressure", "STANDING", "80", "mmHg", "80", 80, "mmHg", "", "", "", 9.0, "WEEK 12", 84, "TREATMENT", "2013-10-09", 83, "AFTER STANDING FOR 3 MINUTES", 817, "PT3M", "PATIENT STANDING"], ["CDISCPILOT01", "VS", "01-701-1028", 31, "DIABP", "Diastolic Blood Pressure", "SUPINE", "75", "mmHg", "75", 75, "mmHg", "", "", "", 10.0, "WEEK 16", 112, "TREATMENT", "2013-11-06", 111, "AFTER LYING DOWN FOR 5 MINUTES", 815, "PT5M", "PATIENT SUPINE"], ["CDISCPILOT01", "VS", "01-701-1028", 32, "DIABP", "Diastolic Blood Pressure", "STANDING", "76", "mmHg", "76", 76, "mmHg", "", "", "", 10.0, "WEEK 16", 112, "TREATMENT", "2013-11-06", 111, "AFTER STANDING FOR 1 MINUTE", 816, "PT1M", "PATIENT STANDING"], ["CDISCPILOT01", "VS", "01-701-1028", 33, "DIABP", "Diastolic Blood Pressure", "STANDING", "78", "mmHg", "78", 78, "mmHg", "", "", "", 10.0, "WEEK 16", 112, "TREATMENT", "2013-11-06", 111, "AFTER STANDING FOR 3 MINUTES", 817, "PT3M", "PATIENT STANDING"], ["CDISCPILOT01", "VS", "01-701-1028", 34, "DIABP", "Diastolic Blood Pressure", "SUPINE", "79", "mmHg", "79", 79, "mmHg", "", "", "", 11.0, "WEEK 20", 140, "TREATMENT", "2013-12-04", 139, "AFTER LYING DOWN FOR 5 MINUTES", 815, "PT5M", "PATIENT SUPINE"], ["CDISCPILOT01", "VS", "01-701-1028", 35, "DIABP", "Diastolic Blood Pressure", "STANDING", "76", "mmHg", "76", 76, "mmHg", "", "", "", 11.0, "WEEK 20", 140, "TREATMENT", "2013-12-04", 139, "AFTER STANDING FOR 1 MINUTE", 816, "PT1M", "PATIENT STANDING"], ["CDISCPILOT01", "VS", "01-701-1028", 36, "DIABP", "Diastolic Blood Pressure", "STANDING", "77", "mmHg", "77", 77, "mmHg", "", "", "", 11.0, "WEEK 20", 140, "TREATMENT", "2013-12-04", 139, "AFTER STANDING FOR 3 MINUTES", 817, "PT3M", "PATIENT STANDING"], ["CDISCPILOT01", "VS", "01-701-1028", 37, "DIABP", "Diastolic Blood Pressure", "SUPINE", "73", "mmHg", "73", 73, "mmHg", "", "", "", 12.0, "WEEK 24", 168, "TREATMENT", "2014-01-06", 172, "AFTER LYING DOWN FOR 5 MINUTES", 815, "PT5M", "PATIENT SUPINE"], ["CDISCPILOT01", "VS", "01-701-1028", 38, "DIABP", "Diastolic Blood Pressure", "STANDING", "72", "mmHg", "72", 72, "mmHg", "", "", "", 12.0, "WEEK 24", 168, "TREATMENT", "2014-01-06", 172, "AFTER STANDING FOR 1 MINUTE", 816, "PT1M", "PATIENT STANDING"], ["CDISCPILOT01", "VS", "01-701-1028", 39, "DIABP", "Diastolic Blood Pressure", "STANDING", "77", "mmHg", "77", 77, "mmHg", "", "", "", 12.0, "WEEK 24", 168, "TREATMENT", "2014-01-06", 172, "AFTER STANDING FOR 3 MINUTES", 817, "PT3M", "PATIENT STANDING"], ["CDISCPILOT01", "VS", "01-701-1028", 40, "DIABP", "Diastolic Blood Pressure", "SUPINE", "70", "mmHg", "70", 70, "mmHg", "", "", "", 13.0, "WEEK 26", 182, "TREATMENT", "2014-01-14", 180, "AFTER LYING DOWN FOR 5 MINUTES", 815, "PT5M", "PATIENT SUPINE"], ["CDISCPILOT01", "VS", "01-701-1028", 41, "DIABP", "Diastolic Blood Pressure", "STANDING", "79", "mmHg", "79", 79, "mmHg", "", "", "", 13.0, "WEEK 26", 182, "TREATMENT", "2014-01-14", 180, "AFTER STANDING FOR 1 MINUTE", 816, "PT1M", "PATIENT STANDING"], ["CDISCPILOT01", "VS", "01-701-1028", 42, "DIABP", "Diastolic Blood Pressure", "STANDING", "77", "mmHg", "77", 77, "mmHg", "", "", "", 13.0, "WEEK 26", 182, "TREATMENT", "2014-01-14", 180, "AFTER STANDING FOR 3 MINUTES", 817, "PT3M", "PATIENT STANDING"], ["CDISCPILOT01", "VS", "01-701-1028", 43, "HEIGHT", "Height", "", "70.0", "in", "177.8", 177, "cm", "", "", "", 1.0, "SCREENING 1", -7, "SCREENING", "2013-07-11", -8, "", null, "", ""], ["CDISCPILOT01", "VS", "01-701-1028", 44, "PULSE", "Pulse Rate", "SUPINE", "54", "beats/min", "54", 54, "beats/min", "", "", "", 1.0, "SCREENING 1", -7, "SCREENING", "2013-07-11", -8, "AFTER LYING DOWN FOR 5 MINUTES", 815, "PT5M", "PATIENT SUPINE"], ["CDISCPILOT01", "VS", "01-701-1028", 45, "PULSE", "Pulse Rate", "STANDING", "59", "beats/min", "59", 59, "beats/min", "", "", "", 1.0, "SCREENING 1", -7, "SCREENING", "2013-07-11", -8, "AFTER STANDING FOR 1 MINUTE", 816, "PT1M", "PATIENT STANDING"], ["CDISCPILOT01", "VS", "01-701-1028", 46, "PULSE", "Pulse Rate", "STANDING", "59", "beats/min", "59", 59, "beats/min", "", "", "", 1.0, "SCREENING 1", -7, "SCREENING", "2013-07-11", -8, "AFTER STANDING FOR 3 MINUTES", 817, "PT3M", "PATIENT STANDING"], ["CDISCPILOT01", "VS", "01-701-1028", 47, "PULSE", "Pulse Rate", "SUPINE", "68", "beats/min", "68", 68, "beats/min", "", "", "", 2.0, "SCREENING 2", -1, "SCREENING", "2013-07-17", -2, "AFTER LYING DOWN FOR 5 MINUTES", 815, "PT5M", "PATIENT SUPINE"], ["CDISCPILOT01", "VS", "01-701-1028", 48, "PULSE", "Pulse Rate", "STANDING", "72", "beats/min", "72", 72, "beats/min", "", "", "", 2.0, "SCREENING 2", -1, "SCREENING", "2013-07-17", -2, "AFTER STANDING FOR 1 MINUTE", 816, "PT1M", "PATIENT STANDING"], ["CDISCPILOT01", "VS", "01-701-1028", 49, "PULSE", "Pulse Rate", "STANDING", "74", "beats/min", "74", 74, "beats/min", "", "", "", 2.0, "SCREENING 2", -1, "SCREENING", "2013-07-17", -2, "AFTER STANDING FOR 3 MINUTES", 817, "PT3M", "PATIENT STANDING"], ["CDISCPILOT01", "VS", "01-701-1028", 50, "PULSE", "Pulse Rate", "SUPINE", "62", "beats/min", "62", 62, "beats/min", "", "", "Y", 3.0, "BASELINE", 1, "TREATMENT", "2013-07-19", 1, "AFTER LYING DOWN FOR 5 MINUTES", 815, "PT5M", "PATIENT SUPINE"], ["CDISCPILOT01", "VS", "01-701-1028", 51, "PULSE", "Pulse Rate", "STANDING", "62", "beats/min", "62", 62, "beats/min", "", "", "Y", 3.0, "BASELINE", 1, "TREATMENT", "2013-07-19", 1, "AFTER STANDING FOR 1 MINUTE", 816, "PT1M", "PATIENT STANDING"], ["CDISCPILOT01", "VS", "01-701-1028", 52, "PULSE", "Pulse Rate", "STANDING", "66", "beats/min", "66", 66, "beats/min", "", "", "Y", 3.0, "BASELINE", 1, "TREATMENT", "2013-07-19", 1, "AFTER STANDING FOR 3 MINUTES", 817, "PT3M", "PATIENT STANDING"], ["CDISCPILOT01", "VS", "01-701-1028", 53, "PULSE", "Pulse Rate", "SUPINE", "60", "beats/min", "60", 60, "beats/min", "", "", "", 3.5, "AMBUL ECG PLACEMENT", 13, "TREATMENT", "2013-07-31", 13, "AFTER LYING DOWN FOR 5 MINUTES", 815, "PT5M", "PATIENT SUPINE"], ["CDISCPILOT01", "VS", "01-701-1028", 54, "PULSE", "Pulse Rate", "STANDING", "66", "beats/min", "66", 66, "beats/min", "", "", "", 3.5, "AMBUL ECG PLACEMENT", 13, "TREATMENT", "2013-07-31", 13, "AFTER STANDING FOR 1 MINUTE", 816, "PT1M", "PATIENT STANDING"], ["CDISCPILOT01", "VS", "01-701-1028", 55, "PULSE", "Pulse Rate", "STANDING", "65", "beats/min", "65", 65, "beats/min", "", "", "", 3.5, "AMBUL ECG PLACEMENT", 13, "TREATMENT", "2013-07-31", 13, "AFTER STANDING FOR 3 MINUTES", 817, "PT3M", "PATIENT STANDING"], ["CDISCPILOT01", "VS", "01-701-1028", 56, "PULSE", "Pulse Rate", "SUPINE", "65", "beats/min", "65", 65, "beats/min", "", "", "", 4.0, "WEEK 2", 14, "TREATMENT", "2013-08-01", 14, "AFTER LYING DOWN FOR 5 MINUTES", 815, "PT5M", "PATIENT SUPINE"], ["CDISCPILOT01", "VS", "01-701-1028", 57, "PULSE", "Pulse Rate", "STANDING", "77", "beats/min", "77", 77, "beats/min", "", "", "", 4.0, "WEEK 2", 14, "TREATMENT", "2013-08-01", 14, "AFTER STANDING FOR 1 MINUTE", 816, "PT1M", "PATIENT STANDING"], ["CDISCPILOT01", "VS", "01-701-1028", 58, "PULSE", "Pulse Rate", "STANDING", "72", "beats/min", "72", 72, "beats/min", "", "", "", 4.0, "WEEK 2", 14, "TREATMENT", "2013-08-01", 14, "AFTER STANDING FOR 3 MINUTES", 817, "PT3M", "PATIENT STANDING"], ["CDISCPILOT01", "VS", "01-701-1028", 59, "PULSE", "Pulse Rate", "SUPINE", "68", "beats/min", "68", 68, "beats/min", "", "", "", 5.0, "WEEK 4", 28, "TREATMENT", "2013-08-14", 27, "AFTER LYING DOWN FOR 5 MINUTES", 815, "PT5M", "PATIENT SUPINE"], ["CDISCPILOT01", "VS", "01-701-1028", 60, "PULSE", "Pulse Rate", "STANDING", "81", "beats/min", "81", 81, "beats/min", "", "", "", 5.0, "WEEK 4", 28, "TREATMENT", "2013-08-14", 27, "AFTER STANDING FOR 1 MINUTE", 816, "PT1M", "PATIENT STANDING"], ["CDISCPILOT01", "VS", "01-701-1028", 61, "PULSE", "Pulse Rate", "STANDING", "76", "beats/min", "76", 76, "beats/min", "", "", "", 5.0, "WEEK 4", 28, "TREATMENT", "2013-08-14", 27, "AFTER STANDING FOR 3 MINUTES", 817, "PT3M", "PATIENT STANDING"], ["CDISCPILOT01", "VS", "01-701-1028", 62, "PULSE", "Pulse Rate", "SUPINE", "63", "beats/min", "63", 63, "beats/min", "", "", "", 6.0, "AMBUL ECG REMOVAL", 30, "TREATMENT", "2013-08-16", 29, "AFTER LYING DOWN FOR 5 MINUTES", 815, "PT5M", "PATIENT SUPINE"], ["CDISCPILOT01", "VS", "01-701-1028", 63, "PULSE", "Pulse Rate", "STANDING", "68", "beats/min", "68", 68, "beats/min", "", "", "", 6.0, "AMBUL ECG REMOVAL", 30, "TREATMENT", "2013-08-16", 29, "AFTER STANDING FOR 1 MINUTE", 816, "PT1M", "PATIENT STANDING"], ["CDISCPILOT01", "VS", "01-701-1028", 64, "PULSE", "Pulse Rate", "STANDING", "70", "beats/min", "70", 70, "beats/min", "", "", "", 6.0, "AMBUL ECG REMOVAL", 30, "TREATMENT", "2013-08-16", 29, "AFTER STANDING FOR 3 MINUTES", 817, "PT3M", "PATIENT STANDING"], ["CDISCPILOT01", "VS", "01-701-1028", 65, "PULSE", "Pulse Rate", "SUPINE", "56", "beats/min", "56", 56, "beats/min", "", "", "", 7.0, "WEEK 6", 42, "TREATMENT", "2013-08-29", 42, "AFTER LYING DOWN FOR 5 MINUTES", 815, "PT5M", "PATIENT SUPINE"], ["CDISCPILOT01", "VS", "01-701-1028", 66, "PULSE", "Pulse Rate", "STANDING", "60", "beats/min", "60", 60, "beats/min", "", "", "", 7.0, "WEEK 6", 42, "TREATMENT", "2013-08-29", 42, "AFTER STANDING FOR 1 MINUTE", 816, "PT1M", "PATIENT STANDING"], ["CDISCPILOT01", "VS", "01-701-1028", 67, "PULSE", "Pulse Rate", "STANDING", "62", "beats/min", "62", 62, "beats/min", "", "", "", 7.0, "WEEK 6", 42, "TREATMENT", "2013-08-29", 42, "AFTER STANDING FOR 3 MINUTES", 817, "PT3M", "PATIENT STANDING"], ["CDISCPILOT01", "VS", "01-701-1028", 68, "PULSE", "Pulse Rate", "SUPINE", "67", "beats/min", "67", 67, "beats/min", "", "", "", 8.0, "WEEK 8", 56, "TREATMENT", "2013-09-10", 54, "AFTER LYING DOWN FOR 5 MINUTES", 815, "PT5M", "PATIENT SUPINE"], ["CDISCPILOT01", "VS", "01-701-1028", 69, "PULSE", "Pulse Rate", "STANDING", "76", "beats/min", "76", 76, "beats/min", "", "", "", 8.0, "WEEK 8", 56, "TREATMENT", "2013-09-10", 54, "AFTER STANDING FOR 1 MINUTE", 816, "PT1M", "PATIENT STANDING"], ["CDISCPILOT01", "VS", "01-701-1028", 70, "PULSE", "Pulse Rate", "STANDING", "81", "beats/min", "81", 81, "beats/min", "", "", "", 8.0, "WEEK 8", 56, "TREATMENT", "2013-09-10", 54, "AFTER STANDING FOR 3 MINUTES", 817, "PT3M", "PATIENT STANDING"], ["CDISCPILOT01", "VS", "01-701-1028", 71, "PULSE", "Pulse Rate", "SUPINE", "61", "beats/min", "61", 61, "beats/min", "", "", "", 9.0, "WEEK 12", 84, "TREATMENT", "2013-10-09", 83, "AFTER LYING DOWN FOR 5 MINUTES", 815, "PT5M", "PATIENT SUPINE"], ["CDISCPILOT01", "VS", "01-701-1028", 72, "PULSE", "Pulse Rate", "STANDING", "64", "beats/min", "64", 64, "beats/min", "", "", "", 9.0, "WEEK 12", 84, "TREATMENT", "2013-10-09", 83, "AFTER STANDING FOR 1 MINUTE", 816, "PT1M", "PATIENT STANDING"], ["CDISCPILOT01", "VS", "01-701-1028", 73, "PULSE", "Pulse Rate", "STANDING", "70", "beats/min", "70", 70, "beats/min", "", "", "", 9.0, "WEEK 12", 84, "TREATMENT", "2013-10-09", 83, "AFTER STANDING FOR 3 MINUTES", 817, "PT3M", "PATIENT STANDING"], ["CDISCPILOT01", "VS", "01-701-1028", 74, "PULSE", "Pulse Rate", "SUPINE", "60", "beats/min", "60", 60, "beats/min", "", "", "", 10.0, "WEEK 16", 112, "TREATMENT", "2013-11-06", 111, "AFTER LYING DOWN FOR 5 MINUTES", 815, "PT5M", "PATIENT SUPINE"], ["CDISCPILOT01", "VS", "01-701-1028", 75, "PULSE", "Pulse Rate", "STANDING", "70", "beats/min", "70", 70, "beats/min", "", "", "", 10.0, "WEEK 16", 112, "TREATMENT", "2013-11-06", 111, "AFTER STANDING FOR 1 MINUTE", 816, "PT1M", "PATIENT STANDING"], ["CDISCPILOT01", "VS", "01-701-1028", 76, "PULSE", "Pulse Rate", "STANDING", "69", "beats/min", "69", 69, "beats/min", "", "", "", 10.0, "WEEK 16", 112, "TREATMENT", "2013-11-06", 111, "AFTER STANDING FOR 3 MINUTES", 817, "PT3M", "PATIENT STANDING"], ["CDISCPILOT01", "VS", "01-701-1028", 77, "PULSE", "Pulse Rate", "SUPINE", "60", "beats/min", "60", 60, "beats/min", "", "", "", 11.0, "WEEK 20", 140, "TREATMENT", "2013-12-04", 139, "AFTER LYING DOWN FOR 5 MINUTES", 815, "PT5M", "PATIENT SUPINE"], ["CDISCPILOT01", "VS", "01-701-1028", 78, "PULSE", "Pulse Rate", "STANDING", "67", "beats/min", "67", 67, "beats/min", "", "", "", 11.0, "WEEK 20", 140, "TREATMENT", "2013-12-04", 139, "AFTER STANDING FOR 1 MINUTE", 816, "PT1M", "PATIENT STANDING"], ["CDISCPILOT01", "VS", "01-701-1028", 79, "PULSE", "Pulse Rate", "STANDING", "69", "beats/min", "69", 69, "beats/min", "", "", "", 11.0, "WEEK 20", 140, "TREATMENT", "2013-12-04", 139, "AFTER STANDING FOR 3 MINUTES", 817, "PT3M", "PATIENT STANDING"], ["CDISCPILOT01", "VS", "01-701-1028", 80, "PULSE", "Pulse Rate", "SUPINE", "62", "beats/min", "62", 62, "beats/min", "", "", "", 12.0, "WEEK 24", 168, "TREATMENT", "2014-01-06", 172, "AFTER LYING DOWN FOR 5 MINUTES", 815, "PT5M", "PATIENT SUPINE"], ["CDISCPILOT01", "VS", "01-701-1028", 81, "PULSE", "Pulse Rate", "STANDING", "72", "beats/min", "72", 72, "beats/min", "", "", "", 12.0, "WEEK 24", 168, "TREATMENT", "2014-01-06", 172, "AFTER STANDING FOR 1 MINUTE", 816, "PT1M", "PATIENT STANDING"], ["CDISCPILOT01", "VS", "01-701-1028", 82, "PULSE", "Pulse Rate", "STANDING", "73", "beats/min", "73", 73, "beats/min", "", "", "", 12.0, "WEEK 24", 168, "TREATMENT", "2014-01-06", 172, "AFTER STANDING FOR 3 MINUTES", 817, "PT3M", "PATIENT STANDING"], ["CDISCPILOT01", "VS", "01-701-1028", 83, "PULSE", "Pulse Rate", "SUPINE", "53", "beats/min", "53", 53, "beats/min", "", "", "", 13.0, "WEEK 26", 182, "TREATMENT", "2014-01-14", 180, "AFTER LYING DOWN FOR 5 MINUTES", 815, "PT5M", "PATIENT SUPINE"], ["CDISCPILOT01", "VS", "01-701-1028", 84, "PULSE", "Pulse Rate", "STANDING", "58", "beats/min", "58", 58, "beats/min", "", "", "", 13.0, "WEEK 26", 182, "TREATMENT", "2014-01-14", 180, "AFTER STANDING FOR 1 MINUTE", 816, "PT1M", "PATIENT STANDING"], ["CDISCPILOT01", "VS", "01-701-1028", 85, "PULSE", "Pulse Rate", "STANDING", "59", "beats/min", "59", 59, "beats/min", "", "", "", 13.0, "WEEK 26", 182, "TREATMENT", "2014-01-14", 180, "AFTER STANDING FOR 3 MINUTES", 817, "PT3M", "PATIENT STANDING"], ["CDISCPILOT01", "VS", "01-701-1028", 86, "SYSBP", "Systolic Blood Pressure", "SUPINE", "143", "mmHg", "143", 143, "mmHg", "", "", "", 1.0, "SCREENING 1", -7, "SCREENING", "2013-07-11", -8, "AFTER LYING DOWN FOR 5 MINUTES", 815, "PT5M", "PATIENT SUPINE"], ["CDISCPILOT01", "VS", "01-701-1028", 87, "SYSBP", "Systolic Blood Pressure", "STANDING", "140", "mmHg", "140", 140, "mmHg", "", "", "", 1.0, "SCREENING 1", -7, "SCREENING", "2013-07-11", -8, "AFTER STANDING FOR 1 MINUTE", 816, "PT1M", "PATIENT STANDING"], ["CDISCPILOT01", "VS", "01-701-1028", 88, "SYSBP", "Systolic Blood Pressure", "STANDING", "132", "mmHg", "132", 132, "mmHg", "", "", "", 1.0, "SCREENING 1", -7, "SCREENING", "2013-07-11", -8, "AFTER STANDING FOR 3 MINUTES", 817, "PT3M", "PATIENT STANDING"], ["CDISCPILOT01", "VS", "01-701-1028", 89, "SYSBP", "Systolic Blood Pressure", "SUPINE", "122", "mmHg", "122", 122, "mmHg", "", "", "", 2.0, "SCREENING 2", -1, "SCREENING", "2013-07-17", -2, "AFTER LYING DOWN FOR 5 MINUTES", 815, "PT5M", "PATIENT SUPINE"], ["CDISCPILOT01", "VS", "01-701-1028", 90, "SYSBP", "Systolic Blood Pressure", "STANDING", "142", "mmHg", "142", 142, "mmHg", "", "", "", 2.0, "SCREENING 2", -1, "SCREENING", "2013-07-17", -2, "AFTER STANDING FOR 1 MINUTE", 816, "PT1M", "PATIENT STANDING"], ["CDISCPILOT01", "VS", "01-701-1028", 91, "SYSBP", "Systolic Blood Pressure", "STANDING", "132", "mmHg", "132", 132, "mmHg", "", "", "", 2.0, "SCREENING 2", -1, "SCREENING", "2013-07-17", -2, "AFTER STANDING FOR 3 MINUTES", 817, "PT3M", "PATIENT STANDING"], ["CDISCPILOT01", "VS", "01-701-1028", 92, "SYSBP", "Systolic Blood Pressure", "SUPINE", "138", "mmHg", "138", 138, "mmHg", "", "", "Y", 3.0, "BASELINE", 1, "TREATMENT", "2013-07-19", 1, "AFTER LYING DOWN FOR 5 MINUTES", 815, "PT5M", "PATIENT SUPINE"], ["CDISCPILOT01", "VS", "01-701-1028", 93, "SYSBP", "Systolic Blood Pressure", "STANDING", "145", "mmHg", "145", 145, "mmHg", "", "", "Y", 3.0, "BASELINE", 1, "TREATMENT", "2013-07-19", 1, "AFTER STANDING FOR 1 MINUTE", 816, "PT1M", "PATIENT STANDING"], ["CDISCPILOT01", "VS", "01-701-1028", 94, "SYSBP", "Systolic Blood Pressure", "STANDING", "139", "mmHg", "139", 139, "mmHg", "", "", "Y", 3.0, "BASELINE", 1, "TREATMENT", "2013-07-19", 1, "AFTER STANDING FOR 3 MINUTES", 817, "PT3M", "PATIENT STANDING"], ["CDISCPILOT01", "VS", "01-701-1028", 95, "SYSBP", "Systolic Blood Pressure", "SUPINE", "138", "mmHg", "138", 138, "mmHg", "", "", "", 3.5, "AMBUL ECG PLACEMENT", 13, "TREATMENT", "2013-07-31", 13, "AFTER LYING DOWN FOR 5 MINUTES", 815, "PT5M", "PATIENT SUPINE"], ["CDISCPILOT01", "VS", "01-701-1028", 96, "SYSBP", "Systolic Blood Pressure", "STANDING", "137", "mmHg", "137", 137, "mmHg", "", "", "", 3.5, "AMBUL ECG PLACEMENT", 13, "TREATMENT", "2013-07-31", 13, "AFTER STANDING FOR 1 MINUTE", 816, "PT1M", "PATIENT STANDING"], ["CDISCPILOT01", "VS", "01-701-1028", 97, "SYSBP", "Systolic Blood Pressure", "STANDING", "145", "mmHg", "145", 145, "mmHg", "", "", "", 3.5, "AMBUL ECG PLACEMENT", 13, "TREATMENT", "2013-07-31", 13, "AFTER STANDING FOR 3 MINUTES", 817, "PT3M", "PATIENT STANDING"], ["CDISCPILOT01", "VS", "01-701-1028", 98, "SYSBP", "Systolic Blood Pressure", "SUPINE", "134", "mmHg", "134", 134, "mmHg", "", "", "", 4.0, "WEEK 2", 14, "TREATMENT", "2013-08-01", 14, "AFTER LYING DOWN FOR 5 MINUTES", 815, "PT5M", "PATIENT SUPINE"], ["CDISCPILOT01", "VS", "01-701-1028", 99, "SYSBP", "Systolic Blood Pressure", "STANDING", "138", "mmHg", "138", 138, "mmHg", "", "", "", 4.0, "WEEK 2", 14, "TREATMENT", "2013-08-01", 14, "AFTER STANDING FOR 1 MINUTE", 816, "PT1M", "PATIENT STANDING"], ["CDISCPILOT01", "VS", "01-701-1028", 100, "SYSBP", "Systolic Blood Pressure", "STANDING", "131", "mmHg", "131", 131, "mmHg", "", "", "", 4.0, "WEEK 2", 14, "TREATMENT", "2013-08-01", 14, "AFTER STANDING FOR 3 MINUTES", 817, "PT3M", "PATIENT STANDING"], ["CDISCPILOT01", "VS", "01-701-1028", 101, "SYSBP", "Systolic Blood Pressure", "SUPINE", "130", "mmHg", "130", 130, "mmHg", "", "", "", 5.0, "WEEK 4", 28, "TREATMENT", "2013-08-14", 27, "AFTER LYING DOWN FOR 5 MINUTES", 815, "PT5M", "PATIENT SUPINE"], ["CDISCPILOT01", "VS", "01-701-1028", 102, "SYSBP", "Systolic Blood Pressure", "STANDING", "130", "mmHg", "130", 130, "mmHg", "", "", "", 5.0, "WEEK 4", 28, "TREATMENT", "2013-08-14", 27, "AFTER STANDING FOR 1 MINUTE", 816, "PT1M", "PATIENT STANDING"], ["CDISCPILOT01", "VS", "01-701-1028", 103, "SYSBP", "Systolic Blood Pressure", "STANDING", "138", "mmHg", "138", 138, "mmHg", "", "", "", 5.0, "WEEK 4", 28, "TREATMENT", "2013-08-14", 27, "AFTER STANDING FOR 3 MINUTES", 817, "PT3M", "PATIENT STANDING"], ["CDISCPILOT01", "VS", "01-701-1028", 104, "SYSBP", "Systolic Blood Pressure", "SUPINE", "138", "mmHg", "138", 138, "mmHg", "", "", "", 6.0, "AMBUL ECG REMOVAL", 30, "TREATMENT", "2013-08-16", 29, "AFTER LYING DOWN FOR 5 MINUTES", 815, "PT5M", "PATIENT SUPINE"], ["CDISCPILOT01", "VS", "01-701-1028", 105, "SYSBP", "Systolic Blood Pressure", "STANDING", "138", "mmHg", "138", 138, "mmHg", "", "", "", 6.0, "AMBUL ECG REMOVAL", 30, "TREATMENT", "2013-08-16", 29, "AFTER STANDING FOR 1 MINUTE", 816, "PT1M", "PATIENT STANDING"], ["CDISCPILOT01", "VS", "01-701-1028", 106, "SYSBP", "Systolic Blood Pressure", "STANDING", "146", "mmHg", "146", 146, "mmHg", "", "", "", 6.0, "AMBUL ECG REMOVAL", 30, "TREATMENT", "2013-08-16", 29, "AFTER STANDING FOR 3 MINUTES", 817, "PT3M", "PATIENT STANDING"], ["CDISCPILOT01", "VS", "01-701-1028", 107, "SYSBP", "Systolic Blood Pressure", "SUPINE", "131", "mmHg", "131", 131, "mmHg", "", "", "", 7.0, "WEEK 6", 42, "TREATMENT", "2013-08-29", 42, "AFTER LYING DOWN FOR 5 MINUTES", 815, "PT5M", "PATIENT SUPINE"], ["CDISCPILOT01", "VS", "01-701-1028", 108, "SYSBP", "Systolic Blood Pressure", "STANDING", "131", "mmHg", "131", 131, "mmHg", "", "", "", 7.0, "WEEK 6", 42, "TREATMENT", "2013-08-29", 42, "AFTER STANDING FOR 1 MINUTE", 816, "PT1M", "PATIENT STANDING"], ["CDISCPILOT01", "VS", "01-701-1028", 109, "SYSBP", "Systolic Blood Pressure", "STANDING", "132", "mmHg", "132", 132, "mmHg", "", "", "", 7.0, "WEEK 6", 42, "TREATMENT", "2013-08-29", 42, "AFTER STANDING FOR 3 MINUTES", 817, "PT3M", "PATIENT STANDING"], ["CDISCPILOT01", "VS", "01-701-1028", 110, "SYSBP", "Systolic Blood Pressure", "SUPINE", "137", "mmHg", "137", 137, "mmHg", "", "", "", 8.0, "WEEK 8", 56, "TREATMENT", "2013-09-10", 54, "AFTER LYING DOWN FOR 5 MINUTES", 815, "PT5M", "PATIENT SUPINE"], ["CDISCPILOT01", "VS", "01-701-1028", 111, "SYSBP", "Systolic Blood Pressure", "STANDING", "146", "mmHg", "146", 146, "mmHg", "", "", "", 8.0, "WEEK 8", 56, "TREATMENT", "2013-09-10", 54, "AFTER STANDING FOR 1 MINUTE", 816, "PT1M", "PATIENT STANDING"], ["CDISCPILOT01", "VS", "01-701-1028", 112, "SYSBP", "Systolic Blood Pressure", "STANDING", "130", "mmHg", "130", 130, "mmHg", "", "", "", 8.0, "WEEK 8", 56, "TREATMENT", "2013-09-10", 54, "AFTER STANDING FOR 3 MINUTES", 817, "PT3M", "PATIENT STANDING"], ["CDISCPILOT01", "VS", "01-701-1028", 113, "SYSBP", "Systolic Blood Pressure", "SUPINE", "128", "mmHg", "128", 128, "mmHg", "", "", "", 9.0, "WEEK 12", 84, "TREATMENT", "2013-10-09", 83, "AFTER LYING DOWN FOR 5 MINUTES", 815, "PT5M", "PATIENT SUPINE"], ["CDISCPILOT01", "VS", "01-701-1028", 114, "SYSBP", "Systolic Blood Pressure", "STANDING", "137", "mmHg", "137", 137, "mmHg", "", "", "", 9.0, "WEEK 12", 84, "TREATMENT", "2013-10-09", 83, "AFTER STANDING FOR 1 MINUTE", 816, "PT1M", "PATIENT STANDING"], ["CDISCPILOT01", "VS", "01-701-1028", 115, "SYSBP", "Systolic Blood Pressure", "STANDING", "138", "mmHg", "138", 138, "mmHg", "", "", "", 9.0, "WEEK 12", 84, "TREATMENT", "2013-10-09", 83, "AFTER STANDING FOR 3 MINUTES", 817, "PT3M", "PATIENT STANDING"], ["CDISCPILOT01", "VS", "01-701-1028", 116, "SYSBP", "Systolic Blood Pressure", "SUPINE", "122", "mmHg", "122", 122, "mmHg", "", "", "", 10.0, "WEEK 16", 112, "TREATMENT", "2013-11-06", 111, "AFTER LYING DOWN FOR 5 MINUTES", 815, "PT5M", "PATIENT SUPINE"], ["CDISCPILOT01", "VS", "01-701-1028", 117, "SYSBP", "Systolic Blood Pressure", "STANDING", "130", "mmHg", "130", 130, "mmHg", "", "", "", 10.0, "WEEK 16", 112, "TREATMENT", "2013-11-06", 111, "AFTER STANDING FOR 1 MINUTE", 816, "PT1M", "PATIENT STANDING"], ["CDISCPILOT01", "VS", "01-701-1028", 118, "SYSBP", "Systolic Blood Pressure", "STANDING", "132", "mmHg", "132", 132, "mmHg", "", "", "", 10.0, "WEEK 16", 112, "TREATMENT", "2013-11-06", 111, "AFTER STANDING FOR 3 MINUTES", 817, "PT3M", "PATIENT STANDING"], ["CDISCPILOT01", "VS", "01-701-1028", 119, "SYSBP", "Systolic Blood Pressure", "SUPINE", "129", "mmHg", "129", 129, "mmHg", "", "", "", 11.0, "WEEK 20", 140, "TREATMENT", "2013-12-04", 139, "AFTER LYING DOWN FOR 5 MINUTES", 815, "PT5M", "PATIENT SUPINE"], ["CDISCPILOT01", "VS", "01-701-1028", 120, "SYSBP", "Systolic Blood Pressure", "STANDING", "123", "mmHg", "123", 123, "mmHg", "", "", "", 11.0, "WEEK 20", 140, "TREATMENT", "2013-12-04", 139, "AFTER STANDING FOR 1 MINUTE", 816, "PT1M", "PATIENT STANDING"], ["CDISCPILOT01", "VS", "01-701-1028", 121, "SYSBP", "Systolic Blood Pressure", "STANDING", "131", "mmHg", "131", 131, "mmHg", "", "", "", 11.0, "WEEK 20", 140, "TREATMENT", "2013-12-04", 139, "AFTER STANDING FOR 3 MINUTES", 817, "PT3M", "PATIENT STANDING"], ["CDISCPILOT01", "VS", "01-701-1028", 122, "SYSBP", "Systolic Blood Pressure", "SUPINE", "130", "mmHg", "130", 130, "mmHg", "", "", "", 12.0, "WEEK 24", 168, "TREATMENT", "2014-01-06", 172, "AFTER LYING DOWN FOR 5 MINUTES", 815, "PT5M", "PATIENT SUPINE"], ["CDISCPILOT01", "VS", "01-701-1028", 123, "SYSBP", "Systolic Blood Pressure", "STANDING", "133", "mmHg", "133", 133, "mmHg", "", "", "", 12.0, "WEEK 24", 168, "TREATMENT", "2014-01-06", 172, "AFTER STANDING FOR 1 MINUTE", 816, "PT1M", "PATIENT STANDING"], ["CDISCPILOT01", "VS", "01-701-1028", 124, "SYSBP", "Systolic Blood Pressure", "STANDING", "131", "mmHg", "131", 131, "mmHg", "", "", "", 12.0, "WEEK 24", 168, "TREATMENT", "2014-01-06", 172, "AFTER STANDING FOR 3 MINUTES", 817, "PT3M", "PATIENT STANDING"], ["CDISCPILOT01", "VS", "01-701-1028", 125, "SYSBP", "Systolic Blood Pressure", "SUPINE", "131", "mmHg", "131", 131, "mmHg", "", "", "", 13.0, "WEEK 26", 182, "TREATMENT", "2014-01-14", 180, "AFTER LYING DOWN FOR 5 MINUTES", 815, "PT5M", "PATIENT SUPINE"], ["CDISCPILOT01", "VS", "01-701-1028", 126, "SYSBP", "Systolic Blood Pressure", "STANDING", "118", "mmHg", "118", 118, "mmHg", "", "", "", 13.0, "WEEK 26", 182, "TREATMENT", "2014-01-14", 180, "AFTER STANDING FOR 1 MINUTE", 816, "PT1M", "PATIENT STANDING"], ["CDISCPILOT01", "VS", "01-701-1028", 127, "SYSBP", "Systolic Blood Pressure", "STANDING", "131", "mmHg", "131", 131, "mmHg", "", "", "", 13.0, "WEEK 26", 182, "TREATMENT", "2014-01-14", 180, "AFTER STANDING FOR 3 MINUTES", 817, "PT3M", "PATIENT STANDING"], ["CDISCPILOT01", "VS", "01-701-1028", 128, "TEMP", "Temperature", "", "98.5", "F", "36.94", 36, "C", "", "ORAL CAVITY", "", 1.0, "SCREENING 1", -7, "SCREENING", "2013-07-11", -8, "", null, "", ""], ["CDISCPILOT01", "VS", "01-701-1028", 129, "TEMP", "Temperature", "", "96.7", "F", "35.94", 35, "C", "", "ORAL CAVITY", "", 2.0, "SCREENING 2", -1, "SCREENING", "2013-07-17", -2, "", null, "", ""], ["CDISCPILOT01", "VS", "01-701-1028", 130, "TEMP", "Temperature", "", "98.6", "F", "37", 37, "C", "", "ORAL CAVITY", "Y", 3.0, "BASELINE", 1, "TREATMENT", "2013-07-19", 1, "", null, "", ""], ["CDISCPILOT01", "VS", "01-701-1028", 131, "TEMP", "Temperature", "", "98.2", "F", "36.78", 36, "C", "", "ORAL CAVITY", "", 3.5, "AMBUL ECG PLACEMENT", 13, "TREATMENT", "2013-07-31", 13, "", null, "", ""], ["CDISCPILOT01", "VS", "01-701-1028", 132, "TEMP", "Temperature", "", "99.0", "F", "37.22", 37, "C", "", "ORAL CAVITY", "", 4.0, "WEEK 2", 14, "TREATMENT", "2013-08-01", 14, "", null, "", ""], ["CDISCPILOT01", "VS", "01-701-1028", 133, "TEMP", "Temperature", "", "98.5", "F", "36.94", 36, "C", "", "ORAL CAVITY", "", 5.0, "WEEK 4", 28, "TREATMENT", "2013-08-14", 27, "", null, "", ""], ["CDISCPILOT01", "VS", "01-701-1028", 134, "TEMP", "Temperature", "", "98.2", "F", "36.78", 36, "C", "", "ORAL CAVITY", "", 6.0, "AMBUL ECG REMOVAL", 30, "TREATMENT", "2013-08-16", 29, "", null, "", ""], ["CDISCPILOT01", "VS", "01-701-1028", 135, "TEMP", "Temperature", "", "97.7", "F", "36.5", 36, "C", "", "ORAL CAVITY", "", 7.0, "WEEK 6", 42, "TREATMENT", "2013-08-29", 42, "", null, "", ""], ["CDISCPILOT01", "VS", "01-701-1028", 136, "TEMP", "Temperature", "", "98.1", "F", "36.72", 36, "C", "", "ORAL CAVITY", "", 8.0, "WEEK 8", 56, "TREATMENT", "2013-09-10", 54, "", null, "", ""], ["CDISCPILOT01", "VS", "01-701-1028", 137, "TEMP", "Temperature", "", "98.3", "F", "36.83", 36, "C", "", "ORAL CAVITY", "", 9.0, "WEEK 12", 84, "TREATMENT", "2013-10-09", 83, "", null, "", ""], ["CDISCPILOT01", "VS", "01-701-1028", 138, "TEMP", "Temperature", "", "97.8", "F", "36.56", 36, "C", "", "ORAL CAVITY", "", 10.0, "WEEK 16", 112, "TREATMENT", "2013-11-06", 111, "", null, "", ""], ["CDISCPILOT01", "VS", "01-701-1028", 139, "TEMP", "Temperature", "", "97.6", "F", "36.44", 36, "C", "", "ORAL CAVITY", "", 11.0, "WEEK 20", 140, "TREATMENT", "2013-12-04", 139, "", null, "", ""], ["CDISCPILOT01", "VS", "01-701-1028", 140, "TEMP", "Temperature", "", "98.8", "F", "37.11", 37, "C", "", "ORAL CAVITY", "", 12.0, "WEEK 24", 168, "TREATMENT", "2014-01-06", 172, "", null, "", ""], ["CDISCPILOT01", "VS", "01-701-1028", 141, "TEMP", "Temperature", "", "97.8", "F", "36.56", 36, "C", "", "ORAL CAVITY", "", 13.0, "WEEK 26", 182, "TREATMENT", "2014-01-14", 180, "", null, "", ""], ["CDISCPILOT01", "VS", "01-701-1028", 142, "WEIGHT", "Weight", "", "218.0", "LB", "98.88", 98, "kg", "", "", "", 1.0, "SCREENING 1", -7, "SCREENING", "2013-07-11", -8, "", null, "", ""], ["CDISCPILOT01", "VS", "01-701-1028", 143, "WEIGHT", "Weight", "", "219.0", "LB", "99.34", 99, "kg", "", "", "Y", 3.0, "BASELINE", 1, "TREATMENT", "2013-07-19", 1, "", null, "", ""], ["CDISCPILOT01", "VS", "01-701-1028", 144, "WEIGHT", "Weight", "", "219.0", "LB", "99.34", 99, "kg", "", "", "", 4.0, "WEEK 2", 14, "TREATMENT", "2013-08-01", 14, "", null, "", ""], ["CDISCPILOT01", "VS", "01-701-1028", 145, "WEIGHT", "Weight", "", "218.0", "LB", "98.88", 98, "kg", "", "", "", 5.0, "WEEK 4", 28, "TREATMENT", "2013-08-14", 27, "", null, "", ""], ["CDISCPILOT01", "VS", "01-701-1028", 146, "WEIGHT", "Weight", "", "217.0", "LB", "98.43", 98, "kg", "", "", "", 7.0, "WEEK 6", 42, "TREATMENT", "2013-08-29", 42, "", null, "", ""], ["CDISCPILOT01", "VS", "01-701-1028", 147, "WEIGHT", "Weight", "", "219.0", "LB", "99.34", 99, "kg", "", "", "", 8.0, "WEEK 8", 56, "TREATMENT", "2013-09-10", 54, "", null, "", ""], ["CDISCPILOT01", "VS", "01-701-1028", 148, "WEIGHT", "Weight", "", "218.0", "LB", "98.88", 98, "kg", "", "", "", 9.0, "WEEK 12", 84, "TREATMENT", "2013-10-09", 83, "", null, "", ""], ["CDISCPILOT01", "VS", "01-701-1028", 149, "WEIGHT", "Weight", "", "220.0", "LB", "99.79", 99, "kg", "", "", "", 10.0, "WEEK 16", 112, "TREATMENT", "2013-11-06", 111, "", null, "", ""], ["CDISCPILOT01", "VS", "01-701-1028", 150, "WEIGHT", "Weight", "", "220.0", "LB", "99.79", 99, "kg", "", "", "", 11.0, "WEEK 20", 140, "TREATMENT", "2013-12-04", 139, "", null, "", ""], ["CDISCPILOT01", "VS", "01-701-1028", 151, "WEIGHT", "Weight", "", "219.0", "LB", "99.34", 99, "kg", "", "", "", 12.0, "WEEK 24", 168, "TREATMENT", "2014-01-06", 172, "", null, "", ""], ["CDISCPILOT01", "VS", "01-701-1028", 152, "WEIGHT", "Weight", "", "220.0", "LB", "99.79", 99, "kg", "", "", "", 13.0, "WEEK 26", 182, "TREATMENT", "2014-01-14", 180, "", null, "", ""], ["CDISCPILOT01", "VS", "01-701-1033", 1, "DIABP", "Diastolic Blood Pressure", "SUPINE", "82", "mmHg", "82", 82, "mmHg", "", "", "", 1.0, "SCREENING 1", -7, "SCREENING", "2014-03-10", -8, "AFTER LYING DOWN FOR 5 MINUTES", 815, "PT5M", "PATIENT SUPINE"], ["CDISCPILOT01", "VS", "01-701-1033", 2, "DIABP", "Diastolic Blood Pressure", "STANDING", "67", "mmHg", "67", 67, "mmHg", "", "", "", 1.0, "SCREENING 1", -7, "SCREENING", "2014-03-10", -8, "AFTER STANDING FOR 1 MINUTE", 816, "PT1M", "PATIENT STANDING"], ["CDISCPILOT01", "VS", "01-701-1033", 3, "DIABP", "Diastolic Blood Pressure", "STANDING", "72", "mmHg", "72", 72, "mmHg", "", "", "", 1.0, "SCREENING 1", -7, "SCREENING", "2014-03-10", -8, "AFTER STANDING FOR 3 MINUTES", 817, "PT3M", "PATIENT STANDING"], ["CDISCPILOT01", "VS", "01-701-1033", 4, "DIABP", "Diastolic Blood Pressure", "SUPINE", "69", "mmHg", "69", 69, "mmHg", "", "", "", 2.0, "SCREENING 2", -1, "SCREENING", "2014-03-16", -2, "AFTER LYING DOWN FOR 5 MINUTES", 815, "PT5M", "PATIENT SUPINE"], ["CDISCPILOT01", "VS", "01-701-1033", 5, "DIABP", "Diastolic Blood Pressure", "STANDING", "60", "mmHg", "60", 60, "mmHg", "", "", "", 2.0, "SCREENING 2", -1, "SCREENING", "2014-03-16", -2, "AFTER STANDING FOR 1 MINUTE", 816, "PT1M", "PATIENT STANDING"], ["CDISCPILOT01", "VS", "01-701-1033", 6, "DIABP", "Diastolic Blood Pressure", "STANDING", "62", "mmHg", "62", 62, "mmHg", "", "", "", 2.0, "SCREENING 2", -1, "SCREENING", "2014-03-16", -2, "AFTER STANDING FOR 3 MINUTES", 817, "PT3M", "PATIENT STANDING"], ["CDISCPILOT01", "VS", "01-701-1033", 7, "DIABP", "Diastolic Blood Pressure", "SUPINE", "83", "mmHg", "83", 83, "mmHg", "", "", "Y", 3.0, "BASELINE", 1, "TREATMENT", "2014-03-18", 1, "AFTER LYING DOWN FOR 5 MINUTES", 815, "PT5M", "PATIENT SUPINE"], ["CDISCPILOT01", "VS", "01-701-1033", 8, "DIABP", "Diastolic Blood Pressure", "STANDING", "67", "mmHg", "67", 67, "mmHg", "", "", "Y", 3.0, "BASELINE", 1, "TREATMENT", "2014-03-18", 1, "AFTER STANDING FOR 1 MINUTE", 816, "PT1M", "PATIENT STANDING"], ["CDISCPILOT01", "VS", "01-701-1033", 9, "DIABP", "Diastolic Blood Pressure", "STANDING", "70", "mmHg", "70", 70, "mmHg", "", "", "Y", 3.0, "BASELINE", 1, "TREATMENT", "2014-03-18", 1, "AFTER STANDING FOR 3 MINUTES", 817, "PT3M", "PATIENT STANDING"], ["CDISCPILOT01", "VS", "01-701-1033", 10, "DIABP", "Diastolic Blood Pressure", "SUPINE", "84", "mmHg", "84", 84, "mmHg", "", "", "", 3.5, "AMBUL ECG PLACEMENT", 13, "TREATMENT", "2014-03-31", 14, "AFTER LYING DOWN FOR 5 MINUTES", 815, "PT5M", "PATIENT SUPINE"], ["CDISCPILOT01", "VS", "01-701-1033", 11, "DIABP", "Diastolic Blood Pressure", "STANDING", "81", "mmHg", "81", 81, "mmHg", "", "", "", 3.5, "AMBUL ECG PLACEMENT", 13, "TREATMENT", "2014-03-31", 14, "AFTER STANDING FOR 1 MINUTE", 816, "PT1M", "PATIENT STANDING"], ["CDISCPILOT01", "VS", "01-701-1033", 12, "DIABP", "Diastolic Blood Pressure", "STANDING", "85", "mmHg", "85", 85, "mmHg", "", "", "", 3.5, "AMBUL ECG PLACEMENT", 13, "TREATMENT", "2014-03-31", 14, "AFTER STANDING FOR 3 MINUTES", 817, "PT3M", "PATIENT STANDING"], ["CDISCPILOT01", "VS", "01-701-1033", 13, "DIABP", "Diastolic Blood Pressure", "SUPINE", "84", "mmHg", "84", 84, "mmHg", "", "", "", 4.0, "WEEK 2", 14, "TREATMENT", "2014-04-01", 15, "AFTER LYING DOWN FOR 5 MINUTES", 815, "PT5M", "PATIENT SUPINE"], ["CDISCPILOT01", "VS", "01-701-1033", 14, "DIABP", "Diastolic Blood Pressure", "STANDING", "72", "mmHg", "72", 72, "mmHg", "", "", "", 4.0, "WEEK 2", 14, "TREATMENT", "2014-04-01", 15, "AFTER STANDING FOR 1 MINUTE", 816, "PT1M", "PATIENT STANDING"], ["CDISCPILOT01", "VS", "01-701-1033", 15, "DIABP", "Diastolic Blood Pressure", "STANDING", "76", "mmHg", "76", 76, "mmHg", "", "", "", 4.0, "WEEK 2", 14, "TREATMENT", "2014-04-01", 15, "AFTER STANDING FOR 3 MINUTES", 817, "PT3M", "PATIENT STANDING"], ["CDISCPILOT01", "VS", "01-701-1033", 16, "DIABP", "Diastolic Blood Pressure", "SUPINE", "76", "mmHg", "76", 76, "mmHg", "", "", "", 5.0, "WEEK 4", 28, "TREATMENT", "2014-04-14", 28, "AFTER LYING DOWN FOR 5 MINUTES", 815, "PT5M", "PATIENT SUPINE"], ["CDISCPILOT01", "VS", "01-701-1033", 17, "DIABP", "Diastolic Blood Pressure", "STANDING", "67", "mmHg", "67", 67, "mmHg", "", "", "", 5.0, "WEEK 4", 28, "TREATMENT", "2014-04-14", 28, "AFTER STANDING FOR 1 MINUTE", 816, "PT1M", "PATIENT STANDING"], ["CDISCPILOT01", "VS", "01-701-1033", 18, "DIABP", "Diastolic Blood Pressure", "STANDING", "67", "mmHg", "67", 67, "mmHg", "", "", "", 5.0, "WEEK 4", 28, "TREATMENT", "2014-04-14", 28, "AFTER STANDING FOR 3 MINUTES", 817, "PT3M", "PATIENT STANDING"], ["CDISCPILOT01", "VS", "01-701-1033", 19, "DIABP", "Diastolic Blood Pressure", "SUPINE", "79", "mmHg", "79", 79, "mmHg", "", "", "", 201.0, "RETRIEVAL", 168, "FOLLOW-UP", "2014-09-15", 182, "AFTER LYING DOWN FOR 5 MINUTES", 815, "PT5M", "PATIENT SUPINE"], ["CDISCPILOT01", "VS", "01-701-1033", 20, "DIABP", "Diastolic Blood Pressure", "STANDING", "71", "mmHg", "71", 71, "mmHg", "", "", "", 201.0, "RETRIEVAL", 168, "FOLLOW-UP", "2014-09-15", 182, "AFTER STANDING FOR 1 MINUTE", 816, "PT1M", "PATIENT STANDING"], ["CDISCPILOT01", "VS", "01-701-1033", 21, "DIABP", "Diastolic Blood Pressure", "STANDING", "60", "mmHg", "60", 60, "mmHg", "", "", "", 201.0, "RETRIEVAL", 168, "FOLLOW-UP", "2014-09-15", 182, "AFTER STANDING FOR 3 MINUTES", 817, "PT3M", "PATIENT STANDING"], ["CDISCPILOT01", "VS", "01-701-1033", 22, "HEIGHT", "Height", "", "69.0", "in", "175.26", 175, "cm", "", "", "", 1.0, "SCREENING 1", -7, "SCREENING", "2014-03-10", -8, "", null, "", ""], ["CDISCPILOT01", "VS", "01-701-1033", 23, "PULSE", "Pulse Rate", "SUPINE", "59", "beats/min", "59", 59, "beats/min", "", "", "", 1.0, "SCREENING 1", -7, "SCREENING", "2014-03-10", -8, "AFTER LYING DOWN FOR 5 MINUTES", 815, "PT5M", "PATIENT SUPINE"], ["CDISCPILOT01", "VS", "01-701-1033", 24, "PULSE", "Pulse Rate", "STANDING", "70", "beats/min", "70", 70, "beats/min", "", "", "", 1.0, "SCREENING 1", -7, "SCREENING", "2014-03-10", -8, "AFTER STANDING FOR 1 MINUTE", 816, "PT1M", "PATIENT STANDING"], ["CDISCPILOT01", "VS", "01-701-1033", 25, "PULSE", "Pulse Rate", "STANDING", "67", "beats/min", "67", 67, "beats/min", "", "", "", 1.0, "SCREENING 1", -7, "SCREENING", "2014-03-10", -8, "AFTER STANDING FOR 3 MINUTES", 817, "PT3M", "PATIENT STANDING"], ["CDISCPILOT01", "VS", "01-701-1033", 26, "PULSE", "Pulse Rate", "SUPINE", "67", "beats/min", "67", 67, "beats/min", "", "", "", 2.0, "SCREENING 2", -1, "SCREENING", "2014-03-16", -2, "AFTER LYING DOWN FOR 5 MINUTES", 815, "PT5M", "PATIENT SUPINE"], ["CDISCPILOT01", "VS", "01-701-1033", 27, "PULSE", "Pulse Rate", "STANDING", "80", "beats/min", "80", 80, "beats/min", "", "", "", 2.0, "SCREENING 2", -1, "SCREENING", "2014-03-16", -2, "AFTER STANDING FOR 1 MINUTE", 816, "PT1M", "PATIENT STANDING"], ["CDISCPILOT01", "VS", "01-701-1033", 28, "PULSE", "Pulse Rate", "STANDING", "82", "beats/min", "82", 82, "beats/min", "", "", "", 2.0, "SCREENING 2", -1, "SCREENING", "2014-03-16", -2, "AFTER STANDING FOR 3 MINUTES", 817, "PT3M", "PATIENT STANDING"], ["CDISCPILOT01", "VS", "01-701-1033", 29, "PULSE", "Pulse Rate", "SUPINE", "55", "beats/min", "55", 55, "beats/min", "", "", "Y", 3.0, "BASELINE", 1, "TREATMENT", "2014-03-18", 1, "AFTER LYING DOWN FOR 5 MINUTES", 815, "PT5M", "PATIENT SUPINE"], ["CDISCPILOT01", "VS", "01-701-1033", 30, "PULSE", "Pulse Rate", "STANDING", "64", "beats/min", "64", 64, "beats/min", "", "", "Y", 3.0, "BASELINE", 1, "TREATMENT", "2014-03-18", 1, "AFTER STANDING FOR 1 MINUTE", 816, "PT1M", "PATIENT STANDING"], ["CDISCPILOT01", "VS", "01-701-1033", 31, "PULSE", "Pulse Rate", "STANDING", "62", "beats/min", "62", 62, "beats/min", "", "", "Y", 3.0, "BASELINE", 1, "TREATMENT", "2014-03-18", 1, "AFTER STANDING FOR 3 MINUTES", 817, "PT3M", "PATIENT STANDING"], ["CDISCPILOT01", "VS", "01-701-1033", 32, "PULSE", "Pulse Rate", "SUPINE", "62", "beats/min", "62", 62, "beats/min", "", "", "", 3.5, "AMBUL ECG PLACEMENT", 13, "TREATMENT", "2014-03-31", 14, "AFTER LYING DOWN FOR 5 MINUTES", 815, "PT5M", "PATIENT SUPINE"], ["CDISCPILOT01", "VS", "01-701-1033", 33, "PULSE", "Pulse Rate", "STANDING", "62", "beats/min", "62", 62, "beats/min", "", "", "", 3.5, "AMBUL ECG PLACEMENT", 13, "TREATMENT", "2014-03-31", 14, "AFTER STANDING FOR 1 MINUTE", 816, "PT1M", "PATIENT STANDING"], ["CDISCPILOT01", "VS", "01-701-1033", 34, "PULSE", "Pulse Rate", "STANDING", "60", "beats/min", "60", 60, "beats/min", "", "", "", 3.5, "AMBUL ECG PLACEMENT", 13, "TREATMENT", "2014-03-31", 14, "AFTER STANDING FOR 3 MINUTES", 817, "PT3M", "PATIENT STANDING"], ["CDISCPILOT01", "VS", "01-701-1033", 35, "PULSE", "Pulse Rate", "SUPINE", "59", "beats/min", "59", 59, "beats/min", "", "", "", 4.0, "WEEK 2", 14, "TREATMENT", "2014-04-01", 15, "AFTER LYING DOWN FOR 5 MINUTES", 815, "PT5M", "PATIENT SUPINE"], ["CDISCPILOT01", "VS", "01-701-1033", 36, "PULSE", "Pulse Rate", "STANDING", "62", "beats/min", "62", 62, "beats/min", "", "", "", 4.0, "WEEK 2", 14, "TREATMENT", "2014-04-01", 15, "AFTER STANDING FOR 1 MINUTE", 816, "PT1M", "PATIENT STANDING"], ["CDISCPILOT01", "VS", "01-701-1033", 37, "PULSE", "Pulse Rate", "STANDING", "62", "beats/min", "62", 62, "beats/min", "", "", "", 4.0, "WEEK 2", 14, "TREATMENT", "2014-04-01", 15, "AFTER STANDING FOR 3 MINUTES", 817, "PT3M", "PATIENT STANDING"], ["CDISCPILOT01", "VS", "01-701-1033", 38, "PULSE", "Pulse Rate", "SUPINE", "54", "beats/min", "54", 54, "beats/min", "", "", "", 5.0, "WEEK 4", 28, "TREATMENT", "2014-04-14", 28, "AFTER LYING DOWN FOR 5 MINUTES", 815, "PT5M", "PATIENT SUPINE"], ["CDISCPILOT01", "VS", "01-701-1033", 39, "PULSE", "Pulse Rate", "STANDING", "57", "beats/min", "57", 57, "beats/min", "", "", "", 5.0, "WEEK 4", 28, "TREATMENT", "2014-04-14", 28, "AFTER STANDING FOR 1 MINUTE", 816, "PT1M", "PATIENT STANDING"], ["CDISCPILOT01", "VS", "01-701-1033", 40, "PULSE", "Pulse Rate", "STANDING", "58", "beats/min", "58", 58, "beats/min", "", "", "", 5.0, "WEEK 4", 28, "TREATMENT", "2014-04-14", 28, "AFTER STANDING FOR 3 MINUTES", 817, "PT3M", "PATIENT STANDING"], ["CDISCPILOT01", "VS", "01-701-1033", 41, "PULSE", "Pulse Rate", "SUPINE", "50", "beats/min", "50", 50, "beats/min", "", "", "", 201.0, "RETRIEVAL", 168, "FOLLOW-UP", "2014-09-15", 182, "AFTER LYING DOWN FOR 5 MINUTES", 815, "PT5M", "PATIENT SUPINE"], ["CDISCPILOT01", "VS", "01-701-1033", 42, "PULSE", "Pulse Rate", "STANDING", "55", "beats/min", "55", 55, "beats/min", "", "", "", 201.0, "RETRIEVAL", 168, "FOLLOW-UP", "2014-09-15", 182, "AFTER STANDING FOR 1 MINUTE", 816, "PT1M", "PATIENT STANDING"], ["CDISCPILOT01", "VS", "01-701-1033", 43, "PULSE", "Pulse Rate", "STANDING", "50", "beats/min", "50", 50, "beats/min", "", "", "", 201.0, "RETRIEVAL", 168, "FOLLOW-UP", "2014-09-15", 182, "AFTER STANDING FOR 3 MINUTES", 817, "PT3M", "PATIENT STANDING"], ["CDISCPILOT01", "VS", "01-701-1033", 44, "SYSBP", "Systolic Blood Pressure", "SUPINE", "128", "mmHg", "128", 128, "mmHg", "", "", "", 1.0, "SCREENING 1", -7, "SCREENING", "2014-03-10", -8, "AFTER LYING DOWN FOR 5 MINUTES", 815, "PT5M", "PATIENT SUPINE"], ["CDISCPILOT01", "VS", "01-701-1033", 45, "SYSBP", "Systolic Blood Pressure", "STANDING", "117", "mmHg", "117", 117, "mmHg", "", "", "", 1.0, "SCREENING 1", -7, "SCREENING", "2014-03-10", -8, "AFTER STANDING FOR 1 MINUTE", 816, "PT1M", "PATIENT STANDING"], ["CDISCPILOT01", "VS", "01-701-1033", 46, "SYSBP", "Systolic Blood Pressure", "STANDING", "121", "mmHg", "121", 121, "mmHg", "", "", "", 1.0, "SCREENING 1", -7, "SCREENING", "2014-03-10", -8, "AFTER STANDING FOR 3 MINUTES", 817, "PT3M", "PATIENT STANDING"], ["CDISCPILOT01", "VS", "01-701-1033", 47, "SYSBP", "Systolic Blood Pressure", "SUPINE", "115", "mmHg", "115", 115, "mmHg", "", "", "", 2.0, "SCREENING 2", -1, "SCREENING", "2014-03-16", -2, "AFTER LYING DOWN FOR 5 MINUTES", 815, "PT5M", "PATIENT SUPINE"], ["CDISCPILOT01", "VS", "01-701-1033", 48, "SYSBP", "Systolic Blood Pressure", "STANDING", "102", "mmHg", "102", 102, "mmHg", "", "", "", 2.0, "SCREENING 2", -1, "SCREENING", "2014-03-16", -2, "AFTER STANDING FOR 1 MINUTE", 816, "PT1M", "PATIENT STANDING"], ["CDISCPILOT01", "VS", "01-701-1033", 49, "SYSBP", "Systolic Blood Pressure", "STANDING", "124", "mmHg", "124", 124, "mmHg", "", "", "", 2.0, "SCREENING 2", -1, "SCREENING", "2014-03-16", -2, "AFTER STANDING FOR 3 MINUTES", 817, "PT3M", "PATIENT STANDING"], ["CDISCPILOT01", "VS", "01-701-1033", 50, "SYSBP", "Systolic Blood Pressure", "SUPINE", "136", "mmHg", "136", 136, "mmHg", "", "", "Y", 3.0, "BASELINE", 1, "TREATMENT", "2014-03-18", 1, "AFTER LYING DOWN FOR 5 MINUTES", 815, "PT5M", "PATIENT SUPINE"], ["CDISCPILOT01", "VS", "01-701-1033", 51, "SYSBP", "Systolic Blood Pressure", "STANDING", "116", "mmHg", "116", 116, "mmHg", "", "", "Y", 3.0, "BASELINE", 1, "TREATMENT", "2014-03-18", 1, "AFTER STANDING FOR 1 MINUTE", 816, "PT1M", "PATIENT STANDING"], ["CDISCPILOT01", "VS", "01-701-1033", 52, "SYSBP", "Systolic Blood Pressure", "STANDING", "121", "mmHg", "121", 121, "mmHg", "", "", "Y", 3.0, "BASELINE", 1, "TREATMENT", "2014-03-18", 1, "AFTER STANDING FOR 3 MINUTES", 817, "PT3M", "PATIENT STANDING"], ["CDISCPILOT01", "VS", "01-701-1033", 53, "SYSBP", "Systolic Blood Pressure", "SUPINE", "151", "mmHg", "151", 151, "mmHg", "", "", "", 3.5, "AMBUL ECG PLACEMENT", 13, "TREATMENT", "2014-03-31", 14, "AFTER LYING DOWN FOR 5 MINUTES", 815, "PT5M", "PATIENT SUPINE"], ["CDISCPILOT01", "VS", "01-701-1033", 54, "SYSBP", "Systolic Blood Pressure", "STANDING", "139", "mmHg", "139", 139, "mmHg", "", "", "", 3.5, "AMBUL ECG PLACEMENT", 13, "TREATMENT", "2014-03-31", 14, "AFTER STANDING FOR 1 MINUTE", 816, "PT1M", "PATIENT STANDING"], ["CDISCPILOT01", "VS", "01-701-1033", 55, "SYSBP", "Systolic Blood Pressure", "STANDING", "139", "mmHg", "139", 139, "mmHg", "", "", "", 3.5, "AMBUL ECG PLACEMENT", 13, "TREATMENT", "2014-03-31", 14, "AFTER STANDING FOR 3 MINUTES", 817, "PT3M", "PATIENT STANDING"], ["CDISCPILOT01", "VS", "01-701-1033", 56, "SYSBP", "Systolic Blood Pressure", "SUPINE", "138", "mmHg", "138", 138, "mmHg", "", "", "", 4.0, "WEEK 2", 14, "TREATMENT", "2014-04-01", 15, "AFTER LYING DOWN FOR 5 MINUTES", 815, "PT5M", "PATIENT SUPINE"], ["CDISCPILOT01", "VS", "01-701-1033", 57, "SYSBP", "Systolic Blood Pressure", "STANDING", "118", "mmHg", "118", 118, "mmHg", "", "", "", 4.0, "WEEK 2", 14, "TREATMENT", "2014-04-01", 15, "AFTER STANDING FOR 1 MINUTE", 816, "PT1M", "PATIENT STANDING"], ["CDISCPILOT01", "VS", "01-701-1033", 58, "SYSBP", "Systolic Blood Pressure", "STANDING", "130", "mmHg", "130", 130, "mmHg", "", "", "", 4.0, "WEEK 2", 14, "TREATMENT", "2014-04-01", 15, "AFTER STANDING FOR 3 MINUTES", 817, "PT3M", "PATIENT STANDING"], ["CDISCPILOT01", "VS", "01-701-1033", 59, "SYSBP", "Systolic Blood Pressure", "SUPINE", "130", "mmHg", "130", 130, "mmHg", "", "", "", 5.0, "WEEK 4", 28, "TREATMENT", "2014-04-14", 28, "AFTER LYING DOWN FOR 5 MINUTES", 815, "PT5M", "PATIENT SUPINE"], ["CDISCPILOT01", "VS", "01-701-1033", 60, "SYSBP", "Systolic Blood Pressure", "STANDING", "122", "mmHg", "122", 122, "mmHg", "", "", "", 5.0, "WEEK 4", 28, "TREATMENT", "2014-04-14", 28, "AFTER STANDING FOR 1 MINUTE", 816, "PT1M", "PATIENT STANDING"], ["CDISCPILOT01", "VS", "01-701-1033", 61, "SYSBP", "Systolic Blood Pressure", "STANDING", "125", "mmHg", "125", 125, "mmHg", "", "", "", 5.0, "WEEK 4", 28, "TREATMENT", "2014-04-14", 28, "AFTER STANDING FOR 3 MINUTES", 817, "PT3M", "PATIENT STANDING"], ["CDISCPILOT01", "VS", "01-701-1033", 62, "SYSBP", "Systolic Blood Pressure", "SUPINE", "130", "mmHg", "130", 130, "mmHg", "", "", "", 201.0, "RETRIEVAL", 168, "FOLLOW-UP", "2014-09-15", 182, "AFTER LYING DOWN FOR 5 MINUTES", 815, "PT5M", "PATIENT SUPINE"], ["CDISCPILOT01", "VS", "01-701-1033", 63, "SYSBP", "Systolic Blood Pressure", "STANDING", "122", "mmHg", "122", 122, "mmHg", "", "", "", 201.0, "RETRIEVAL", 168, "FOLLOW-UP", "2014-09-15", 182, "AFTER STANDING FOR 1 MINUTE", 816, "PT1M", "PATIENT STANDING"], ["CDISCPILOT01", "VS", "01-701-1033", 64, "SYSBP", "Systolic Blood Pressure", "STANDING", "123", "mmHg", "123", 123, "mmHg", "", "", "", 201.0, "RETRIEVAL", 168, "FOLLOW-UP", "2014-09-15", 182, "AFTER STANDING FOR 3 MINUTES", 817, "PT3M", "PATIENT STANDING"], ["CDISCPILOT01", "VS", "01-701-1033", 65, "TEMP", "Temperature", "", "98.7", "F", "37.06", 37, "C", "", "ORAL CAVITY", "", 1.0, "SCREENING 1", -7, "SCREENING", "2014-03-10", -8, "", null, "", ""], ["CDISCPILOT01", "VS", "01-701-1033", 66, "TEMP", "Temperature", "", "98.9", "F", "37.17", 37, "C", "", "ORAL CAVITY", "", 2.0, "SCREENING 2", -1, "SCREENING", "2014-03-16", -2, "", null, "", ""], ["CDISCPILOT01", "VS", "01-701-1033", 67, "TEMP", "Temperature", "", "98.8", "F", "37.11", 37, "C", "", "ORAL CAVITY", "Y", 3.0, "BASELINE", 1, "TREATMENT", "2014-03-18", 1, "", null, "", ""], ["CDISCPILOT01", "VS", "01-701-1033", 68, "TEMP", "Temperature", "", "98.0", "F", "36.67", 36, "C", "", "ORAL CAVITY", "", 3.5, "AMBUL ECG PLACEMENT", 13, "TREATMENT", "2014-03-31", 14, "", null, "", ""], ["CDISCPILOT01", "VS", "01-701-1033", 69, "TEMP", "Temperature", "", "98.1", "F", "36.72", 36, "C", "", "ORAL CAVITY", "", 4.0, "WEEK 2", 14, "TREATMENT", "2014-04-01", 15, "", null, "", ""], ["CDISCPILOT01", "VS", "01-701-1033", 70, "TEMP", "Temperature", "", "98.1", "F", "36.72", 36, "C", "", "ORAL CAVITY", "", 5.0, "WEEK 4", 28, "TREATMENT", "2014-04-14", 28, "", null, "", ""], ["CDISCPILOT01", "VS", "01-701-1033", 71, "TEMP", "Temperature", "", "98.1", "F", "36.72", 36, "C", "", "ORAL CAVITY", "", 201.0, "RETRIEVAL", 168, "FOLLOW-UP", "2014-09-15", 182, "", null, "", ""], ["CDISCPILOT01", "VS", "01-701-1033", 72, "WEIGHT", "Weight", "", "195.0", "LB", "88.45", 88, "kg", "", "", "", 1.0, "SCREENING 1", -7, "SCREENING", "2014-03-10", -8, "", null, "", ""], ["CDISCPILOT01", "VS", "01-701-1033", 73, "WEIGHT", "Weight", "", "195.0", "LB", "88.45", 88, "kg", "", "", "Y", 3.0, "BASELINE", 1, "TREATMENT", "2014-03-18", 1, "", null, "", ""], ["CDISCPILOT01", "VS", "01-701-1033", 74, "WEIGHT", "Weight", "", "197.0", "LB", "89.36", 89, "kg", "", "", "", 4.0, "WEEK 2", 14, "TREATMENT", "2014-04-01", 15, "", null, "", ""], ["CDISCPILOT01", "VS", "01-701-1033", 75, "WEIGHT", "Weight", "", "195.0", "LB", "88.45", 88, "kg", "", "", "", 5.0, "WEEK 4", 28, "TREATMENT", "2014-04-14", 28, "", null, "", ""], ["CDISCPILOT01", "VS", "01-701-1034", 1, "DIABP", "Diastolic Blood Pressure", "SUPINE", "58", "mmHg", "58", 58, "mmHg", "", "", "", 1.0, "SCREENING 1", -7, "SCREENING", "2014-06-24", -7, "AFTER LYING DOWN FOR 5 MINUTES", 815, "PT5M", "PATIENT SUPINE"], ["CDISCPILOT01", "VS", "01-701-1034", 2, "DIABP", "Diastolic Blood Pressure", "STANDING", "73", "mmHg", "73", 73, "mmHg", "", "", "", 1.0, "SCREENING 1", -7, "SCREENING", "2014-06-24", -7, "AFTER STANDING FOR 1 MINUTE", 816, "PT1M", "PATIENT STANDING"], ["CDISCPILOT01", "VS", "01-701-1034", 3, "DIABP", "Diastolic Blood Pressure", "STANDING", "79", "mmHg", "79", 79, "mmHg", "", "", "", 1.0, "SCREENING 1", -7, "SCREENING", "2014-06-24", -7, "AFTER STANDING FOR 3 MINUTES", 817, "PT3M", "PATIENT STANDING"], ["CDISCPILOT01", "VS", "01-701-1034", 4, "DIABP", "Diastolic Blood Pressure", "SUPINE", "62", "mmHg", "62", 62, "mmHg", "", "", "", 2.0, "SCREENING 2", -1, "SCREENING", "2014-06-29", -2, "AFTER LYING DOWN FOR 5 MINUTES", 815, "PT5M", "PATIENT SUPINE"], ["CDISCPILOT01", "VS", "01-701-1034", 5, "DIABP", "Diastolic Blood Pressure", "STANDING", "81", "mmHg", "81", 81, "mmHg", "", "", "", 2.0, "SCREENING 2", -1, "SCREENING", "2014-06-29", -2, "AFTER STANDING FOR 1 MINUTE", 816, "PT1M", "PATIENT STANDING"], ["CDISCPILOT01", "VS", "01-701-1034", 6, "DIABP", "Diastolic Blood Pressure", "STANDING", "69", "mmHg", "69", 69, "mmHg", "", "", "", 2.0, "SCREENING 2", -1, "SCREENING", "2014-06-29", -2, "AFTER STANDING FOR 3 MINUTES", 817, "PT3M", "PATIENT STANDING"], ["CDISCPILOT01", "VS", "01-701-1034", 7, "DIABP", "Diastolic Blood Pressure", "SUPINE", "60", "mmHg", "60", 60, "mmHg", "", "", "Y", 3.0, "BASELINE", 1, "TREATMENT", "2014-07-01", 1, "AFTER LYING DOWN FOR 5 MINUTES", 815, "PT5M", "PATIENT SUPINE"], ["CDISCPILOT01", "VS", "01-701-1034", 8, "DIABP", "Diastolic Blood Pressure", "STANDING", "75", "mmHg", "75", 75, "mmHg", "", "", "Y", 3.0, "BASELINE", 1, "TREATMENT", "2014-07-01", 1, "AFTER STANDING FOR 1 MINUTE", 816, "PT1M", "PATIENT STANDING"], ["CDISCPILOT01", "VS", "01-701-1034", 9, "DIABP", "Diastolic Blood Pressure", "STANDING", "82", "mmHg", "82", 82, "mmHg", "", "", "Y", 3.0, "BASELINE", 1, "TREATMENT", "2014-07-01", 1, "AFTER STANDING FOR 3 MINUTES", 817, "PT3M", "PATIENT STANDING"], ["CDISCPILOT01", "VS", "01-701-1034", 10, "DIABP", "Diastolic Blood Pressure", "SUPINE", "81", "mmHg", "81", 81, "mmHg", "", "", "", 4.0, "WEEK 2", 14, "TREATMENT", "2014-07-15", 15, "AFTER LYING DOWN FOR 5 MINUTES", 815, "PT5M", "PATIENT SUPINE"], ["CDISCPILOT01", "VS", "01-701-1034", 11, "DIABP", "Diastolic Blood Pressure", "STANDING", "101", "mmHg", "101", 101, "mmHg", "", "", "", 4.0, "WEEK 2", 14, "TREATMENT", "2014-07-15", 15, "AFTER STANDING FOR 1 MINUTE", 816, "PT1M", "PATIENT STANDING"], ["CDISCPILOT01", "VS", "01-701-1034", 12, "DIABP", "Diastolic Blood Pressure", "STANDING", "84", "mmHg", "84", 84, "mmHg", "", "", "", 4.0, "WEEK 2", 14, "TREATMENT", "2014-07-15", 15, "AFTER STANDING FOR 3 MINUTES", 817, "PT3M", "PATIENT STANDING"], ["CDISCPILOT01", "VS", "01-701-1034", 13, "DIABP", "Diastolic Blood Pressure", "SUPINE", "71", "mmHg", "71", 71, "mmHg", "", "", "", 5.0, "WEEK 4", 28, "TREATMENT", "2014-07-29", 29, "AFTER LYING DOWN FOR 5 MINUTES", 815, "PT5M", "PATIENT SUPINE"], ["CDISCPILOT01", "VS", "01-701-1034", 14, "DIABP", "Diastolic Blood Pressure", "STANDING", "69", "mmHg", "69", 69, "mmHg", "", "", "", 5.0, "WEEK 4", 28, "TREATMENT", "2014-07-29", 29, "AFTER STANDING FOR 1 MINUTE", 816, "PT1M", "PATIENT STANDING"], ["CDISCPILOT01", "VS", "01-701-1034", 15, "DIABP", "Diastolic Blood Pressure", "STANDING", "71", "mmHg", "71", 71, "mmHg", "", "", "", 5.0, "WEEK 4", 28, "TREATMENT", "2014-07-29", 29, "AFTER STANDING FOR 3 MINUTES", 817, "PT3M", "PATIENT STANDING"], ["CDISCPILOT01", "VS", "01-701-1034", 16, "DIABP", "Diastolic Blood Pressure", "SUPINE", "54", "mmHg", "54", 54, "mmHg", "", "", "", 6.0, "AMBUL ECG REMOVAL", 30, "TREATMENT", "2014-07-31", 31, "AFTER LYING DOWN FOR 5 MINUTES", 815, "PT5M", "PATIENT SUPINE"], ["CDISCPILOT01", "VS", "01-701-1034", 17, "DIABP", "Diastolic Blood Pressure", "STANDING", "65", "mmHg", "65", 65, "mmHg", "", "", "", 6.0, "AMBUL ECG REMOVAL", 30, "TREATMENT", "2014-07-31", 31, "AFTER STANDING FOR 1 MINUTE", 816, "PT1M", "PATIENT STANDING"], ["CDISCPILOT01", "VS", "01-701-1034", 18, "DIABP", "Diastolic Blood Pressure", "STANDING", "61", "mmHg", "61", 61, "mmHg", "", "", "", 6.0, "AMBUL ECG REMOVAL", 30, "TREATMENT", "2014-07-31", 31, "AFTER STANDING FOR 3 MINUTES", 817, "PT3M", "PATIENT STANDING"], ["CDISCPILOT01", "VS", "01-701-1034", 19, "DIABP", "Diastolic Blood Pressure", "SUPINE", "57", "mmHg", "57", 57, "mmHg", "", "", "", 7.0, "WEEK 6", 42, "TREATMENT", "2014-08-11", 42, "AFTER LYING DOWN FOR 5 MINUTES", 815, "PT5M", "PATIENT SUPINE"], ["CDISCPILOT01", "VS", "01-701-1034", 20, "DIABP", "Diastolic Blood Pressure", "STANDING", "76", "mmHg", "76", 76, "mmHg", "", "", "", 7.0, "WEEK 6", 42, "TREATMENT", "2014-08-11", 42, "AFTER STANDING FOR 1 MINUTE", 816, "PT1M", "PATIENT STANDING"], ["CDISCPILOT01", "VS", "01-701-1034", 21, "DIABP", "Diastolic Blood Pressure", "STANDING", "80", "mmHg", "80", 80, "mmHg", "", "", "", 7.0, "WEEK 6", 42, "TREATMENT", "2014-08-11", 42, "AFTER STANDING FOR 3 MINUTES", 817, "PT3M", "PATIENT STANDING"], ["CDISCPILOT01", "VS", "01-701-1034", 22, "DIABP", "Diastolic Blood Pressure", "SUPINE", "73", "mmHg", "73", 73, "mmHg", "", "", "", 8.0, "WEEK 8", 56, "TREATMENT", "2014-08-26", 57, "AFTER LYING DOWN FOR 5 MINUTES", 815, "PT5M", "PATIENT SUPINE"], ["CDISCPILOT01", "VS", "01-701-1034", 23, "DIABP", "Diastolic Blood Pressure", "STANDING", "80", "mmHg", "80", 80, "mmHg", "", "", "", 8.0, "WEEK 8", 56, "TREATMENT", "2014-08-26", 57, "AFTER STANDING FOR 1 MINUTE", 816, "PT1M", "PATIENT STANDING"], ["CDISCPILOT01", "VS", "01-701-1034", 24, "DIABP", "Diastolic Blood Pressure", "STANDING", "76", "mmHg", "76", 76, "mmHg", "", "", "", 8.0, "WEEK 8", 56, "TREATMENT", "2014-08-26", 57, "AFTER STANDING FOR 3 MINUTES", 817, "PT3M", "PATIENT STANDING"], ["CDISCPILOT01", "VS", "01-701-1034", 25, "DIABP", "Diastolic Blood Pressure", "SUPINE", "71", "mmHg", "71", 71, "mmHg", "", "", "", 9.0, "WEEK 12", 84, "TREATMENT", "2014-09-25", 87, "AFTER LYING DOWN FOR 5 MINUTES", 815, "PT5M", "PATIENT SUPINE"], ["CDISCPILOT01", "VS", "01-701-1034", 26, "DIABP", "Diastolic Blood Pressure", "STANDING", "66", "mmHg", "66", 66, "mmHg", "", "", "", 9.0, "WEEK 12", 84, "TREATMENT", "2014-09-25", 87, "AFTER STANDING FOR 1 MINUTE", 816, "PT1M", "PATIENT STANDING"], ["CDISCPILOT01", "VS", "01-701-1034", 27, "DIABP", "Diastolic Blood Pressure", "STANDING", "63", "mmHg", "63", 63, "mmHg", "", "", "", 9.0, "WEEK 12", 84, "TREATMENT", "2014-09-25", 87, "AFTER STANDING FOR 3 MINUTES", 817, "PT3M", "PATIENT STANDING"], ["CDISCPILOT01", "VS", "01-701-1034", 28, "DIABP", "Diastolic Blood Pressure", "SUPINE", "87", "mmHg", "87", 87, "mmHg", "", "", "", 10.0, "WEEK 16", 112, "TREATMENT", "2014-10-21", 113, "AFTER LYING DOWN FOR 5 MINUTES", 815, "PT5M", "PATIENT SUPINE"], ["CDISCPILOT01", "VS", "01-701-1034", 29, "DIABP", "Diastolic Blood Pressure", "STANDING", "77", "mmHg", "77", 77, "mmHg", "", "", "", 10.0, "WEEK 16", 112, "TREATMENT", "2014-10-21", 113, "AFTER STANDING FOR 1 MINUTE", 816, "PT1M", "PATIENT STANDING"], ["CDISCPILOT01", "VS", "01-701-1034", 30, "DIABP", "Diastolic Blood Pressure", "STANDING", "72", "mmHg", "72", 72, "mmHg", "", "", "", 10.0, "WEEK 16", 112, "TREATMENT", "2014-10-21", 113, "AFTER STANDING FOR 3 MINUTES", 817, "PT3M", "PATIENT STANDING"], ["CDISCPILOT01", "VS", "01-701-1034", 31, "DIABP", "Diastolic Blood Pressure", "SUPINE", "78", "mmHg", "78", 78, "mmHg", "", "", "", 11.0, "WEEK 20", 140, "TREATMENT", "2014-11-18", 141, "AFTER LYING DOWN FOR 5 MINUTES", 815, "PT5M", "PATIENT SUPINE"], ["CDISCPILOT01", "VS", "01-701-1034", 32, "DIABP", "Diastolic Blood Pressure", "STANDING", "77", "mmHg", "77", 77, "mmHg", "", "", "", 11.0, "WEEK 20", 140, "TREATMENT", "2014-11-18", 141, "AFTER STANDING FOR 1 MINUTE", 816, "PT1M", "PATIENT STANDING"], ["CDISCPILOT01", "VS", "01-701-1034", 33, "DIABP", "Diastolic Blood Pressure", "STANDING", "72", "mmHg", "72", 72, "mmHg", "", "", "", 11.0, "WEEK 20", 140, "TREATMENT", "2014-11-18", 141, "AFTER STANDING FOR 3 MINUTES", 817, "PT3M", "PATIENT STANDING"], ["CDISCPILOT01", "VS", "01-701-1034", 34, "DIABP", "Diastolic Blood Pressure", "SUPINE", "81", "mmHg", "81", 81, "mmHg", "", "", "", 12.0, "WEEK 24", 168, "TREATMENT", "2014-12-17", 170, "AFTER LYING DOWN FOR 5 MINUTES", 815, "PT5M", "PATIENT SUPINE"], ["CDISCPILOT01", "VS", "01-701-1034", 35, "DIABP", "Diastolic Blood Pressure", "STANDING", "97", "mmHg", "97", 97, "mmHg", "", "", "", 12.0, "WEEK 24", 168, "TREATMENT", "2014-12-17", 170, "AFTER STANDING FOR 1 MINUTE", 816, "PT1M", "PATIENT STANDING"], ["CDISCPILOT01", "VS", "01-701-1034", 36, "DIABP", "Diastolic Blood Pressure", "STANDING", "98", "mmHg", "98", 98, "mmHg", "", "", "", 12.0, "WEEK 24", 168, "TREATMENT", "2014-12-17", 170, "AFTER STANDING FOR 3 MINUTES", 817, "PT3M", "PATIENT STANDING"], ["CDISCPILOT01", "VS", "01-701-1034", 37, "DIABP", "Diastolic Blood Pressure", "SUPINE", "67", "mmHg", "67", 67, "mmHg", "", "", "", 13.0, "WEEK 26", 182, "TREATMENT", "2014-12-30", 183, "AFTER LYING DOWN FOR 5 MINUTES", 815, "PT5M", "PATIENT SUPINE"], ["CDISCPILOT01", "VS", "01-701-1034", 38, "DIABP", "Diastolic Blood Pressure", "STANDING", "93", "mmHg", "93", 93, "mmHg", "", "", "", 13.0, "WEEK 26", 182, "TREATMENT", "2014-12-30", 183, "AFTER STANDING FOR 1 MINUTE", 816, "PT1M", "PATIENT STANDING"], ["CDISCPILOT01", "VS", "01-701-1034", 39, "DIABP", "Diastolic Blood Pressure", "STANDING", "66", "mmHg", "66", 66, "mmHg", "", "", "", 13.0, "WEEK 26", 182, "TREATMENT", "2014-12-30", 183, "AFTER STANDING FOR 3 MINUTES", 817, "PT3M", "PATIENT STANDING"], ["CDISCPILOT01", "VS", "01-701-1034", 40, "HEIGHT", "Height", "", "61.0", "in", "154.94", 154, "cm", "", "", "", 1.0, "SCREENING 1", -7, "SCREENING", "2014-06-24", -7, "", null, "", ""], ["CDISCPILOT01", "VS", "01-701-1034", 41, "PULSE", "Pulse Rate", "SUPINE", "69", "beats/min", "69", 69, "beats/min", "", "", "", 1.0, "SCREENING 1", -7, "SCREENING", "2014-06-24", -7, "AFTER LYING DOWN FOR 5 MINUTES", 815, "PT5M", "PATIENT SUPINE"], ["CDISCPILOT01", "VS", "01-701-1034", 42, "PULSE", "Pulse Rate", "STANDING", "76", "beats/min", "76", 76, "beats/min", "", "", "", 1.0, "SCREENING 1", -7, "SCREENING", "2014-06-24", -7, "AFTER STANDING FOR 1 MINUTE", 816, "PT1M", "PATIENT STANDING"], ["CDISCPILOT01", "VS", "01-701-1034", 43, "PULSE", "Pulse Rate", "STANDING", "74", "beats/min", "74", 74, "beats/min", "", "", "", 1.0, "SCREENING 1", -7, "SCREENING", "2014-06-24", -7, "AFTER STANDING FOR 3 MINUTES", 817, "PT3M", "PATIENT STANDING"], ["CDISCPILOT01", "VS", "01-701-1034", 44, "PULSE", "Pulse Rate", "SUPINE", "75", "beats/min", "75", 75, "beats/min", "", "", "", 2.0, "SCREENING 2", -1, "SCREENING", "2014-06-29", -2, "AFTER LYING DOWN FOR 5 MINUTES", 815, "PT5M", "PATIENT SUPINE"], ["CDISCPILOT01", "VS", "01-701-1034", 45, "PULSE", "Pulse Rate", "STANDING", "79", "beats/min", "79", 79, "beats/min", "", "", "", 2.0, "SCREENING 2", -1, "SCREENING", "2014-06-29", -2, "AFTER STANDING FOR 1 MINUTE", 816, "PT1M", "PATIENT STANDING"], ["CDISCPILOT01", "VS", "01-701-1034", 46, "PULSE", "Pulse Rate", "STANDING", "79", "beats/min", "79", 79, "beats/min", "", "", "", 2.0, "SCREENING 2", -1, "SCREENING", "2014-06-29", -2, "AFTER STANDING FOR 3 MINUTES", 817, "PT3M", "PATIENT STANDING"], ["CDISCPILOT01", "VS", "01-701-1034", 47, "PULSE", "Pulse Rate", "SUPINE", "76", "beats/min", "76", 76, "beats/min", "", "", "Y", 3.0, "BASELINE", 1, "TREATMENT", "2014-07-01", 1, "AFTER LYING DOWN FOR 5 MINUTES", 815, "PT5M", "PATIENT SUPINE"], ["CDISCPILOT01", "VS", "01-701-1034", 48, "PULSE", "Pulse Rate", "STANDING", "83", "beats/min", "83", 83, "beats/min", "", "", "Y", 3.0, "BASELINE", 1, "TREATMENT", "2014-07-01", 1, "AFTER STANDING FOR 1 MINUTE", 816, "PT1M", "PATIENT STANDING"], ["CDISCPILOT01", "VS", "01-701-1034", 49, "PULSE", "Pulse Rate", "STANDING", "80", "beats/min", "80", 80, "beats/min", "", "", "Y", 3.0, "BASELINE", 1, "TREATMENT", "2014-07-01", 1, "AFTER STANDING FOR 3 MINUTES", 817, "PT3M", "PATIENT STANDING"], ["CDISCPILOT01", "VS", "01-701-1034", 50, "PULSE", "Pulse Rate", "SUPINE", "86", "beats/min", "86", 86, "beats/min", "", "", "", 4.0, "WEEK 2", 14, "TREATMENT", "2014-07-15", 15, "AFTER LYING DOWN FOR 5 MINUTES", 815, "PT5M", "PATIENT SUPINE"], ["CDISCPILOT01", "VS", "01-701-1034", 51, "PULSE", "Pulse Rate", "STANDING", "91", "beats/min", "91", 91, "beats/min", "", "", "", 4.0, "WEEK 2", 14, "TREATMENT", "2014-07-15", 15, "AFTER STANDING FOR 1 MINUTE", 816, "PT1M", "PATIENT STANDING"], ["CDISCPILOT01", "VS", "01-701-1034", 52, "PULSE", "Pulse Rate", "STANDING", "86", "beats/min", "86", 86, "beats/min", "", "", "", 4.0, "WEEK 2", 14, "TREATMENT", "2014-07-15", 15, "AFTER STANDING FOR 3 MINUTES", 817, "PT3M", "PATIENT STANDING"], ["CDISCPILOT01", "VS", "01-701-1034", 53, "PULSE", "Pulse Rate", "SUPINE", "87", "beats/min", "87", 87, "beats/min", "", "", "", 5.0, "WEEK 4", 28, "TREATMENT", "2014-07-29", 29, "AFTER LYING DOWN FOR 5 MINUTES", 815, "PT5M", "PATIENT SUPINE"], ["CDISCPILOT01", "VS", "01-701-1034", 54, "PULSE", "Pulse Rate", "STANDING", "91", "beats/min", "91", 91, "beats/min", "", "", "", 5.0, "WEEK 4", 28, "TREATMENT", "2014-07-29", 29, "AFTER STANDING FOR 1 MINUTE", 816, "PT1M", "PATIENT STANDING"], ["CDISCPILOT01", "VS", "01-701-1034", 55, "PULSE", "Pulse Rate", "STANDING", "88", "beats/min", "88", 88, "beats/min", "", "", "", 5.0, "WEEK 4", 28, "TREATMENT", "2014-07-29", 29, "AFTER STANDING FOR 3 MINUTES", 817, "PT3M", "PATIENT STANDING"], ["CDISCPILOT01", "VS", "01-701-1034", 56, "PULSE", "Pulse Rate", "SUPINE", "83", "beats/min", "83", 83, "beats/min", "", "", "", 6.0, "AMBUL ECG REMOVAL", 30, "TREATMENT", "2014-07-31", 31, "AFTER LYING DOWN FOR 5 MINUTES", 815, "PT5M", "PATIENT SUPINE"], ["CDISCPILOT01", "VS", "01-701-1034", 57, "PULSE", "Pulse Rate", "STANDING", "90", "beats/min", "90", 90, "beats/min", "", "", "", 6.0, "AMBUL ECG REMOVAL", 30, "TREATMENT", "2014-07-31", 31, "AFTER STANDING FOR 1 MINUTE", 816, "PT1M", "PATIENT STANDING"], ["CDISCPILOT01", "VS", "01-701-1034", 58, "PULSE", "Pulse Rate", "STANDING", "86", "beats/min", "86", 86, "beats/min", "", "", "", 6.0, "AMBUL ECG REMOVAL", 30, "TREATMENT", "2014-07-31", 31, "AFTER STANDING FOR 3 MINUTES", 817, "PT3M", "PATIENT STANDING"], ["CDISCPILOT01", "VS", "01-701-1034", 59, "PULSE", "Pulse Rate", "SUPINE", "97", "beats/min", "97", 97, "beats/min", "", "", "", 7.0, "WEEK 6", 42, "TREATMENT", "2014-08-11", 42, "AFTER LYING DOWN FOR 5 MINUTES", 815, "PT5M", "PATIENT SUPINE"], ["CDISCPILOT01", "VS", "01-701-1034", 60, "PULSE", "Pulse Rate", "STANDING", "93", "beats/min", "93", 93, "beats/min", "", "", "", 7.0, "WEEK 6", 42, "TREATMENT", "2014-08-11", 42, "AFTER STANDING FOR 1 MINUTE", 816, "PT1M", "PATIENT STANDING"], ["CDISCPILOT01", "VS", "01-701-1034", 61, "PULSE", "Pulse Rate", "STANDING", "94", "beats/min", "94", 94, "beats/min", "", "", "", 7.0, "WEEK 6", 42, "TREATMENT", "2014-08-11", 42, "AFTER STANDING FOR 3 MINUTES", 817, "PT3M", "PATIENT STANDING"], ["CDISCPILOT01", "VS", "01-701-1034", 62, "PULSE", "Pulse Rate", "SUPINE", "78", "beats/min", "78", 78, "beats/min", "", "", "", 8.0, "WEEK 8", 56, "TREATMENT", "2014-08-26", 57, "AFTER LYING DOWN FOR 5 MINUTES", 815, "PT5M", "PATIENT SUPINE"], ["CDISCPILOT01", "VS", "01-701-1034", 63, "PULSE", "Pulse Rate", "STANDING", "71", "beats/min", "71", 71, "beats/min", "", "", "", 8.0, "WEEK 8", 56, "TREATMENT", "2014-08-26", 57, "AFTER STANDING FOR 1 MINUTE", 816, "PT1M", "PATIENT STANDING"], ["CDISCPILOT01", "VS", "01-701-1034", 64, "PULSE", "Pulse Rate", "STANDING", "71", "beats/min", "71", 71, "beats/min", "", "", "", 8.0, "WEEK 8", 56, "TREATMENT", "2014-08-26", 57, "AFTER STANDING FOR 3 MINUTES", 817, "PT3M", "PATIENT STANDING"], ["CDISCPILOT01", "VS", "01-701-1034", 65, "PULSE", "Pulse Rate", "SUPINE", "66", "beats/min", "66", 66, "beats/min", "", "", "", 9.0, "WEEK 12", 84, "TREATMENT", "2014-09-25", 87, "AFTER LYING DOWN FOR 5 MINUTES", 815, "PT5M", "PATIENT SUPINE"], ["CDISCPILOT01", "VS", "01-701-1034", 66, "PULSE", "Pulse Rate", "STANDING", "70", "beats/min", "70", 70, "beats/min", "", "", "", 9.0, "WEEK 12", 84, "TREATMENT", "2014-09-25", 87, "AFTER STANDING FOR 1 MINUTE", 816, "PT1M", "PATIENT STANDING"], ["CDISCPILOT01", "VS", "01-701-1034", 67, "PULSE", "Pulse Rate", "STANDING", "69", "beats/min", "69", 69, "beats/min", "", "", "", 9.0, "WEEK 12", 84, "TREATMENT", "2014-09-25", 87, "AFTER STANDING FOR 3 MINUTES", 817, "PT3M", "PATIENT STANDING"], ["CDISCPILOT01", "VS", "01-701-1034", 68, "PULSE", "Pulse Rate", "SUPINE", "74", "beats/min", "74", 74, "beats/min", "", "", "", 10.0, "WEEK 16", 112, "TREATMENT", "2014-10-21", 113, "AFTER LYING DOWN FOR 5 MINUTES", 815, "PT5M", "PATIENT SUPINE"], ["CDISCPILOT01", "VS", "01-701-1034", 69, "PULSE", "Pulse Rate", "STANDING", "79", "beats/min", "79", 79, "beats/min", "", "", "", 10.0, "WEEK 16", 112, "TREATMENT", "2014-10-21", 113, "AFTER STANDING FOR 1 MINUTE", 816, "PT1M", "PATIENT STANDING"], ["CDISCPILOT01", "VS", "01-701-1034", 70, "PULSE", "Pulse Rate", "STANDING", "78", "beats/min", "78", 78, "beats/min", "", "", "", 10.0, "WEEK 16", 112, "TREATMENT", "2014-10-21", 113, "AFTER STANDING FOR 3 MINUTES", 817, "PT3M", "PATIENT STANDING"], ["CDISCPILOT01", "VS", "01-701-1034", 71, "PULSE", "Pulse Rate", "SUPINE", "86", "beats/min", "86", 86, "beats/min", "", "", "", 11.0, "WEEK 20", 140, "TREATMENT", "2014-11-18", 141, "AFTER LYING DOWN FOR 5 MINUTES", 815, "PT5M", "PATIENT SUPINE"], ["CDISCPILOT01", "VS", "01-701-1034", 72, "PULSE", "Pulse Rate", "STANDING", "84", "beats/min", "84", 84, "beats/min", "", "", "", 11.0, "WEEK 20", 140, "TREATMENT", "2014-11-18", 141, "AFTER STANDING FOR 1 MINUTE", 816, "PT1M", "PATIENT STANDING"], ["CDISCPILOT01", "VS", "01-701-1034", 73, "PULSE", "Pulse Rate", "STANDING", "80", "beats/min", "80", 80, "beats/min", "", "", "", 11.0, "WEEK 20", 140, "TREATMENT", "2014-11-18", 141, "AFTER STANDING FOR 3 MINUTES", 817, "PT3M", "PATIENT STANDING"], ["CDISCPILOT01", "VS", "01-701-1034", 74, "PULSE", "Pulse Rate", "SUPINE", "96", "beats/min", "96", 96, "beats/min", "", "", "", 12.0, "WEEK 24", 168, "TREATMENT", "2014-12-17", 170, "AFTER LYING DOWN FOR 5 MINUTES", 815, "PT5M", "PATIENT SUPINE"], ["CDISCPILOT01", "VS", "01-701-1034", 75, "PULSE", "Pulse Rate", "STANDING", "97", "beats/min", "97", 97, "beats/min", "", "", "", 12.0, "WEEK 24", 168, "TREATMENT", "2014-12-17", 170, "AFTER STANDING FOR 1 MINUTE", 816, "PT1M", "PATIENT STANDING"], ["CDISCPILOT01", "VS", "01-701-1034", 76, "PULSE", "Pulse Rate", "STANDING", "91", "beats/min", "91", 91, "beats/min", "", "", "", 12.0, "WEEK 24", 168, "TREATMENT", "2014-12-17", 170, "AFTER STANDING FOR 3 MINUTES", 817, "PT3M", "PATIENT STANDING"], ["CDISCPILOT01", "VS", "01-701-1034", 77, "PULSE", "Pulse Rate", "SUPINE", "74", "beats/min", "74", 74, "beats/min", "", "", "", 13.0, "WEEK 26", 182, "TREATMENT", "2014-12-30", 183, "AFTER LYING DOWN FOR 5 MINUTES", 815, "PT5M", "PATIENT SUPINE"], ["CDISCPILOT01", "VS", "01-701-1034", 78, "PULSE", "Pulse Rate", "STANDING", "86", "beats/min", "86", 86, "beats/min", "", "", "", 13.0, "WEEK 26", 182, "TREATMENT", "2014-12-30", 183, "AFTER STANDING FOR 1 MINUTE", 816, "PT1M", "PATIENT STANDING"], ["CDISCPILOT01", "VS", "01-701-1034", 79, "PULSE", "Pulse Rate", "STANDING", "76", "beats/min", "76", 76, "beats/min", "", "", "", 13.0, "WEEK 26", 182, "TREATMENT", "2014-12-30", 183, "AFTER STANDING FOR 3 MINUTES", 817, "PT3M", "PATIENT STANDING"], ["CDISCPILOT01", "VS", "01-701-1034", 80, "SYSBP", "Systolic Blood Pressure", "SUPINE", "160", "mmHg", "160", 160, "mmHg", "", "", "", 1.0, "SCREENING 1", -7, "SCREENING", "2014-06-24", -7, "AFTER LYING DOWN FOR 5 MINUTES", 815, "PT5M", "PATIENT SUPINE"], ["CDISCPILOT01", "VS", "01-701-1034", 81, "SYSBP", "Systolic Blood Pressure", "STANDING", "183", "mmHg", "183", 183, "mmHg", "", "", "", 1.0, "SCREENING 1", -7, "SCREENING", "2014-06-24", -7, "AFTER STANDING FOR 1 MINUTE", 816, "PT1M", "PATIENT STANDING"], ["CDISCPILOT01", "VS", "01-701-1034", 82, "SYSBP", "Systolic Blood Pressure", "STANDING", "151", "mmHg", "151", 151, "mmHg", "", "", "", 1.0, "SCREENING 1", -7, "SCREENING", "2014-06-24", -7, "AFTER STANDING FOR 3 MINUTES", 817, "PT3M", "PATIENT STANDING"], ["CDISCPILOT01", "VS", "01-701-1034", 83, "SYSBP", "Systolic Blood Pressure", "SUPINE", "158", "mmHg", "158", 158, "mmHg", "", "", "", 2.0, "SCREENING 2", -1, "SCREENING", "2014-06-29", -2, "AFTER LYING DOWN FOR 5 MINUTES", 815, "PT5M", "PATIENT SUPINE"], ["CDISCPILOT01", "VS", "01-701-1034", 84, "SYSBP", "Systolic Blood Pressure", "STANDING", "155", "mmHg", "155", 155, "mmHg", "", "", "", 2.0, "SCREENING 2", -1, "SCREENING", "2014-06-29", -2, "AFTER STANDING FOR 1 MINUTE", 816, "PT1M", "PATIENT STANDING"], ["CDISCPILOT01", "VS", "01-701-1034", 85, "SYSBP", "Systolic Blood Pressure", "STANDING", "155", "mmHg", "155", 155, "mmHg", "", "", "", 2.0, "SCREENING 2", -1, "SCREENING", "2014-06-29", -2, "AFTER STANDING FOR 3 MINUTES", 817, "PT3M", "PATIENT STANDING"], ["CDISCPILOT01", "VS", "01-701-1034", 86, "SYSBP", "Systolic Blood Pressure", "SUPINE", "163", "mmHg", "163", 163, "mmHg", "", "", "Y", 3.0, "BASELINE", 1, "TREATMENT", "2014-07-01", 1, "AFTER LYING DOWN FOR 5 MINUTES", 815, "PT5M", "PATIENT SUPINE"], ["CDISCPILOT01", "VS", "01-701-1034", 87, "SYSBP", "Systolic Blood Pressure", "STANDING", "177", "mmHg", "177", 177, "mmHg", "", "", "Y", 3.0, "BASELINE", 1, "TREATMENT", "2014-07-01", 1, "AFTER STANDING FOR 1 MINUTE", 816, "PT1M", "PATIENT STANDING"], ["CDISCPILOT01", "VS", "01-701-1034", 88, "SYSBP", "Systolic Blood Pressure", "STANDING", "168", "mmHg", "168", 168, "mmHg", "", "", "Y", 3.0, "BASELINE", 1, "TREATMENT", "2014-07-01", 1, "AFTER STANDING FOR 3 MINUTES", 817, "PT3M", "PATIENT STANDING"], ["CDISCPILOT01", "VS", "01-701-1034", 89, "SYSBP", "Systolic Blood Pressure", "SUPINE", "183", "mmHg", "183", 183, "mmHg", "", "", "", 4.0, "WEEK 2", 14, "TREATMENT", "2014-07-15", 15, "AFTER LYING DOWN FOR 5 MINUTES", 815, "PT5M", "PATIENT SUPINE"], ["CDISCPILOT01", "VS", "01-701-1034", 90, "SYSBP", "Systolic Blood Pressure", "STANDING", "191", "mmHg", "191", 191, "mmHg", "", "", "", 4.0, "WEEK 2", 14, "TREATMENT", "2014-07-15", 15, "AFTER STANDING FOR 1 MINUTE", 816, "PT1M", "PATIENT STANDING"], ["CDISCPILOT01", "VS", "01-701-1034", 91, "SYSBP", "Systolic Blood Pressure", "STANDING", "161", "mmHg", "161", 161, "mmHg", "", "", "", 4.0, "WEEK 2", 14, "TREATMENT", "2014-07-15", 15, "AFTER STANDING FOR 3 MINUTES", 817, "PT3M", "PATIENT STANDING"], ["CDISCPILOT01", "VS", "01-701-1034", 92, "SYSBP", "Systolic Blood Pressure", "SUPINE", "165", "mmHg", "165", 165, "mmHg", "", "", "", 5.0, "WEEK 4", 28, "TREATMENT", "2014-07-29", 29, "AFTER LYING DOWN FOR 5 MINUTES", 815, "PT5M", "PATIENT SUPINE"], ["CDISCPILOT01", "VS", "01-701-1034", 93, "SYSBP", "Systolic Blood Pressure", "STANDING", "170", "mmHg", "170", 170, "mmHg", "", "", "", 5.0, "WEEK 4", 28, "TREATMENT", "2014-07-29", 29, "AFTER STANDING FOR 1 MINUTE", 816, "PT1M", "PATIENT STANDING"], ["CDISCPILOT01", "VS", "01-701-1034", 94, "SYSBP", "Systolic Blood Pressure", "STANDING", "169", "mmHg", "169", 169, "mmHg", "", "", "", 5.0, "WEEK 4", 28, "TREATMENT", "2014-07-29", 29, "AFTER STANDING FOR 3 MINUTES", 817, "PT3M", "PATIENT STANDING"], ["CDISCPILOT01", "VS", "01-701-1034", 95, "SYSBP", "Systolic Blood Pressure", "SUPINE", "140", "mmHg", "140", 140, "mmHg", "", "", "", 6.0, "AMBUL ECG REMOVAL", 30, "TREATMENT", "2014-07-31", 31, "AFTER LYING DOWN FOR 5 MINUTES", 815, "PT5M", "PATIENT SUPINE"], ["CDISCPILOT01", "VS", "01-701-1034", 96, "SYSBP", "Systolic Blood Pressure", "STANDING", "166", "mmHg", "166", 166, "mmHg", "", "", "", 6.0, "AMBUL ECG REMOVAL", 30, "TREATMENT", "2014-07-31", 31, "AFTER STANDING FOR 1 MINUTE", 816, "PT1M", "PATIENT STANDING"], ["CDISCPILOT01", "VS", "01-701-1034", 97, "SYSBP", "Systolic Blood Pressure", "STANDING", "159", "mmHg", "159", 159, "mmHg", "", "", "", 6.0, "AMBUL ECG REMOVAL", 30, "TREATMENT", "2014-07-31", 31, "AFTER STANDING FOR 3 MINUTES", 817, "PT3M", "PATIENT STANDING"], ["CDISCPILOT01", "VS", "01-701-1034", 98, "SYSBP", "Systolic Blood Pressure", "SUPINE", "145", "mmHg", "145", 145, "mmHg", "", "", "", 7.0, "WEEK 6", 42, "TREATMENT", "2014-08-11", 42, "AFTER LYING DOWN FOR 5 MINUTES", 815, "PT5M", "PATIENT SUPINE"], ["CDISCPILOT01", "VS", "01-701-1034", 99, "SYSBP", "Systolic Blood Pressure", "STANDING", "174", "mmHg", "174", 174, "mmHg", "", "", "", 7.0, "WEEK 6", 42, "TREATMENT", "2014-08-11", 42, "AFTER STANDING FOR 1 MINUTE", 816, "PT1M", "PATIENT STANDING"], ["CDISCPILOT01", "VS", "01-701-1034", 100, "SYSBP", "Systolic Blood Pressure", "STANDING", "170", "mmHg", "170", 170, "mmHg", "", "", "", 7.0, "WEEK 6", 42, "TREATMENT", "2014-08-11", 42, "AFTER STANDING FOR 3 MINUTES", 817, "PT3M", "PATIENT STANDING"], ["CDISCPILOT01", "VS", "01-701-1034", 101, "SYSBP", "Systolic Blood Pressure", "SUPINE", "188", "mmHg", "188", 188, "mmHg", "", "", "", 8.0, "WEEK 8", 56, "TREATMENT", "2014-08-26", 57, "AFTER LYING DOWN FOR 5 MINUTES", 815, "PT5M", "PATIENT SUPINE"], ["CDISCPILOT01", "VS", "01-701-1034", 102, "SYSBP", "Systolic Blood Pressure", "STANDING", "197", "mmHg", "197", 197, "mmHg", "", "", "", 8.0, "WEEK 8", 56, "TREATMENT", "2014-08-26", 57, "AFTER STANDING FOR 1 MINUTE", 816, "PT1M", "PATIENT STANDING"], ["CDISCPILOT01", "VS", "01-701-1034", 103, "SYSBP", "Systolic Blood Pressure", "STANDING", "198", "mmHg", "198", 198, "mmHg", "", "", "", 8.0, "WEEK 8", 56, "TREATMENT", "2014-08-26", 57, "AFTER STANDING FOR 3 MINUTES", 817, "PT3M", "PATIENT STANDING"], ["CDISCPILOT01", "VS", "01-701-1034", 104, "SYSBP", "Systolic Blood Pressure", "SUPINE", "145", "mmHg", "145", 145, "mmHg", "", "", "", 9.0, "WEEK 12", 84, "TREATMENT", "2014-09-25", 87, "AFTER LYING DOWN FOR 5 MINUTES", 815, "PT5M", "PATIENT SUPINE"], ["CDISCPILOT01", "VS", "01-701-1034", 105, "SYSBP", "Systolic Blood Pressure", "STANDING", "150", "mmHg", "150", 150, "mmHg", "", "", "", 9.0, "WEEK 12", 84, "TREATMENT", "2014-09-25", 87, "AFTER STANDING FOR 1 MINUTE", 816, "PT1M", "PATIENT STANDING"], ["CDISCPILOT01", "VS", "01-701-1034", 106, "SYSBP", "Systolic Blood Pressure", "STANDING", "177", "mmHg", "177", 177, "mmHg", "", "", "", 9.0, "WEEK 12", 84, "TREATMENT", "2014-09-25", 87, "AFTER STANDING FOR 3 MINUTES", 817, "PT3M", "PATIENT STANDING"], ["CDISCPILOT01", "VS", "01-701-1034", 107, "SYSBP", "Systolic Blood Pressure", "SUPINE", "154", "mmHg", "154", 154, "mmHg", "", "", "", 10.0, "WEEK 16", 112, "TREATMENT", "2014-10-21", 113, "AFTER LYING DOWN FOR 5 MINUTES", 815, "PT5M", "PATIENT SUPINE"], ["CDISCPILOT01", "VS", "01-701-1034", 108, "SYSBP", "Systolic Blood Pressure", "STANDING", "183", "mmHg", "183", 183, "mmHg", "", "", "", 10.0, "WEEK 16", 112, "TREATMENT", "2014-10-21", 113, "AFTER STANDING FOR 1 MINUTE", 816, "PT1M", "PATIENT STANDING"], ["CDISCPILOT01", "VS", "01-701-1034", 109, "SYSBP", "Systolic Blood Pressure", "STANDING", "186", "mmHg", "186", 186, "mmHg", "", "", "", 10.0, "WEEK 16", 112, "TREATMENT", "2014-10-21", 113, "AFTER STANDING FOR 3 MINUTES", 817, "PT3M", "PATIENT STANDING"], ["CDISCPILOT01", "VS", "01-701-1034", 110, "SYSBP", "Systolic Blood Pressure", "SUPINE", "167", "mmHg", "167", 167, "mmHg", "", "", "", 11.0, "WEEK 20", 140, "TREATMENT", "2014-11-18", 141, "AFTER LYING DOWN FOR 5 MINUTES", 815, "PT5M", "PATIENT SUPINE"], ["CDISCPILOT01", "VS", "01-701-1034", 111, "SYSBP", "Systolic Blood Pressure", "STANDING", "181", "mmHg", "181", 181, "mmHg", "", "", "", 11.0, "WEEK 20", 140, "TREATMENT", "2014-11-18", 141, "AFTER STANDING FOR 1 MINUTE", 816, "PT1M", "PATIENT STANDING"], ["CDISCPILOT01", "VS", "01-701-1034", 112, "SYSBP", "Systolic Blood Pressure", "STANDING", "185", "mmHg", "185", 185, "mmHg", "", "", "", 11.0, "WEEK 20", 140, "TREATMENT", "2014-11-18", 141, "AFTER STANDING FOR 3 MINUTES", 817, "PT3M", "PATIENT STANDING"], ["CDISCPILOT01", "VS", "01-701-1034", 113, "SYSBP", "Systolic Blood Pressure", "SUPINE", "178", "mmHg", "178", 178, "mmHg", "", "", "", 12.0, "WEEK 24", 168, "TREATMENT", "2014-12-17", 170, "AFTER LYING DOWN FOR 5 MINUTES", 815, "PT5M", "PATIENT SUPINE"], ["CDISCPILOT01", "VS", "01-701-1034", 114, "SYSBP", "Systolic Blood Pressure", "STANDING", "198", "mmHg", "198", 198, "mmHg", "", "", "", 12.0, "WEEK 24", 168, "TREATMENT", "2014-12-17", 170, "AFTER STANDING FOR 1 MINUTE", 816, "PT1M", "PATIENT STANDING"], ["CDISCPILOT01", "VS", "01-701-1034", 115, "SYSBP", "Systolic Blood Pressure", "STANDING", "164", "mmHg", "164", 164, "mmHg", "", "", "", 12.0, "WEEK 24", 168, "TREATMENT", "2014-12-17", 170, "AFTER STANDING FOR 3 MINUTES", 817, "PT3M", "PATIENT STANDING"], ["CDISCPILOT01", "VS", "01-701-1034", 116, "SYSBP", "Systolic Blood Pressure", "SUPINE", "154", "mmHg", "154", 154, "mmHg", "", "", "", 13.0, "WEEK 26", 182, "TREATMENT", "2014-12-30", 183, "AFTER LYING DOWN FOR 5 MINUTES", 815, "PT5M", "PATIENT SUPINE"], ["CDISCPILOT01", "VS", "01-701-1034", 117, "SYSBP", "Systolic Blood Pressure", "STANDING", "150", "mmHg", "150", 150, "mmHg", "", "", "", 13.0, "WEEK 26", 182, "TREATMENT", "2014-12-30", 183, "AFTER STANDING FOR 1 MINUTE", 816, "PT1M", "PATIENT STANDING"], ["CDISCPILOT01", "VS", "01-701-1034", 118, "SYSBP", "Systolic Blood Pressure", "STANDING", "179", "mmHg", "179", 179, "mmHg", "", "", "", 13.0, "WEEK 26", 182, "TREATMENT", "2014-12-30", 183, "AFTER STANDING FOR 3 MINUTES", 817, "PT3M", "PATIENT STANDING"], ["CDISCPILOT01", "VS", "01-701-1034", 119, "TEMP", "Temperature", "", "97.2", "F", "36.22", 36, "C", "", "ORAL CAVITY", "", 1.0, "SCREENING 1", -7, "SCREENING", "2014-06-24", -7, "", null, "", ""], ["CDISCPILOT01", "VS", "01-701-1034", 120, "TEMP", "Temperature", "", "97.7", "F", "36.5", 36, "C", "", "ORAL CAVITY", "", 2.0, "SCREENING 2", -1, "SCREENING", "2014-06-29", -2, "", null, "", ""], ["CDISCPILOT01", "VS", "01-701-1034", 121, "TEMP", "Temperature", "", "98.5", "F", "36.94", 36, "C", "", "ORAL CAVITY", "Y", 3.0, "BASELINE", 1, "TREATMENT", "2014-07-01", 1, "", null, "", ""], ["CDISCPILOT01", "VS", "01-701-1034", 122, "TEMP", "Temperature", "", "97.8", "F", "36.56", 36, "C", "", "ORAL CAVITY", "", 4.0, "WEEK 2", 14, "TREATMENT", "2014-07-15", 15, "", null, "", ""], ["CDISCPILOT01", "VS", "01-701-1034", 123, "TEMP", "Temperature", "", "97.9", "F", "36.61", 36, "C", "", "ORAL CAVITY", "", 5.0, "WEEK 4", 28, "TREATMENT", "2014-07-29", 29, "", null, "", ""], ["CDISCPILOT01", "VS", "01-701-1034", 124, "TEMP", "Temperature", "", "98.3", "F", "36.83", 36, "C", "", "ORAL CAVITY", "", 6.0, "AMBUL ECG REMOVAL", 30, "TREATMENT", "2014-07-31", 31, "", null, "", ""], ["CDISCPILOT01", "VS", "01-701-1034", 125, "TEMP", "Temperature", "", "98.7", "F", "37.06", 37, "C", "", "ORAL CAVITY", "", 7.0, "WEEK 6", 42, "TREATMENT", "2014-08-11", 42, "", null, "", ""], ["CDISCPILOT01", "VS", "01-701-1034", 126, "TEMP", "Temperature", "", "98.1", "F", "36.72", 36, "C", "", "ORAL CAVITY", "", 8.0, "WEEK 8", 56, "TREATMENT", "2014-08-26", 57, "", null, "", ""], ["CDISCPILOT01", "VS", "01-701-1034", 127, "TEMP", "Temperature", "", "98.7", "F", "37.06", 37, "C", "", "ORAL CAVITY", "", 9.0, "WEEK 12", 84, "TREATMENT", "2014-09-25", 87, "", null, "", ""], ["CDISCPILOT01", "VS", "01-701-1034", 128, "TEMP", "Temperature", "", "98.5", "F", "36.94", 36, "C", "", "ORAL CAVITY", "", 10.0, "WEEK 16", 112, "TREATMENT", "2014-10-21", 113, "", null, "", ""], ["CDISCPILOT01", "VS", "01-701-1034", 129, "TEMP", "Temperature", "", "98.4", "F", "36.89", 36, "C", "", "ORAL CAVITY", "", 11.0, "WEEK 20", 140, "TREATMENT", "2014-11-18", 141, "", null, "", ""], ["CDISCPILOT01", "VS", "01-701-1034", 130, "TEMP", "Temperature", "", "98.1", "F", "36.72", 36, "C", "", "ORAL CAVITY", "", 12.0, "WEEK 24", 168, "TREATMENT", "2014-12-17", 170, "", null, "", ""], ["CDISCPILOT01", "VS", "01-701-1034", 131, "TEMP", "Temperature", "", "97.8", "F", "36.56", 36, "C", "", "ORAL CAVITY", "", 13.0, "WEEK 26", 182, "TREATMENT", "2014-12-30", 183, "", null, "", ""], ["CDISCPILOT01", "VS", "01-701-1034", 132, "WEIGHT", "Weight", "", "140.0", "LB", "63.5", 63, "kg", "", "", "", 1.0, "SCREENING 1", -7, "SCREENING", "2014-06-24", -7, "", null, "", ""], ["CDISCPILOT01", "VS", "01-701-1034", 133, "WEIGHT", "Weight", "", "138.0", "LB", "62.6", 62, "kg", "", "", "Y", 3.0, "BASELINE", 1, "TREATMENT", "2014-07-01", 1, "", null, "", ""], ["CDISCPILOT01", "VS", "01-701-1034", 134, "WEIGHT", "Weight", "", "138.0", "LB", "62.6", 62, "kg", "", "", "", 4.0, "WEEK 2", 14, "TREATMENT", "2014-07-15", 15, "", null, "", ""], ["CDISCPILOT01", "VS", "01-701-1034", 135, "WEIGHT", "Weight", "", "141.0", "LB", "63.96", 63, "kg", "", "", "", 5.0, "WEEK 4", 28, "TREATMENT", "2014-07-29", 29, "", null, "", ""], ["CDISCPILOT01", "VS", "01-701-1034", 136, "WEIGHT", "Weight", "", "141.0", "LB", "63.96", 63, "kg", "", "", "", 7.0, "WEEK 6", 42, "TREATMENT", "2014-08-11", 42, "", null, "", ""], ["CDISCPILOT01", "VS", "01-701-1034", 137, "WEIGHT", "Weight", "", "139.0", "LB", "63.05", 63, "kg", "", "", "", 8.0, "WEEK 8", 56, "TREATMENT", "2014-08-26", 57, "", null, "", ""], ["CDISCPILOT01", "VS", "01-701-1034", 138, "WEIGHT", "Weight", "", "139.0", "LB", "63.05", 63, "kg", "", "", "", 9.0, "WEEK 12", 84, "TREATMENT", "2014-09-25", 87, "", null, "", ""], ["CDISCPILOT01", "VS", "01-701-1034", 139, "WEIGHT", "Weight", "", "142.0", "LB", "64.41", 64, "kg", "", "", "", 10.0, "WEEK 16", 112, "TREATMENT", "2014-10-21", 113, "", null, "", ""], ["CDISCPILOT01", "VS", "01-701-1034", 140, "WEIGHT", "Weight", "", "143.0", "LB", "64.86", 64, "kg", "", "", "", 11.0, "WEEK 20", 140, "TREATMENT", "2014-11-18", 141, "", null, "", ""], ["CDISCPILOT01", "VS", "01-701-1034", 141, "WEIGHT", "Weight", "", "144.0", "LB", "65.32", 65, "kg", "", "", "", 12.0, "WEEK 24", 168, "TREATMENT", "2014-12-17", 170, "", null, "", ""], ["CDISCPILOT01", "VS", "01-701-1034", 142, "WEIGHT", "Weight", "", "141.0", "LB", "63.96", 63, "kg", "", "", "", 13.0, "WEEK 26", 182, "TREATMENT", "2014-12-30", 183, "", null, "", ""], ["CDISCPILOT01", "VS", "01-701-1047", 1, "DIABP", "Diastolic Blood Pressure", "SUPINE", "68", "mmHg", "68", 68, "mmHg", "", "", "", 1.0, "SCREENING 1", -7, "SCREENING", "2013-01-22", -21, "AFTER LYING DOWN FOR 5 MINUTES", 815, "PT5M", "PATIENT SUPINE"], ["CDISCPILOT01", "VS", "01-701-1047", 2, "DIABP", "Diastolic Blood Pressure", "STANDING", "71", "mmHg", "71", 71, "mmHg", "", "", "", 1.0, "SCREENING 1", -7, "SCREENING", "2013-01-22", -21, "AFTER STANDING FOR 1 MINUTE", 816, "PT1M", "PATIENT STANDING"], ["CDISCPILOT01", "VS", "01-701-1047", 3, "DIABP", "Diastolic Blood Pressure", "STANDING", "83", "mmHg", "83", 83, "mmHg", "", "", "", 1.0, "SCREENING 1", -7, "SCREENING", "2013-01-22", -21, "AFTER STANDING FOR 3 MINUTES", 817, "PT3M", "PATIENT STANDING"], ["CDISCPILOT01", "VS", "01-701-1047", 4, "DIABP", "Diastolic Blood Pressure", "SUPINE", "65", "mmHg", "65", 65, "mmHg", "", "", "", 2.0, "SCREENING 2", -1, "SCREENING", "2013-02-10", -2, "AFTER LYING DOWN FOR 5 MINUTES", 815, "PT5M", "PATIENT SUPINE"], ["CDISCPILOT01", "VS", "01-701-1047", 5, "DIABP", "Diastolic Blood Pressure", "STANDING", "86", "mmHg", "86", 86, "mmHg", "", "", "", 2.0, "SCREENING 2", -1, "SCREENING", "2013-02-10", -2, "AFTER STANDING FOR 1 MINUTE", 816, "PT1M", "PATIENT STANDING"], ["CDISCPILOT01", "VS", "01-701-1047", 6, "DIABP", "Diastolic Blood Pressure", "STANDING", "71", "mmHg", "71", 71, "mmHg", "", "", "", 2.0, "SCREENING 2", -1, "SCREENING", "2013-02-10", -2, "AFTER STANDING FOR 3 MINUTES", 817, "PT3M", "PATIENT STANDING"], ["CDISCPILOT01", "VS", "01-701-1047", 7, "DIABP", "Diastolic Blood Pressure", "SUPINE", "61", "mmHg", "61", 61, "mmHg", "", "", "Y", 3.0, "BASELINE", 1, "TREATMENT", "2013-02-12", 1, "AFTER LYING DOWN FOR 5 MINUTES", 815, "PT5M", "PATIENT SUPINE"], ["CDISCPILOT01", "VS", "01-701-1047", 8, "DIABP", "Diastolic Blood Pressure", "STANDING", "68", "mmHg", "68", 68, "mmHg", "", "", "Y", 3.0, "BASELINE", 1, "TREATMENT", "2013-02-12", 1, "AFTER STANDING FOR 1 MINUTE", 816, "PT1M", "PATIENT STANDING"], ["CDISCPILOT01", "VS", "01-701-1047", 9, "DIABP", "Diastolic Blood Pressure", "STANDING", "78", "mmHg", "78", 78, "mmHg", "", "", "Y", 3.0, "BASELINE", 1, "TREATMENT", "2013-02-12", 1, "AFTER STANDING FOR 3 MINUTES", 817, "PT3M", "PATIENT STANDING"], ["CDISCPILOT01", "VS", "01-701-1047", 10, "DIABP", "Diastolic Blood Pressure", "SUPINE", "72", "mmHg", "72", 72, "mmHg", "", "", "", 3.5, "AMBUL ECG PLACEMENT", 13, "TREATMENT", "2013-02-24", 13, "AFTER LYING DOWN FOR 5 MINUTES", 815, "PT5M", "PATIENT SUPINE"], ["CDISCPILOT01", "VS", "01-701-1047", 11, "DIABP", "Diastolic Blood Pressure", "STANDING", "56", "mmHg", "56", 56, "mmHg", "", "", "", 3.5, "AMBUL ECG PLACEMENT", 13, "TREATMENT", "2013-02-24", 13, "AFTER STANDING FOR 1 MINUTE", 816, "PT1M", "PATIENT STANDING"], ["CDISCPILOT01", "VS", "01-701-1047", 12, "DIABP", "Diastolic Blood Pressure", "STANDING", "73", "mmHg", "73", 73, "mmHg", "", "", "", 3.5, "AMBUL ECG PLACEMENT", 13, "TREATMENT", "2013-02-24", 13, "AFTER STANDING FOR 3 MINUTES", 817, "PT3M", "PATIENT STANDING"], ["CDISCPILOT01", "VS", "01-701-1047", 13, "DIABP", "Diastolic Blood Pressure", "SUPINE", "72", "mmHg", "72", 72, "mmHg", "", "", "", 4.0, "WEEK 2", 14, "TREATMENT", "2013-02-25", 14, "AFTER LYING DOWN FOR 5 MINUTES", 815, "PT5M", "PATIENT SUPINE"], ["CDISCPILOT01", "VS", "01-701-1047", 14, "DIABP", "Diastolic Blood Pressure", "STANDING", "84", "mmHg", "84", 84, "mmHg", "", "", "", 4.0, "WEEK 2", 14, "TREATMENT", "2013-02-25", 14, "AFTER STANDING FOR 1 MINUTE", 816, "PT1M", "PATIENT STANDING"], ["CDISCPILOT01", "VS", "01-701-1047", 15, "DIABP", "Diastolic Blood Pressure", "STANDING", "73", "mmHg", "73", 73, "mmHg", "", "", "", 4.0, "WEEK 2", 14, "TREATMENT", "2013-02-25", 14, "AFTER STANDING FOR 3 MINUTES", 817, "PT3M", "PATIENT STANDING"], ["CDISCPILOT01", "VS", "01-701-1047", 16, "DIABP", "Diastolic Blood Pressure", "SUPINE", "72", "mmHg", "72", 72, "mmHg", "", "", "", 5.0, "WEEK 4", 28, "TREATMENT", "2013-03-10", 27, "AFTER LYING DOWN FOR 5 MINUTES", 815, "PT5M", "PATIENT SUPINE"], ["CDISCPILOT01", "VS", "01-701-1047", 17, "DIABP", "Diastolic Blood Pressure", "STANDING", "71", "mmHg", "71", 71, "mmHg", "", "", "", 5.0, "WEEK 4", 28, "TREATMENT", "2013-03-10", 27, "AFTER STANDING FOR 1 MINUTE", 816, "PT1M", "PATIENT STANDING"], ["CDISCPILOT01", "VS", "01-701-1047", 18, "DIABP", "Diastolic Blood Pressure", "STANDING", "78", "mmHg", "78", 78, "mmHg", "", "", "", 5.0, "WEEK 4", 28, "TREATMENT", "2013-03-10", 27, "AFTER STANDING FOR 3 MINUTES", 817, "PT3M", "PATIENT STANDING"], ["CDISCPILOT01", "VS", "01-701-1047", 19, "DIABP", "Diastolic Blood Pressure", "SUPINE", "71", "mmHg", "71", 71, "mmHg", "", "", "", 6.0, "AMBUL ECG REMOVAL", 30, "TREATMENT", "2013-03-29", 46, "AFTER LYING DOWN FOR 5 MINUTES", 815, "PT5M", "PATIENT SUPINE"], ["CDISCPILOT01", "VS", "01-701-1047", 20, "DIABP", "Diastolic Blood Pressure", "STANDING", "63", "mmHg", "63", 63, "mmHg", "", "", "", 6.0, "AMBUL ECG REMOVAL", 30, "TREATMENT", "2013-03-29", 46, "AFTER STANDING FOR 1 MINUTE", 816, "PT1M", "PATIENT STANDING"], ["CDISCPILOT01", "VS", "01-701-1047", 21, "DIABP", "Diastolic Blood Pressure", "STANDING", "57", "mmHg", "57", 57, "mmHg", "", "", "", 6.0, "AMBUL ECG REMOVAL", 30, "TREATMENT", "2013-03-29", 46, "AFTER STANDING FOR 3 MINUTES", 817, "PT3M", "PATIENT STANDING"], ["CDISCPILOT01", "VS", "01-701-1047", 22, "DIABP", "Diastolic Blood Pressure", "SUPINE", "76", "mmHg", "76", 76, "mmHg", "", "", "", 201.0, "RETRIEVAL", 168, "FOLLOW-UP", "2013-07-28", 167, "AFTER LYING DOWN FOR 5 MINUTES", 815, "PT5M", "PATIENT SUPINE"], ["CDISCPILOT01", "VS", "01-701-1047", 23, "DIABP", "Diastolic Blood Pressure", "STANDING", "71", "mmHg", "71", 71, "mmHg", "", "", "", 201.0, "RETRIEVAL", 168, "FOLLOW-UP", "2013-07-28", 167, "AFTER STANDING FOR 1 MINUTE", 816, "PT1M", "PATIENT STANDING"], ["CDISCPILOT01", "VS", "01-701-1047", 24, "DIABP", "Diastolic Blood Pressure", "STANDING", "65", "mmHg", "65", 65, "mmHg", "", "", "", 201.0, "RETRIEVAL", 168, "FOLLOW-UP", "2013-07-28", 167, "AFTER STANDING FOR 3 MINUTES", 817, "PT3M", "PATIENT STANDING"], ["CDISCPILOT01", "VS", "01-701-1047", 25, "HEIGHT", "Height", "", "58.5", "in", "148.59", 148, "cm", "", "", "", 1.0, "SCREENING 1", -7, "SCREENING", "2013-01-22", -21, "", null, "", ""], ["CDISCPILOT01", "VS", "01-701-1047", 26, "PULSE", "Pulse Rate", "SUPINE", "53", "beats/min", "53", 53, "beats/min", "", "", "", 1.0, "SCREENING 1", -7, "SCREENING", "2013-01-22", -21, "AFTER LYING DOWN FOR 5 MINUTES", 815, "PT5M", "PATIENT SUPINE"], ["CDISCPILOT01", "VS", "01-701-1047", 27, "PULSE", "Pulse Rate", "STANDING", "64", "beats/min", "64", 64, "beats/min", "", "", "", 1.0, "SCREENING 1", -7, "SCREENING", "2013-01-22", -21, "AFTER STANDING FOR 1 MINUTE", 816, "PT1M", "PATIENT STANDING"], ["CDISCPILOT01", "VS", "01-701-1047", 28, "PULSE", "Pulse Rate", "STANDING", "61", "beats/min", "61", 61, "beats/min", "", "", "", 1.0, "SCREENING 1", -7, "SCREENING", "2013-01-22", -21, "AFTER STANDING FOR 3 MINUTES", 817, "PT3M", "PATIENT STANDING"], ["CDISCPILOT01", "VS", "01-701-1047", 29, "PULSE", "Pulse Rate", "SUPINE", "58", "beats/min", "58", 58, "beats/min", "", "", "", 2.0, "SCREENING 2", -1, "SCREENING", "2013-02-10", -2, "AFTER LYING DOWN FOR 5 MINUTES", 815, "PT5M", "PATIENT SUPINE"], ["CDISCPILOT01", "VS", "01-701-1047", 30, "PULSE", "Pulse Rate", "STANDING", "74", "beats/min", "74", 74, "beats/min", "", "", "", 2.0, "SCREENING 2", -1, "SCREENING", "2013-02-10", -2, "AFTER STANDING FOR 1 MINUTE", 816, "PT1M", "PATIENT STANDING"], ["CDISCPILOT01", "VS", "01-701-1047", 31, "PULSE", "Pulse Rate", "STANDING", "73", "beats/min", "73", 73, "beats/min", "", "", "", 2.0, "SCREENING 2", -1, "SCREENING", "2013-02-10", -2, "AFTER STANDING FOR 3 MINUTES", 817, "PT3M", "PATIENT STANDING"], ["CDISCPILOT01", "VS", "01-701-1047", 32, "PULSE", "Pulse Rate", "SUPINE", "58", "beats/min", "58", 58, "beats/min", "", "", "Y", 3.0, "BASELINE", 1, "TREATMENT", "2013-02-12", 1, "AFTER LYING DOWN FOR 5 MINUTES", 815, "PT5M", "PATIENT SUPINE"], ["CDISCPILOT01", "VS", "01-701-1047", 33, "PULSE", "Pulse Rate", "STANDING", "67", "beats/min", "67", 67, "beats/min", "", "", "Y", 3.0, "BASELINE", 1, "TREATMENT", "2013-02-12", 1, "AFTER STANDING FOR 1 MINUTE", 816, "PT1M", "PATIENT STANDING"], ["CDISCPILOT01", "VS", "01-701-1047", 34, "PULSE", "Pulse Rate", "STANDING", "67", "beats/min", "67", 67, "beats/min", "", "", "Y", 3.0, "BASELINE", 1, "TREATMENT", "2013-02-12", 1, "AFTER STANDING FOR 3 MINUTES", 817, "PT3M", "PATIENT STANDING"], ["CDISCPILOT01", "VS", "01-701-1047", 35, "PULSE", "Pulse Rate", "SUPINE", "62", "beats/min", "62", 62, "beats/min", "", "", "", 3.5, "AMBUL ECG PLACEMENT", 13, "TREATMENT", "2013-02-24", 13, "AFTER LYING DOWN FOR 5 MINUTES", 815, "PT5M", "PATIENT SUPINE"], ["CDISCPILOT01", "VS", "01-701-1047", 36, "PULSE", "Pulse Rate", "STANDING", "74", "beats/min", "74", 74, "beats/min", "", "", "", 3.5, "AMBUL ECG PLACEMENT", 13, "TREATMENT", "2013-02-24", 13, "AFTER STANDING FOR 1 MINUTE", 816, "PT1M", "PATIENT STANDING"], ["CDISCPILOT01", "VS", "01-701-1047", 37, "PULSE", "Pulse Rate", "STANDING", "72", "beats/min", "72", 72, "beats/min", "", "", "", 3.5, "AMBUL ECG PLACEMENT", 13, "TREATMENT", "2013-02-24", 13, "AFTER STANDING FOR 3 MINUTES", 817, "PT3M", "PATIENT STANDING"], ["CDISCPILOT01", "VS", "01-701-1047", 38, "PULSE", "Pulse Rate", "SUPINE", "66", "beats/min", "66", 66, "beats/min", "", "", "", 4.0, "WEEK 2", 14, "TREATMENT", "2013-02-25", 14, "AFTER LYING DOWN FOR 5 MINUTES", 815, "PT5M", "PATIENT SUPINE"], ["CDISCPILOT01", "VS", "01-701-1047", 39, "PULSE", "Pulse Rate", "STANDING", "75", "beats/min", "75", 75, "beats/min", "", "", "", 4.0, "WEEK 2", 14, "TREATMENT", "2013-02-25", 14, "AFTER STANDING FOR 1 MINUTE", 816, "PT1M", "PATIENT STANDING"], ["CDISCPILOT01", "VS", "01-701-1047", 40, "PULSE", "Pulse Rate", "STANDING", "78", "beats/min", "78", 78, "beats/min", "", "", "", 4.0, "WEEK 2", 14, "TREATMENT", "2013-02-25", 14, "AFTER STANDING FOR 3 MINUTES", 817, "PT3M", "PATIENT STANDING"], ["CDISCPILOT01", "VS", "01-701-1047", 41, "PULSE", "Pulse Rate", "SUPINE", "69", "beats/min", "69", 69, "beats/min", "", "", "", 5.0, "WEEK 4", 28, "TREATMENT", "2013-03-10", 27, "AFTER LYING DOWN FOR 5 MINUTES", 815, "PT5M", "PATIENT SUPINE"], ["CDISCPILOT01", "VS", "01-701-1047", 42, "PULSE", "Pulse Rate", "STANDING", "64", "beats/min", "64", 64, "beats/min", "", "", "", 5.0, "WEEK 4", 28, "TREATMENT", "2013-03-10", 27, "AFTER STANDING FOR 1 MINUTE", 816, "PT1M", "PATIENT STANDING"], ["CDISCPILOT01", "VS", "01-701-1047", 43, "PULSE", "Pulse Rate", "STANDING", "70", "beats/min", "70", 70, "beats/min", "", "", "", 5.0, "WEEK 4", 28, "TREATMENT", "2013-03-10", 27, "AFTER STANDING FOR 3 MINUTES", 817, "PT3M", "PATIENT STANDING"], ["CDISCPILOT01", "VS", "01-701-1047", 44, "PULSE", "Pulse Rate", "SUPINE", "78", "beats/min", "78", 78, "beats/min", "", "", "", 6.0, "AMBUL ECG REMOVAL", 30, "TREATMENT", "2013-03-29", 46, "AFTER LYING DOWN FOR 5 MINUTES", 815, "PT5M", "PATIENT SUPINE"], ["CDISCPILOT01", "VS", "01-701-1047", 45, "PULSE", "Pulse Rate", "STANDING", "90", "beats/min", "90", 90, "beats/min", "", "", "", 6.0, "AMBUL ECG REMOVAL", 30, "TREATMENT", "2013-03-29", 46, "AFTER STANDING FOR 1 MINUTE", 816, "PT1M", "PATIENT STANDING"], ["CDISCPILOT01", "VS", "01-701-1047", 46, "PULSE", "Pulse Rate", "STANDING", "87", "beats/min", "87", 87, "beats/min", "", "", "", 6.0, "AMBUL ECG REMOVAL", 30, "TREATMENT", "2013-03-29", 46, "AFTER STANDING FOR 3 MINUTES", 817, "PT3M", "PATIENT STANDING"], ["CDISCPILOT01", "VS", "01-701-1047", 47, "PULSE", "Pulse Rate", "SUPINE", "58", "beats/min", "58", 58, "beats/min", "", "", "", 201.0, "RETRIEVAL", 168, "FOLLOW-UP", "2013-07-28", 167, "AFTER LYING DOWN FOR 5 MINUTES", 815, "PT5M", "PATIENT SUPINE"], ["CDISCPILOT01", "VS", "01-701-1047", 48, "PULSE", "Pulse Rate", "STANDING", "72", "beats/min", "72", 72, "beats/min", "", "", "", 201.0, "RETRIEVAL", 168, "FOLLOW-UP", "2013-07-28", 167, "AFTER STANDING FOR 1 MINUTE", 816, "PT1M", "PATIENT STANDING"], ["CDISCPILOT01", "VS", "01-701-1047", 49, "PULSE", "Pulse Rate", "STANDING", "72", "beats/min", "72", 72, "beats/min", "", "", "", 201.0, "RETRIEVAL", 168, "FOLLOW-UP", "2013-07-28", 167, "AFTER STANDING FOR 3 MINUTES", 817, "PT3M", "PATIENT STANDING"], ["CDISCPILOT01", "VS", "01-701-1047", 50, "SYSBP", "Systolic Blood Pressure", "SUPINE", "165", "mmHg", "165", 165, "mmHg", "", "", "", 1.0, "SCREENING 1", -7, "SCREENING", "2013-01-22", -21, "AFTER LYING DOWN FOR 5 MINUTES", 815, "PT5M", "PATIENT SUPINE"], ["CDISCPILOT01", "VS", "01-701-1047", 51, "SYSBP", "Systolic Blood Pressure", "STANDING", "162", "mmHg", "162", 162, "mmHg", "", "", "", 1.0, "SCREENING 1", -7, "SCREENING", "2013-01-22", -21, "AFTER STANDING FOR 1 MINUTE", 816, "PT1M", "PATIENT STANDING"], ["CDISCPILOT01", "VS", "01-701-1047", 52, "SYSBP", "Systolic Blood Pressure", "STANDING", "161", "mmHg", "161", 161, "mmHg", "", "", "", 1.0, "SCREENING 1", -7, "SCREENING", "2013-01-22", -21, "AFTER STANDING FOR 3 MINUTES", 817, "PT3M", "PATIENT STANDING"], ["CDISCPILOT01", "VS", "01-701-1047", 53, "SYSBP", "Systolic Blood Pressure", "SUPINE", "159", "mmHg", "159", 159, "mmHg", "", "", "", 2.0, "SCREENING 2", -1, "SCREENING", "2013-02-10", -2, "AFTER LYING DOWN FOR 5 MINUTES", 815, "PT5M", "PATIENT SUPINE"], ["CDISCPILOT01", "VS", "01-701-1047", 54, "SYSBP", "Systolic Blood Pressure", "STANDING", "152", "mmHg", "152", 152, "mmHg", "", "", "", 2.0, "SCREENING 2", -1, "SCREENING", "2013-02-10", -2, "AFTER STANDING FOR 1 MINUTE", 816, "PT1M", "PATIENT STANDING"], ["CDISCPILOT01", "VS", "01-701-1047", 55, "SYSBP", "Systolic Blood Pressure", "STANDING", "138", "mmHg", "138", 138, "mmHg", "", "", "", 2.0, "SCREENING 2", -1, "SCREENING", "2013-02-10", -2, "AFTER STANDING FOR 3 MINUTES", 817, "PT3M", "PATIENT STANDING"], ["CDISCPILOT01", "VS", "01-701-1047", 56, "SYSBP", "Systolic Blood Pressure", "SUPINE", "151", "mmHg", "151", 151, "mmHg", "", "", "Y", 3.0, "BASELINE", 1, "TREATMENT", "2013-02-12", 1, "AFTER LYING DOWN FOR 5 MINUTES", 815, "PT5M", "PATIENT SUPINE"], ["CDISCPILOT01", "VS", "01-701-1047", 57, "SYSBP", "Systolic Blood Pressure", "STANDING", "145", "mmHg", "145", 145, "mmHg", "", "", "Y", 3.0, "BASELINE", 1, "TREATMENT", "2013-02-12", 1, "AFTER STANDING FOR 1 MINUTE", 816, "PT1M", "PATIENT STANDING"], ["CDISCPILOT01", "VS", "01-701-1047", 58, "SYSBP", "Systolic Blood Pressure", "STANDING", "167", "mmHg", "167", 167, "mmHg", "", "", "Y", 3.0, "BASELINE", 1, "TREATMENT", "2013-02-12", 1, "AFTER STANDING FOR 3 MINUTES", 817, "PT3M", "PATIENT STANDING"], ["CDISCPILOT01", "VS", "01-701-1047", 59, "SYSBP", "Systolic Blood Pressure", "SUPINE", "146", "mmHg", "146", 146, "mmHg", "", "", "", 3.5, "AMBUL ECG PLACEMENT", 13, "TREATMENT", "2013-02-24", 13, "AFTER LYING DOWN FOR 5 MINUTES", 815, "PT5M", "PATIENT SUPINE"], ["CDISCPILOT01", "VS", "01-701-1047", 60, "SYSBP", "Systolic Blood Pressure", "STANDING", "137", "mmHg", "137", 137, "mmHg", "", "", "", 3.5, "AMBUL ECG PLACEMENT", 13, "TREATMENT", "2013-02-24", 13, "AFTER STANDING FOR 1 MINUTE", 816, "PT1M", "PATIENT STANDING"], ["CDISCPILOT01", "VS", "01-701-1047", 61, "SYSBP", "Systolic Blood Pressure", "STANDING", "148", "mmHg", "148", 148, "mmHg", "", "", "", 3.5, "AMBUL ECG PLACEMENT", 13, "TREATMENT", "2013-02-24", 13, "AFTER STANDING FOR 3 MINUTES", 817, "PT3M", "PATIENT STANDING"], ["CDISCPILOT01", "VS", "01-701-1047", 62, "SYSBP", "Systolic Blood Pressure", "SUPINE", "145", "mmHg", "145", 145, "mmHg", "", "", "", 4.0, "WEEK 2", 14, "TREATMENT", "2013-02-25", 14, "AFTER LYING DOWN FOR 5 MINUTES", 815, "PT5M", "PATIENT SUPINE"], ["CDISCPILOT01", "VS", "01-701-1047", 63, "SYSBP", "Systolic Blood Pressure", "STANDING", "146", "mmHg", "146", 146, "mmHg", "", "", "", 4.0, "WEEK 2", 14, "TREATMENT", "2013-02-25", 14, "AFTER STANDING FOR 1 MINUTE", 816, "PT1M", "PATIENT STANDING"], ["CDISCPILOT01", "VS", "01-701-1047", 64, "SYSBP", "Systolic Blood Pressure", "STANDING", "153", "mmHg", "153", 153, "mmHg", "", "", "", 4.0, "WEEK 2", 14, "TREATMENT", "2013-02-25", 14, "AFTER STANDING FOR 3 MINUTES", 817, "PT3M", "PATIENT STANDING"], ["CDISCPILOT01", "VS", "01-701-1047", 65, "SYSBP", "Systolic Blood Pressure", "SUPINE", "135", "mmHg", "135", 135, "mmHg", "", "", "", 5.0, "WEEK 4", 28, "TREATMENT", "2013-03-10", 27, "AFTER LYING DOWN FOR 5 MINUTES", 815, "PT5M", "PATIENT SUPINE"], ["CDISCPILOT01", "VS", "01-701-1047", 66, "SYSBP", "Systolic Blood Pressure", "STANDING", "145", "mmHg", "145", 145, "mmHg", "", "", "", 5.0, "WEEK 4", 28, "TREATMENT", "2013-03-10", 27, "AFTER STANDING FOR 1 MINUTE", 816, "PT1M", "PATIENT STANDING"], ["CDISCPILOT01", "VS", "01-701-1047", 67, "SYSBP", "Systolic Blood Pressure", "STANDING", "143", "mmHg", "143", 143, "mmHg", "", "", "", 5.0, "WEEK 4", 28, "TREATMENT", "2013-03-10", 27, "AFTER STANDING FOR 3 MINUTES", 817, "PT3M", "PATIENT STANDING"], ["CDISCPILOT01", "VS", "01-701-1047", 68, "SYSBP", "Systolic Blood Pressure", "SUPINE", "123", "mmHg", "123", 123, "mmHg", "", "", "", 6.0, "AMBUL ECG REMOVAL", 30, "TREATMENT", "2013-03-29", 46, "AFTER LYING DOWN FOR 5 MINUTES", 815, "PT5M", "PATIENT SUPINE"], ["CDISCPILOT01", "VS", "01-701-1047", 69, "SYSBP", "Systolic Blood Pressure", "STANDING", "115", "mmHg", "115", 115, "mmHg", "", "", "", 6.0, "AMBUL ECG REMOVAL", 30, "TREATMENT", "2013-03-29", 46, "AFTER STANDING FOR 1 MINUTE", 816, "PT1M", "PATIENT STANDING"], ["CDISCPILOT01", "VS", "01-701-1047", 70, "SYSBP", "Systolic Blood Pressure", "STANDING", "123", "mmHg", "123", 123, "mmHg", "", "", "", 6.0, "AMBUL ECG REMOVAL", 30, "TREATMENT", "2013-03-29", 46, "AFTER STANDING FOR 3 MINUTES", 817, "PT3M", "PATIENT STANDING"], ["CDISCPILOT01", "VS", "01-701-1047", 71, "SYSBP", "Systolic Blood Pressure", "SUPINE", "139", "mmHg", "139", 139, "mmHg", "", "", "", 201.0, "RETRIEVAL", 168, "FOLLOW-UP", "2013-07-28", 167, "AFTER LYING DOWN FOR 5 MINUTES", 815, "PT5M", "PATIENT SUPINE"], ["CDISCPILOT01", "VS", "01-701-1047", 72, "SYSBP", "Systolic Blood Pressure", "STANDING", "130", "mmHg", "130", 130, "mmHg", "", "", "", 201.0, "RETRIEVAL", 168, "FOLLOW-UP", "2013-07-28", 167, "AFTER STANDING FOR 1 MINUTE", 816, "PT1M", "PATIENT STANDING"], ["CDISCPILOT01", "VS", "01-701-1047", 73, "SYSBP", "Systolic Blood Pressure", "STANDING", "139", "mmHg", "139", 139, "mmHg", "", "", "", 201.0, "RETRIEVAL", 168, "FOLLOW-UP", "2013-07-28", 167, "AFTER STANDING FOR 3 MINUTES", 817, "PT3M", "PATIENT STANDING"], ["CDISCPILOT01", "VS", "01-701-1047", 74, "TEMP", "Temperature", "", "97.9", "F", "36.61", 36, "C", "", "ORAL CAVITY", "", 2.0, "SCREENING 2", -1, "SCREENING", "2013-02-10", -2, "", null, "", ""], ["CDISCPILOT01", "VS", "01-701-1047", 75, "TEMP", "Temperature", "", "97.5", "F", "36.39", 36, "C", "", "ORAL CAVITY", "Y", 3.0, "BASELINE", 1, "TREATMENT", "2013-02-12", 1, "", null, "", ""], ["CDISCPILOT01", "VS", "01-701-1047", 76, "TEMP", "Temperature", "", "97.0", "F", "36.11", 36, "C", "", "ORAL CAVITY", "", 3.5, "AMBUL ECG PLACEMENT", 13, "TREATMENT", "2013-02-24", 13, "", null, "", ""], ["CDISCPILOT01", "VS", "01-701-1047", 77, "TEMP", "Temperature", "", "98.9", "F", "37.17", 37, "C", "", "ORAL CAVITY", "", 4.0, "WEEK 2", 14, "TREATMENT", "2013-02-25", 14, "", null, "", ""], ["CDISCPILOT01", "VS", "01-701-1047", 78, "TEMP", "Temperature", "", "97.8", "F", "36.56", 36, "C", "", "ORAL CAVITY", "", 5.0, "WEEK 4", 28, "TREATMENT", "2013-03-10", 27, "", null, "", ""], ["CDISCPILOT01", "VS", "01-701-1047", 79, "TEMP", "Temperature", "", "98.5", "F", "36.94", 36, "C", "", "ORAL CAVITY", "", 6.0, "AMBUL ECG REMOVAL", 30, "TREATMENT", "2013-03-29", 46, "", null, "", ""], ["CDISCPILOT01", "VS", "01-701-1047", 80, "TEMP", "Temperature", "", "98.4", "F", "36.89", 36, "C", "", "ORAL CAVITY", "", 201.0, "RETRIEVAL", 168, "FOLLOW-UP", "2013-07-28", 167, "", null, "", ""], ["CDISCPILOT01", "VS", "01-701-1047", 81, "WEIGHT", "Weight", "", "146.0", "LB", "66.23", 66, "kg", "", "", "", 1.0, "SCREENING 1", -7, "SCREENING", "2013-01-22", -21, "", null, "", ""], ["CDISCPILOT01", "VS", "01-701-1047", 82, "WEIGHT", "Weight", "", "148.0", "LB", "67.13", 67, "kg", "", "", "Y", 3.0, "BASELINE", 1, "TREATMENT", "2013-02-12", 1, "", null, "", ""], ["CDISCPILOT01", "VS", "01-701-1047", 83, "WEIGHT", "Weight", "", "149.0", "LB", "67.59", 67, "kg", "", "", "", 4.0, "WEEK 2", 14, "TREATMENT", "2013-02-25", 14, "", null, "", ""], ["CDISCPILOT01", "VS", "01-701-1047", 84, "WEIGHT", "Weight", "", "149.0", "LB", "67.59", 67, "kg", "", "", "", 5.0, "WEEK 4", 28, "TREATMENT", "2013-03-10", 27, "", null, "", ""], ["CDISCPILOT01", "VS", "01-701-1047", 85, "WEIGHT", "Weight", "", "148.0", "LB", "67.13", 67, "kg", "", "", "", 6.0, "AMBUL ECG REMOVAL", 30, "TREATMENT", "2013-03-29", 46, "", null, "", ""], ["CDISCPILOT01", "VS", "01-701-1097", 1, "DIABP", "Diastolic Blood Pressure", "SUPINE", "72", "mmHg", "72", 72, "mmHg", "", "", "", 1.0, "SCREENING 1", -7, "SCREENING", "2013-12-23", -9, "AFTER LYING DOWN FOR 5 MINUTES", 815, "PT5M", "PATIENT SUPINE"], ["CDISCPILOT01", "VS", "01-701-1097", 2, "DIABP", "Diastolic Blood Pressure", "STANDING", "74", "mmHg", "74", 74, "mmHg", "", "", "", 1.0, "SCREENING 1", -7, "SCREENING", "2013-12-23", -9, "AFTER STANDING FOR 1 MINUTE", 816, "PT1M", "PATIENT STANDING"], ["CDISCPILOT01", "VS", "01-701-1097", 3, "DIABP", "Diastolic Blood Pressure", "STANDING", "79", "mmHg", "79", 79, "mmHg", "", "", "", 1.0, "SCREENING 1", -7, "SCREENING", "2013-12-23", -9, "AFTER STANDING FOR 3 MINUTES", 817, "PT3M", "PATIENT STANDING"], ["CDISCPILOT01", "VS", "01-701-1097", 4, "DIABP", "Diastolic Blood Pressure", "SUPINE", "65", "mmHg", "65", 65, "mmHg", "", "", "", 2.0, "SCREENING 2", -1, "SCREENING", "2013-12-30", -2, "AFTER LYING DOWN FOR 5 MINUTES", 815, "PT5M", "PATIENT SUPINE"], ["CDISCPILOT01", "VS", "01-701-1097", 5, "DIABP", "Diastolic Blood Pressure", "STANDING", "76", "mmHg", "76", 76, "mmHg", "", "", "", 2.0, "SCREENING 2", -1, "SCREENING", "2013-12-30", -2, "AFTER STANDING FOR 1 MINUTE", 816, "PT1M", "PATIENT STANDING"], ["CDISCPILOT01", "VS", "01-701-1097", 6, "DIABP", "Diastolic Blood Pressure", "STANDING", "80", "mmHg", "80", 80, "mmHg", "", "", "", 2.0, "SCREENING 2", -1, "SCREENING", "2013-12-30", -2, "AFTER STANDING FOR 3 MINUTES", 817, "PT3M", "PATIENT STANDING"], ["CDISCPILOT01", "VS", "01-701-1097", 7, "DIABP", "Diastolic Blood Pressure", "SUPINE", "72", "mmHg", "72", 72, "mmHg", "", "", "Y", 3.0, "BASELINE", 1, "TREATMENT", "2014-01-01", 1, "AFTER LYING DOWN FOR 5 MINUTES", 815, "PT5M", "PATIENT SUPINE"], ["CDISCPILOT01", "VS", "01-701-1097", 8, "DIABP", "Diastolic Blood Pressure", "STANDING", "78", "mmHg", "78", 78, "mmHg", "", "", "Y", 3.0, "BASELINE", 1, "TREATMENT", "2014-01-01", 1, "AFTER STANDING FOR 1 MINUTE", 816, "PT1M", "PATIENT STANDING"], ["CDISCPILOT01", "VS", "01-701-1097", 9, "DIABP", "Diastolic Blood Pressure", "STANDING", "80", "mmHg", "80", 80, "mmHg", "", "", "Y", 3.0, "BASELINE", 1, "TREATMENT", "2014-01-01", 1, "AFTER STANDING FOR 3 MINUTES", 817, "PT3M", "PATIENT STANDING"], ["CDISCPILOT01", "VS", "01-701-1097", 10, "DIABP", "Diastolic Blood Pressure", "SUPINE", "67", "mmHg", "67", 67, "mmHg", "", "", "", 3.5, "AMBUL ECG PLACEMENT", 13, "TREATMENT", "2014-01-14", 14, "AFTER LYING DOWN FOR 5 MINUTES", 815, "PT5M", "PATIENT SUPINE"], ["CDISCPILOT01", "VS", "01-701-1097", 11, "DIABP", "Diastolic Blood Pressure", "STANDING", "79", "mmHg", "79", 79, "mmHg", "", "", "", 3.5, "AMBUL ECG PLACEMENT", 13, "TREATMENT", "2014-01-14", 14, "AFTER STANDING FOR 1 MINUTE", 816, "PT1M", "PATIENT STANDING"], ["CDISCPILOT01", "VS", "01-701-1097", 12, "DIABP", "Diastolic Blood Pressure", "STANDING", "67", "mmHg", "67", 67, "mmHg", "", "", "", 3.5, "AMBUL ECG PLACEMENT", 13, "TREATMENT", "2014-01-14", 14, "AFTER STANDING FOR 3 MINUTES", 817, "PT3M", "PATIENT STANDING"], ["CDISCPILOT01", "VS", "01-701-1097", 13, "DIABP", "Diastolic Blood Pressure", "SUPINE", "72", "mmHg", "72", 72, "mmHg", "", "", "", 4.0, "WEEK 2", 14, "TREATMENT", "2014-01-15", 15, "AFTER LYING DOWN FOR 5 MINUTES", 815, "PT5M", "PATIENT SUPINE"], ["CDISCPILOT01", "VS", "01-701-1097", 14, "DIABP", "Diastolic Blood Pressure", "STANDING", "82", "mmHg", "82", 82, "mmHg", "", "", "", 4.0, "WEEK 2", 14, "TREATMENT", "2014-01-15", 15, "AFTER STANDING FOR 1 MINUTE", 816, "PT1M", "PATIENT STANDING"], ["CDISCPILOT01", "VS", "01-701-1097", 15, "DIABP", "Diastolic Blood Pressure", "STANDING", "84", "mmHg", "84", 84, "mmHg", "", "", "", 4.0, "WEEK 2", 14, "TREATMENT", "2014-01-15", 15, "AFTER STANDING FOR 3 MINUTES", 817, "PT3M", "PATIENT STANDING"], ["CDISCPILOT01", "VS", "01-701-1097", 16, "DIABP", "Diastolic Blood Pressure", "SUPINE", "71", "mmHg", "71", 71, "mmHg", "", "", "", 5.0, "WEEK 4", 28, "TREATMENT", "2014-01-29", 29, "AFTER LYING DOWN FOR 5 MINUTES", 815, "PT5M", "PATIENT SUPINE"], ["CDISCPILOT01", "VS", "01-701-1097", 17, "DIABP", "Diastolic Blood Pressure", "STANDING", "70", "mmHg", "70", 70, "mmHg", "", "", "", 5.0, "WEEK 4", 28, "TREATMENT", "2014-01-29", 29, "AFTER STANDING FOR 1 MINUTE", 816, "PT1M", "PATIENT STANDING"], ["CDISCPILOT01", "VS", "01-701-1097", 18, "DIABP", "Diastolic Blood Pressure", "STANDING", "68", "mmHg", "68", 68, "mmHg", "", "", "", 5.0, "WEEK 4", 28, "TREATMENT", "2014-01-29", 29, "AFTER STANDING FOR 3 MINUTES", 817, "PT3M", "PATIENT STANDING"], ["CDISCPILOT01", "VS", "01-701-1097", 19, "DIABP", "Diastolic Blood Pressure", "SUPINE", "68", "mmHg", "68", 68, "mmHg", "", "", "", 6.0, "AMBUL ECG REMOVAL", 30, "TREATMENT", "2014-02-04", 35, "AFTER LYING DOWN FOR 5 MINUTES", 815, "PT5M", "PATIENT SUPINE"], ["CDISCPILOT01", "VS", "01-701-1097", 20, "DIABP", "Diastolic Blood Pressure", "STANDING", "70", "mmHg", "70", 70, "mmHg", "", "", "", 6.0, "AMBUL ECG REMOVAL", 30, "TREATMENT", "2014-02-04", 35, "AFTER STANDING FOR 1 MINUTE", 816, "PT1M", "PATIENT STANDING"], ["CDISCPILOT01", "VS", "01-701-1097", 21, "DIABP", "Diastolic Blood Pressure", "STANDING", "70", "mmHg", "70", 70, "mmHg", "", "", "", 6.0, "AMBUL ECG REMOVAL", 30, "TREATMENT", "2014-02-04", 35, "AFTER STANDING FOR 3 MINUTES", 817, "PT3M", "PATIENT STANDING"], ["CDISCPILOT01", "VS", "01-701-1097", 22, "DIABP", "Diastolic Blood Pressure", "SUPINE", "68", "mmHg", "68", 68, "mmHg", "", "", "", 7.0, "WEEK 6", 42, "TREATMENT", "2014-02-11", 42, "AFTER LYING DOWN FOR 5 MINUTES", 815, "PT5M", "PATIENT SUPINE"], ["CDISCPILOT01", "VS", "01-701-1097", 23, "DIABP", "Diastolic Blood Pressure", "STANDING", "70", "mmHg", "70", 70, "mmHg", "", "", "", 7.0, "WEEK 6", 42, "TREATMENT", "2014-02-11", 42, "AFTER STANDING FOR 1 MINUTE", 816, "PT1M", "PATIENT STANDING"], ["CDISCPILOT01", "VS", "01-701-1097", 24, "DIABP", "Diastolic Blood Pressure", "STANDING", "78", "mmHg", "78", 78, "mmHg", "", "", "", 7.0, "WEEK 6", 42, "TREATMENT", "2014-02-11", 42, "AFTER STANDING FOR 3 MINUTES", 817, "PT3M", "PATIENT STANDING"], ["CDISCPILOT01", "VS", "01-701-1097", 25, "DIABP", "Diastolic Blood Pressure", "SUPINE", "75", "mmHg", "75", 75, "mmHg", "", "", "", 8.0, "WEEK 8", 56, "TREATMENT", "2014-02-26", 57, "AFTER LYING DOWN FOR 5 MINUTES", 815, "PT5M", "PATIENT SUPINE"], ["CDISCPILOT01", "VS", "01-701-1097", 26, "DIABP", "Diastolic Blood Pressure", "STANDING", "73", "mmHg", "73", 73, "mmHg", "", "", "", 8.0, "WEEK 8", 56, "TREATMENT", "2014-02-26", 57, "AFTER STANDING FOR 1 MINUTE", 816, "PT1M", "PATIENT STANDING"], ["CDISCPILOT01", "VS", "01-701-1097", 27, "DIABP", "Diastolic Blood Pressure", "STANDING", "66", "mmHg", "66", 66, "mmHg", "", "", "", 8.0, "WEEK 8", 56, "TREATMENT", "2014-02-26", 57, "AFTER STANDING FOR 3 MINUTES", 817, "PT3M", "PATIENT STANDING"], ["CDISCPILOT01", "VS", "01-701-1097", 28, "DIABP", "Diastolic Blood Pressure", "SUPINE", "74", "mmHg", "74", 74, "mmHg", "", "", "", 9.0, "WEEK 12", 84, "TREATMENT", "2014-03-26", 85, "AFTER LYING DOWN FOR 5 MINUTES", 815, "PT5M", "PATIENT SUPINE"], ["CDISCPILOT01", "VS", "01-701-1097", 29, "DIABP", "Diastolic Blood Pressure", "STANDING", "70", "mmHg", "70", 70, "mmHg", "", "", "", 9.0, "WEEK 12", 84, "TREATMENT", "2014-03-26", 85, "AFTER STANDING FOR 1 MINUTE", 816, "PT1M", "PATIENT STANDING"], ["CDISCPILOT01", "VS", "01-701-1097", 30, "DIABP", "Diastolic Blood Pressure", "STANDING", "72", "mmHg", "72", 72, "mmHg", "", "", "", 9.0, "WEEK 12", 84, "TREATMENT", "2014-03-26", 85, "AFTER STANDING FOR 3 MINUTES", 817, "PT3M", "PATIENT STANDING"], ["CDISCPILOT01", "VS", "01-701-1097", 31, "DIABP", "Diastolic Blood Pressure", "SUPINE", "70", "mmHg", "70", 70, "mmHg", "", "", "", 10.0, "WEEK 16", 112, "TREATMENT", "2014-04-23", 113, "AFTER LYING DOWN FOR 5 MINUTES", 815, "PT5M", "PATIENT SUPINE"], ["CDISCPILOT01", "VS", "01-701-1097", 32, "DIABP", "Diastolic Blood Pressure", "STANDING", "76", "mmHg", "76", 76, "mmHg", "", "", "", 10.0, "WEEK 16", 112, "TREATMENT", "2014-04-23", 113, "AFTER STANDING FOR 1 MINUTE", 816, "PT1M", "PATIENT STANDING"], ["CDISCPILOT01", "VS", "01-701-1097", 33, "DIABP", "Diastolic Blood Pressure", "STANDING", "74", "mmHg", "74", 74, "mmHg", "", "", "", 10.0, "WEEK 16", 112, "TREATMENT", "2014-04-23", 113, "AFTER STANDING FOR 3 MINUTES", 817, "PT3M", "PATIENT STANDING"], ["CDISCPILOT01", "VS", "01-701-1097", 34, "DIABP", "Diastolic Blood Pressure", "SUPINE", "67", "mmHg", "67", 67, "mmHg", "", "", "", 11.0, "WEEK 20", 140, "TREATMENT", "2014-05-21", 141, "AFTER LYING DOWN FOR 5 MINUTES", 815, "PT5M", "PATIENT SUPINE"], ["CDISCPILOT01", "VS", "01-701-1097", 35, "DIABP", "Diastolic Blood Pressure", "STANDING", "58", "mmHg", "58", 58, "mmHg", "", "", "", 11.0, "WEEK 20", 140, "TREATMENT", "2014-05-21", 141, "AFTER STANDING FOR 1 MINUTE", 816, "PT1M", "PATIENT STANDING"], ["CDISCPILOT01", "VS", "01-701-1097", 36, "DIABP", "Diastolic Blood Pressure", "STANDING", "61", "mmHg", "61", 61, "mmHg", "", "", "", 11.0, "WEEK 20", 140, "TREATMENT", "2014-05-21", 141, "AFTER STANDING FOR 3 MINUTES", 817, "PT3M", "PATIENT STANDING"], ["CDISCPILOT01", "VS", "01-701-1097", 37, "DIABP", "Diastolic Blood Pressure", "SUPINE", "83", "mmHg", "83", 83, "mmHg", "", "", "", 12.0, "WEEK 24", 168, "TREATMENT", "2014-06-18", 169, "AFTER LYING DOWN FOR 5 MINUTES", 815, "PT5M", "PATIENT SUPINE"], ["CDISCPILOT01", "VS", "01-701-1097", 38, "DIABP", "Diastolic Blood Pressure", "STANDING", "84", "mmHg", "84", 84, "mmHg", "", "", "", 12.0, "WEEK 24", 168, "TREATMENT", "2014-06-18", 169, "AFTER STANDING FOR 1 MINUTE", 816, "PT1M", "PATIENT STANDING"], ["CDISCPILOT01", "VS", "01-701-1097", 39, "DIABP", "Diastolic Blood Pressure", "STANDING", "84", "mmHg", "84", 84, "mmHg", "", "", "", 12.0, "WEEK 24", 168, "TREATMENT", "2014-06-18", 169, "AFTER STANDING FOR 3 MINUTES", 817, "PT3M", "PATIENT STANDING"], ["CDISCPILOT01", "VS", "01-701-1097", 40, "DIABP", "Diastolic Blood Pressure", "SUPINE", "72", "mmHg", "72", 72, "mmHg", "", "", "", 13.0, "WEEK 26", 182, "TREATMENT", "2014-07-09", 190, "AFTER LYING DOWN FOR 5 MINUTES", 815, "PT5M", "PATIENT SUPINE"], ["CDISCPILOT01", "VS", "01-701-1097", 41, "DIABP", "Diastolic Blood Pressure", "STANDING", "78", "mmHg", "78", 78, "mmHg", "", "", "", 13.0, "WEEK 26", 182, "TREATMENT", "2014-07-09", 190, "AFTER STANDING FOR 1 MINUTE", 816, "PT1M", "PATIENT STANDING"], ["CDISCPILOT01", "VS", "01-701-1097", 42, "DIABP", "Diastolic Blood Pressure", "STANDING", "77", "mmHg", "77", 77, "mmHg", "", "", "", 13.0, "WEEK 26", 182, "TREATMENT", "2014-07-09", 190, "AFTER STANDING FOR 3 MINUTES", 817, "PT3M", "PATIENT STANDING"], ["CDISCPILOT01", "VS", "01-701-1097", 43, "HEIGHT", "Height", "", "066.5", "in", "168.91", 168, "cm", "", "", "", 1.0, "SCREENING 1", -7, "SCREENING", "2013-12-23", -9, "", null, "", ""], ["CDISCPILOT01", "VS", "01-701-1097", 44, "PULSE", "Pulse Rate", "SUPINE", "59", "beats/min", "59", 59, "beats/min", "", "", "", 1.0, "SCREENING 1", -7, "SCREENING", "2013-12-23", -9, "AFTER LYING DOWN FOR 5 MINUTES", 815, "PT5M", "PATIENT SUPINE"], ["CDISCPILOT01", "VS", "01-701-1097", 45, "PULSE", "Pulse Rate", "STANDING", "66", "beats/min", "66", 66, "beats/min", "", "", "", 1.0, "SCREENING 1", -7, "SCREENING", "2013-12-23", -9, "AFTER STANDING FOR 1 MINUTE", 816, "PT1M", "PATIENT STANDING"], ["CDISCPILOT01", "VS", "01-701-1097", 46, "PULSE", "Pulse Rate", "STANDING", "65", "beats/min", "65", 65, "beats/min", "", "", "", 1.0, "SCREENING 1", -7, "SCREENING", "2013-12-23", -9, "AFTER STANDING FOR 3 MINUTES", 817, "PT3M", "PATIENT STANDING"], ["CDISCPILOT01", "VS", "01-701-1097", 47, "PULSE", "Pulse Rate", "SUPINE", "60", "beats/min", "60", 60, "beats/min", "", "", "", 2.0, "SCREENING 2", -1, "SCREENING", "2013-12-30", -2, "AFTER LYING DOWN FOR 5 MINUTES", 815, "PT5M", "PATIENT SUPINE"], ["CDISCPILOT01", "VS", "01-701-1097", 48, "PULSE", "Pulse Rate", "STANDING", "70", "beats/min", "70", 70, "beats/min", "", "", "", 2.0, "SCREENING 2", -1, "SCREENING", "2013-12-30", -2, "AFTER STANDING FOR 1 MINUTE", 816, "PT1M", "PATIENT STANDING"], ["CDISCPILOT01", "VS", "01-701-1097", 49, "PULSE", "Pulse Rate", "STANDING", "66", "beats/min", "66", 66, "beats/min", "", "", "", 2.0, "SCREENING 2", -1, "SCREENING", "2013-12-30", -2, "AFTER STANDING FOR 3 MINUTES", 817, "PT3M", "PATIENT STANDING"], ["CDISCPILOT01", "VS", "01-701-1097", 50, "PULSE", "Pulse Rate", "SUPINE", "60", "beats/min", "60", 60, "beats/min", "", "", "Y", 3.0, "BASELINE", 1, "TREATMENT", "2014-01-01", 1, "AFTER LYING DOWN FOR 5 MINUTES", 815, "PT5M", "PATIENT SUPINE"], ["CDISCPILOT01", "VS", "01-701-1097", 51, "PULSE", "Pulse Rate", "STANDING", "68", "beats/min", "68", 68, "beats/min", "", "", "Y", 3.0, "BASELINE", 1, "TREATMENT", "2014-01-01", 1, "AFTER STANDING FOR 1 MINUTE", 816, "PT1M", "PATIENT STANDING"], ["CDISCPILOT01", "VS", "01-701-1097", 52, "PULSE", "Pulse Rate", "STANDING", "64", "beats/min", "64", 64, "beats/min", "", "", "Y", 3.0, "BASELINE", 1, "TREATMENT", "2014-01-01", 1, "AFTER STANDING FOR 3 MINUTES", 817, "PT3M", "PATIENT STANDING"], ["CDISCPILOT01", "VS", "01-701-1097", 53, "PULSE", "Pulse Rate", "SUPINE", "55", "beats/min", "55", 55, "beats/min", "", "", "", 3.5, "AMBUL ECG PLACEMENT", 13, "TREATMENT", "2014-01-14", 14, "AFTER LYING DOWN FOR 5 MINUTES", 815, "PT5M", "PATIENT SUPINE"], ["CDISCPILOT01", "VS", "01-701-1097", 54, "PULSE", "Pulse Rate", "STANDING", "59", "beats/min", "59", 59, "beats/min", "", "", "", 3.5, "AMBUL ECG PLACEMENT", 13, "TREATMENT", "2014-01-14", 14, "AFTER STANDING FOR 1 MINUTE", 816, "PT1M", "PATIENT STANDING"], ["CDISCPILOT01", "VS", "01-701-1097", 55, "PULSE", "Pulse Rate", "STANDING", "60", "beats/min", "60", 60, "beats/min", "", "", "", 3.5, "AMBUL ECG PLACEMENT", 13, "TREATMENT", "2014-01-14", 14, "AFTER STANDING FOR 3 MINUTES", 817, "PT3M", "PATIENT STANDING"], ["CDISCPILOT01", "VS", "01-701-1097", 56, "PULSE", "Pulse Rate", "SUPINE", "66", "beats/min", "66", 66, "beats/min", "", "", "", 4.0, "WEEK 2", 14, "TREATMENT", "2014-01-15", 15, "AFTER LYING DOWN FOR 5 MINUTES", 815, "PT5M", "PATIENT SUPINE"], ["CDISCPILOT01", "VS", "01-701-1097", 57, "PULSE", "Pulse Rate", "STANDING", "72", "beats/min", "72", 72, "beats/min", "", "", "", 4.0, "WEEK 2", 14, "TREATMENT", "2014-01-15", 15, "AFTER STANDING FOR 1 MINUTE", 816, "PT1M", "PATIENT STANDING"], ["CDISCPILOT01", "VS", "01-701-1097", 58, "PULSE", "Pulse Rate", "STANDING", "68", "beats/min", "68", 68, "beats/min", "", "", "", 4.0, "WEEK 2", 14, "TREATMENT", "2014-01-15", 15, "AFTER STANDING FOR 3 MINUTES", 817, "PT3M", "PATIENT STANDING"], ["CDISCPILOT01", "VS", "01-701-1097", 59, "PULSE", "Pulse Rate", "SUPINE", "50", "beats/min", "50", 50, "beats/min", "", "", "", 5.0, "WEEK 4", 28, "TREATMENT", "2014-01-29", 29, "AFTER LYING DOWN FOR 5 MINUTES", 815, "PT5M", "PATIENT SUPINE"], ["CDISCPILOT01", "VS", "01-701-1097", 60, "PULSE", "Pulse Rate", "STANDING", "54", "beats/min", "54", 54, "beats/min", "", "", "", 5.0, "WEEK 4", 28, "TREATMENT", "2014-01-29", 29, "AFTER STANDING FOR 1 MINUTE", 816, "PT1M", "PATIENT STANDING"], ["CDISCPILOT01", "VS", "01-701-1097", 61, "PULSE", "Pulse Rate", "STANDING", "54", "beats/min", "54", 54, "beats/min", "", "", "", 5.0, "WEEK 4", 28, "TREATMENT", "2014-01-29", 29, "AFTER STANDING FOR 3 MINUTES", 817, "PT3M", "PATIENT STANDING"], ["CDISCPILOT01", "VS", "01-701-1097", 62, "PULSE", "Pulse Rate", "SUPINE", "62", "beats/min", "62", 62, "beats/min", "", "", "", 6.0, "AMBUL ECG REMOVAL", 30, "TREATMENT", "2014-02-04", 35, "AFTER LYING DOWN FOR 5 MINUTES", 815, "PT5M", "PATIENT SUPINE"], ["CDISCPILOT01", "VS", "01-701-1097", 63, "PULSE", "Pulse Rate", "STANDING", "68", "beats/min", "68", 68, "beats/min", "", "", "", 6.0, "AMBUL ECG REMOVAL", 30, "TREATMENT", "2014-02-04", 35, "AFTER STANDING FOR 1 MINUTE", 816, "PT1M", "PATIENT STANDING"], ["CDISCPILOT01", "VS", "01-701-1097", 64, "PULSE", "Pulse Rate", "STANDING", "66", "beats/min", "66", 66, "beats/min", "", "", "", 6.0, "AMBUL ECG REMOVAL", 30, "TREATMENT", "2014-02-04", 35, "AFTER STANDING FOR 3 MINUTES", 817, "PT3M", "PATIENT STANDING"], ["CDISCPILOT01", "VS", "01-701-1097", 65, "PULSE", "Pulse Rate", "SUPINE", "64", "beats/min", "64", 64, "beats/min", "", "", "", 7.0, "WEEK 6", 42, "TREATMENT", "2014-02-11", 42, "AFTER LYING DOWN FOR 5 MINUTES", 815, "PT5M", "PATIENT SUPINE"], ["CDISCPILOT01", "VS", "01-701-1097", 66, "PULSE", "Pulse Rate", "STANDING", "76", "beats/min", "76", 76, "beats/min", "", "", "", 7.0, "WEEK 6", 42, "TREATMENT", "2014-02-11", 42, "AFTER STANDING FOR 1 MINUTE", 816, "PT1M", "PATIENT STANDING"], ["CDISCPILOT01", "VS", "01-701-1097", 67, "PULSE", "Pulse Rate", "STANDING", "74", "beats/min", "74", 74, "beats/min", "", "", "", 7.0, "WEEK 6", 42, "TREATMENT", "2014-02-11", 42, "AFTER STANDING FOR 3 MINUTES", 817, "PT3M", "PATIENT STANDING"], ["CDISCPILOT01", "VS", "01-701-1097", 68, "PULSE", "Pulse Rate", "SUPINE", "54", "beats/min", "54", 54, "beats/min", "", "", "", 8.0, "WEEK 8", 56, "TREATMENT", "2014-02-26", 57, "AFTER LYING DOWN FOR 5 MINUTES", 815, "PT5M", "PATIENT SUPINE"], ["CDISCPILOT01", "VS", "01-701-1097", 69, "PULSE", "Pulse Rate", "STANDING", "62", "beats/min", "62", 62, "beats/min", "", "", "", 8.0, "WEEK 8", 56, "TREATMENT", "2014-02-26", 57, "AFTER STANDING FOR 1 MINUTE", 816, "PT1M", "PATIENT STANDING"], ["CDISCPILOT01", "VS", "01-701-1097", 70, "PULSE", "Pulse Rate", "STANDING", "61", "beats/min", "61", 61, "beats/min", "", "", "", 8.0, "WEEK 8", 56, "TREATMENT", "2014-02-26", 57, "AFTER STANDING FOR 3 MINUTES", 817, "PT3M", "PATIENT STANDING"], ["CDISCPILOT01", "VS", "01-701-1097", 71, "PULSE", "Pulse Rate", "SUPINE", "58", "beats/min", "58", 58, "beats/min", "", "", "", 9.0, "WEEK 12", 84, "TREATMENT", "2014-03-26", 85, "AFTER LYING DOWN FOR 5 MINUTES", 815, "PT5M", "PATIENT SUPINE"], ["CDISCPILOT01", "VS", "01-701-1097", 72, "PULSE", "Pulse Rate", "STANDING", "72", "beats/min", "72", 72, "beats/min", "", "", "", 9.0, "WEEK 12", 84, "TREATMENT", "2014-03-26", 85, "AFTER STANDING FOR 1 MINUTE", 816, "PT1M", "PATIENT STANDING"], ["CDISCPILOT01", "VS", "01-701-1097", 73, "PULSE", "Pulse Rate", "STANDING", "70", "beats/min", "70", 70, "beats/min", "", "", "", 9.0, "WEEK 12", 84, "TREATMENT", "2014-03-26", 85, "AFTER STANDING FOR 3 MINUTES", 817, "PT3M", "PATIENT STANDING"], ["CDISCPILOT01", "VS", "01-701-1097", 74, "PULSE", "Pulse Rate", "SUPINE", "67", "beats/min", "67", 67, "beats/min", "", "", "", 10.0, "WEEK 16", 112, "TREATMENT", "2014-04-23", 113, "AFTER LYING DOWN FOR 5 MINUTES", 815, "PT5M", "PATIENT SUPINE"], ["CDISCPILOT01", "VS", "01-701-1097", 75, "PULSE", "Pulse Rate", "STANDING", "74", "beats/min", "74", 74, "beats/min", "", "", "", 10.0, "WEEK 16", 112, "TREATMENT", "2014-04-23", 113, "AFTER STANDING FOR 1 MINUTE", 816, "PT1M", "PATIENT STANDING"], ["CDISCPILOT01", "VS", "01-701-1097", 76, "PULSE", "Pulse Rate", "STANDING", "72", "beats/min", "72", 72, "beats/min", "", "", "", 10.0, "WEEK 16", 112, "TREATMENT", "2014-04-23", 113, "AFTER STANDING FOR 3 MINUTES", 817, "PT3M", "PATIENT STANDING"], ["CDISCPILOT01", "VS", "01-701-1097", 77, "PULSE", "Pulse Rate", "SUPINE", "61", "beats/min", "61", 61, "beats/min", "", "", "", 11.0, "WEEK 20", 140, "TREATMENT", "2014-05-21", 141, "AFTER LYING DOWN FOR 5 MINUTES", 815, "PT5M", "PATIENT SUPINE"], ["CDISCPILOT01", "VS", "01-701-1097", 78, "PULSE", "Pulse Rate", "STANDING", "70", "beats/min", "70", 70, "beats/min", "", "", "", 11.0, "WEEK 20", 140, "TREATMENT", "2014-05-21", 141, "AFTER STANDING FOR 1 MINUTE", 816, "PT1M", "PATIENT STANDING"], ["CDISCPILOT01", "VS", "01-701-1097", 79, "PULSE", "Pulse Rate", "STANDING", "67", "beats/min", "67", 67, "beats/min", "", "", "", 11.0, "WEEK 20", 140, "TREATMENT", "2014-05-21", 141, "AFTER STANDING FOR 3 MINUTES", 817, "PT3M", "PATIENT STANDING"], ["CDISCPILOT01", "VS", "01-701-1097", 80, "PULSE", "Pulse Rate", "SUPINE", "65", "beats/min", "65", 65, "beats/min", "", "", "", 12.0, "WEEK 24", 168, "TREATMENT", "2014-06-18", 169, "AFTER LYING DOWN FOR 5 MINUTES", 815, "PT5M", "PATIENT SUPINE"], ["CDISCPILOT01", "VS", "01-701-1097", 81, "PULSE", "Pulse Rate", "STANDING", "74", "beats/min", "74", 74, "beats/min", "", "", "", 12.0, "WEEK 24", 168, "TREATMENT", "2014-06-18", 169, "AFTER STANDING FOR 1 MINUTE", 816, "PT1M", "PATIENT STANDING"], ["CDISCPILOT01", "VS", "01-701-1097", 82, "PULSE", "Pulse Rate", "STANDING", "72", "beats/min", "72", 72, "beats/min", "", "", "", 12.0, "WEEK 24", 168, "TREATMENT", "2014-06-18", 169, "AFTER STANDING FOR 3 MINUTES", 817, "PT3M", "PATIENT STANDING"], ["CDISCPILOT01", "VS", "01-701-1097", 83, "PULSE", "Pulse Rate", "SUPINE", "58", "beats/min", "58", 58, "beats/min", "", "", "", 13.0, "WEEK 26", 182, "TREATMENT", "2014-07-09", 190, "AFTER LYING DOWN FOR 5 MINUTES", 815, "PT5M", "PATIENT SUPINE"], ["CDISCPILOT01", "VS", "01-701-1097", 84, "PULSE", "Pulse Rate", "STANDING", "76", "beats/min", "76", 76, "beats/min", "", "", "", 13.0, "WEEK 26", 182, "TREATMENT", "2014-07-09", 190, "AFTER STANDING FOR 1 MINUTE", 816, "PT1M", "PATIENT STANDING"], ["CDISCPILOT01", "VS", "01-701-1097", 85, "PULSE", "Pulse Rate", "STANDING", "66", "beats/min", "66", 66, "beats/min", "", "", "", 13.0, "WEEK 26", 182, "TREATMENT", "2014-07-09", 190, "AFTER STANDING FOR 3 MINUTES", 817, "PT3M", "PATIENT STANDING"], ["CDISCPILOT01", "VS", "01-701-1097", 86, "SYSBP", "Systolic Blood Pressure", "SUPINE", "138", "mmHg", "138", 138, "mmHg", "", "", "", 1.0, "SCREENING 1", -7, "SCREENING", "2013-12-23", -9, "AFTER LYING DOWN FOR 5 MINUTES", 815, "PT5M", "PATIENT SUPINE"], ["CDISCPILOT01", "VS", "01-701-1097", 87, "SYSBP", "Systolic Blood Pressure", "STANDING", "137", "mmHg", "137", 137, "mmHg", "", "", "", 1.0, "SCREENING 1", -7, "SCREENING", "2013-12-23", -9, "AFTER STANDING FOR 1 MINUTE", 816, "PT1M", "PATIENT STANDING"], ["CDISCPILOT01", "VS", "01-701-1097", 88, "SYSBP", "Systolic Blood Pressure", "STANDING", "139", "mmHg", "139", 139, "mmHg", "", "", "", 1.0, "SCREENING 1", -7, "SCREENING", "2013-12-23", -9, "AFTER STANDING FOR 3 MINUTES", 817, "PT3M", "PATIENT STANDING"], ["CDISCPILOT01", "VS", "01-701-1097", 89, "SYSBP", "Systolic Blood Pressure", "SUPINE", "131", "mmHg", "131", 131, "mmHg", "", "", "", 2.0, "SCREENING 2", -1, "SCREENING", "2013-12-30", -2, "AFTER LYING DOWN FOR 5 MINUTES", 815, "PT5M", "PATIENT SUPINE"], ["CDISCPILOT01", "VS", "01-701-1097", 90, "SYSBP", "Systolic Blood Pressure", "STANDING", "138", "mmHg", "138", 138, "mmHg", "", "", "", 2.0, "SCREENING 2", -1, "SCREENING", "2013-12-30", -2, "AFTER STANDING FOR 1 MINUTE", 816, "PT1M", "PATIENT STANDING"], ["CDISCPILOT01", "VS", "01-701-1097", 91, "SYSBP", "Systolic Blood Pressure", "STANDING", "138", "mmHg", "138", 138, "mmHg", "", "", "", 2.0, "SCREENING 2", -1, "SCREENING", "2013-12-30", -2, "AFTER STANDING FOR 3 MINUTES", 817, "PT3M", "PATIENT STANDING"], ["CDISCPILOT01", "VS", "01-701-1097", 92, "SYSBP", "Systolic Blood Pressure", "SUPINE", "128", "mmHg", "128", 128, "mmHg", "", "", "Y", 3.0, "BASELINE", 1, "TREATMENT", "2014-01-01", 1, "AFTER LYING DOWN FOR 5 MINUTES", 815, "PT5M", "PATIENT SUPINE"], ["CDISCPILOT01", "VS", "01-701-1097", 93, "SYSBP", "Systolic Blood Pressure", "STANDING", "130", "mmHg", "130", 130, "mmHg", "", "", "Y", 3.0, "BASELINE", 1, "TREATMENT", "2014-01-01", 1, "AFTER STANDING FOR 1 MINUTE", 816, "PT1M", "PATIENT STANDING"], ["CDISCPILOT01", "VS", "01-701-1097", 94, "SYSBP", "Systolic Blood Pressure", "STANDING", "132", "mmHg", "132", 132, "mmHg", "", "", "Y", 3.0, "BASELINE", 1, "TREATMENT", "2014-01-01", 1, "AFTER STANDING FOR 3 MINUTES", 817, "PT3M", "PATIENT STANDING"], ["CDISCPILOT01", "VS", "01-701-1097", 95, "SYSBP", "Systolic Blood Pressure", "SUPINE", "121", "mmHg", "121", 121, "mmHg", "", "", "", 3.5, "AMBUL ECG PLACEMENT", 13, "TREATMENT", "2014-01-14", 14, "AFTER LYING DOWN FOR 5 MINUTES", 815, "PT5M", "PATIENT SUPINE"], ["CDISCPILOT01", "VS", "01-701-1097", 96, "SYSBP", "Systolic Blood Pressure", "STANDING", "144", "mmHg", "144", 144, "mmHg", "", "", "", 3.5, "AMBUL ECG PLACEMENT", 13, "TREATMENT", "2014-01-14", 14, "AFTER STANDING FOR 1 MINUTE", 816, "PT1M", "PATIENT STANDING"], ["CDISCPILOT01", "VS", "01-701-1097", 97, "SYSBP", "Systolic Blood Pressure", "STANDING", "130", "mmHg", "130", 130, "mmHg", "", "", "", 3.5, "AMBUL ECG PLACEMENT", 13, "TREATMENT", "2014-01-14", 14, "AFTER STANDING FOR 3 MINUTES", 817, "PT3M", "PATIENT STANDING"], ["CDISCPILOT01", "VS", "01-701-1097", 98, "SYSBP", "Systolic Blood Pressure", "SUPINE", "124", "mmHg", "124", 124, "mmHg", "", "", "", 4.0, "WEEK 2", 14, "TREATMENT", "2014-01-15", 15, "AFTER LYING DOWN FOR 5 MINUTES", 815, "PT5M", "PATIENT SUPINE"], ["CDISCPILOT01", "VS", "01-701-1097", 99, "SYSBP", "Systolic Blood Pressure", "STANDING", "130", "mmHg", "130", 130, "mmHg", "", "", "", 4.0, "WEEK 2", 14, "TREATMENT", "2014-01-15", 15, "AFTER STANDING FOR 1 MINUTE", 816, "PT1M", "PATIENT STANDING"], ["CDISCPILOT01", "VS", "01-701-1097", 100, "SYSBP", "Systolic Blood Pressure", "STANDING", "132", "mmHg", "132", 132, "mmHg", "", "", "", 4.0, "WEEK 2", 14, "TREATMENT", "2014-01-15", 15, "AFTER STANDING FOR 3 MINUTES", 817, "PT3M", "PATIENT STANDING"], ["CDISCPILOT01", "VS", "01-701-1097", 101, "SYSBP", "Systolic Blood Pressure", "SUPINE", "137", "mmHg", "137", 137, "mmHg", "", "", "", 5.0, "WEEK 4", 28, "TREATMENT", "2014-01-29", 29, "AFTER LYING DOWN FOR 5 MINUTES", 815, "PT5M", "PATIENT SUPINE"], ["CDISCPILOT01", "VS", "01-701-1097", 102, "SYSBP", "Systolic Blood Pressure", "STANDING", "134", "mmHg", "134", 134, "mmHg", "", "", "", 5.0, "WEEK 4", 28, "TREATMENT", "2014-01-29", 29, "AFTER STANDING FOR 1 MINUTE", 816, "PT1M", "PATIENT STANDING"], ["CDISCPILOT01", "VS", "01-701-1097", 103, "SYSBP", "Systolic Blood Pressure", "STANDING", "137", "mmHg", "137", 137, "mmHg", "", "", "", 5.0, "WEEK 4", 28, "TREATMENT", "2014-01-29", 29, "AFTER STANDING FOR 3 MINUTES", 817, "PT3M", "PATIENT STANDING"], ["CDISCPILOT01", "VS", "01-701-1097", 104, "SYSBP", "Systolic Blood Pressure", "SUPINE", "132", "mmHg", "132", 132, "mmHg", "", "", "", 6.0, "AMBUL ECG REMOVAL", 30, "TREATMENT", "2014-02-04", 35, "AFTER LYING DOWN FOR 5 MINUTES", 815, "PT5M", "PATIENT SUPINE"], ["CDISCPILOT01", "VS", "01-701-1097", 105, "SYSBP", "Systolic Blood Pressure", "STANDING", "132", "mmHg", "132", 132, "mmHg", "", "", "", 6.0, "AMBUL ECG REMOVAL", 30, "TREATMENT", "2014-02-04", 35, "AFTER STANDING FOR 1 MINUTE", 816, "PT1M", "PATIENT STANDING"], ["CDISCPILOT01", "VS", "01-701-1097", 106, "SYSBP", "Systolic Blood Pressure", "STANDING", "138", "mmHg", "138", 138, "mmHg", "", "", "", 6.0, "AMBUL ECG REMOVAL", 30, "TREATMENT", "2014-02-04", 35, "AFTER STANDING FOR 3 MINUTES", 817, "PT3M", "PATIENT STANDING"], ["CDISCPILOT01", "VS", "01-701-1097", 107, "SYSBP", "Systolic Blood Pressure", "SUPINE", "122", "mmHg", "122", 122, "mmHg", "", "", "", 7.0, "WEEK 6", 42, "TREATMENT", "2014-02-11", 42, "AFTER LYING DOWN FOR 5 MINUTES", 815, "PT5M", "PATIENT SUPINE"], ["CDISCPILOT01", "VS", "01-701-1097", 108, "SYSBP", "Systolic Blood Pressure", "STANDING", "124", "mmHg", "124", 124, "mmHg", "", "", "", 7.0, "WEEK 6", 42, "TREATMENT", "2014-02-11", 42, "AFTER STANDING FOR 1 MINUTE", 816, "PT1M", "PATIENT STANDING"], ["CDISCPILOT01", "VS", "01-701-1097", 109, "SYSBP", "Systolic Blood Pressure", "STANDING", "124", "mmHg", "124", 124, "mmHg", "", "", "", 7.0, "WEEK 6", 42, "TREATMENT", "2014-02-11", 42, "AFTER STANDING FOR 3 MINUTES", 817, "PT3M", "PATIENT STANDING"], ["CDISCPILOT01", "VS", "01-701-1097", 110, "SYSBP", "Systolic Blood Pressure", "SUPINE", "136", "mmHg", "136", 136, "mmHg", "", "", "", 8.0, "WEEK 8", 56, "TREATMENT", "2014-02-26", 57, "AFTER LYING DOWN FOR 5 MINUTES", 815, "PT5M", "PATIENT SUPINE"], ["CDISCPILOT01", "VS", "01-701-1097", 111, "SYSBP", "Systolic Blood Pressure", "STANDING", "130", "mmHg", "130", 130, "mmHg", "", "", "", 8.0, "WEEK 8", 56, "TREATMENT", "2014-02-26", 57, "AFTER STANDING FOR 1 MINUTE", 816, "PT1M", "PATIENT STANDING"], ["CDISCPILOT01", "VS", "01-701-1097", 112, "SYSBP", "Systolic Blood Pressure", "STANDING", "131", "mmHg", "131", 131, "mmHg", "", "", "", 8.0, "WEEK 8", 56, "TREATMENT", "2014-02-26", 57, "AFTER STANDING FOR 3 MINUTES", 817, "PT3M", "PATIENT STANDING"], ["CDISCPILOT01", "VS", "01-701-1097", 113, "SYSBP", "Systolic Blood Pressure", "SUPINE", "121", "mmHg", "121", 121, "mmHg", "", "", "", 9.0, "WEEK 12", 84, "TREATMENT", "2014-03-26", 85, "AFTER LYING DOWN FOR 5 MINUTES", 815, "PT5M", "PATIENT SUPINE"], ["CDISCPILOT01", "VS", "01-701-1097", 114, "SYSBP", "Systolic Blood Pressure", "STANDING", "132", "mmHg", "132", 132, "mmHg", "", "", "", 9.0, "WEEK 12", 84, "TREATMENT", "2014-03-26", 85, "AFTER STANDING FOR 1 MINUTE", 816, "PT1M", "PATIENT STANDING"], ["CDISCPILOT01", "VS", "01-701-1097", 115, "SYSBP", "Systolic Blood Pressure", "STANDING", "139", "mmHg", "139", 139, "mmHg", "", "", "", 9.0, "WEEK 12", 84, "TREATMENT", "2014-03-26", 85, "AFTER STANDING FOR 3 MINUTES", 817, "PT3M", "PATIENT STANDING"], ["CDISCPILOT01", "VS", "01-701-1097", 116, "SYSBP", "Systolic Blood Pressure", "SUPINE", "132", "mmHg", "132", 132, "mmHg", "", "", "", 10.0, "WEEK 16", 112, "TREATMENT", "2014-04-23", 113, "AFTER LYING DOWN FOR 5 MINUTES", 815, "PT5M", "PATIENT SUPINE"], ["CDISCPILOT01", "VS", "01-701-1097", 117, "SYSBP", "Systolic Blood Pressure", "STANDING", "138", "mmHg", "138", 138, "mmHg", "", "", "", 10.0, "WEEK 16", 112, "TREATMENT", "2014-04-23", 113, "AFTER STANDING FOR 1 MINUTE", 816, "PT1M", "PATIENT STANDING"], ["CDISCPILOT01", "VS", "01-701-1097", 118, "SYSBP", "Systolic Blood Pressure", "STANDING", "139", "mmHg", "139", 139, "mmHg", "", "", "", 10.0, "WEEK 16", 112, "TREATMENT", "2014-04-23", 113, "AFTER STANDING FOR 3 MINUTES", 817, "PT3M", "PATIENT STANDING"], ["CDISCPILOT01", "VS", "01-701-1097", 119, "SYSBP", "Systolic Blood Pressure", "SUPINE", "121", "mmHg", "121", 121, "mmHg", "", "", "", 11.0, "WEEK 20", 140, "TREATMENT", "2014-05-21", 141, "AFTER LYING DOWN FOR 5 MINUTES", 815, "PT5M", "PATIENT SUPINE"], ["CDISCPILOT01", "VS", "01-701-1097", 120, "SYSBP", "Systolic Blood Pressure", "STANDING", "112", "mmHg", "112", 112, "mmHg", "", "", "", 11.0, "WEEK 20", 140, "TREATMENT", "2014-05-21", 141, "AFTER STANDING FOR 1 MINUTE", 816, "PT1M", "PATIENT STANDING"], ["CDISCPILOT01", "VS", "01-701-1097", 121, "SYSBP", "Systolic Blood Pressure", "STANDING", "115", "mmHg", "115", 115, "mmHg", "", "", "", 11.0, "WEEK 20", 140, "TREATMENT", "2014-05-21", 141, "AFTER STANDING FOR 3 MINUTES", 817, "PT3M", "PATIENT STANDING"], ["CDISCPILOT01", "VS", "01-701-1097", 122, "SYSBP", "Systolic Blood Pressure", "SUPINE", "137", "mmHg", "137", 137, "mmHg", "", "", "", 12.0, "WEEK 24", 168, "TREATMENT", "2014-06-18", 169, "AFTER LYING DOWN FOR 5 MINUTES", 815, "PT5M", "PATIENT SUPINE"], ["CDISCPILOT01", "VS", "01-701-1097", 123, "SYSBP", "Systolic Blood Pressure", "STANDING", "131", "mmHg", "131", 131, "mmHg", "", "", "", 12.0, "WEEK 24", 168, "TREATMENT", "2014-06-18", 169, "AFTER STANDING FOR 1 MINUTE", 816, "PT1M", "PATIENT STANDING"], ["CDISCPILOT01", "VS", "01-701-1097", 124, "SYSBP", "Systolic Blood Pressure", "STANDING", "130", "mmHg", "130", 130, 