{"datasetJSONCreationDateTime": "2025-10-13T16:15:12", "datasetJSONVersion": "1.1.0", "itemGroupOID": "{AE", "records": 961, "name": "AE", "label": "AE", "columns": [{"itemOID": "IT.STUDYID", "name": "STUDYID", "label": "Study Identifier", "dataType": "string"}, {"itemOID": "IT.DOMAIN", "name": "DOMAIN", "label": "Domain Abbreviation", "dataType": "string"}, {"itemOID": "IT.USUBJID", "name": "USUBJID", "label": "Unique Subject Identifier", "dataType": "string"}, {"itemOID": "IT.AESEQ", "name": "AESEQ", "label": "Sequence Number", "dataType": "double"}, {"itemOID": "IT.AESPID", "name": "AESPID", "label": "Sponsor-Defined Identifier", "dataType": "string"}, {"itemOID": "IT.AETERM", "name": "AETERM", "label": "Reported Term for the Adverse Event", "dataType": "string"}, {"itemOID": "IT.AELLT", "name": "AELLT", "label": "Lowest Level Term", "dataType": "string"}, {"itemOID": "IT.AELLTCD", "name": "AELLTCD", "label": "Lowest Level Term Code", "dataType": "double"}, {"itemOID": "IT.AEDECOD", "name": "AEDECOD", "label": "Dictionary-Derived Term", "dataType": "string"}, {"itemOID": "IT.AEPTCD", "name": "AEPTCD", "label": "Preferred Term Code", "dataType": "double"}, {"itemOID": "IT.AEHLT", "name": "AEHLT", "label": "High Level Term", "dataType": "string"}, {"itemOID": "IT.AEHLTCD", "name": "AEHLTCD", "label": "High Level Term Code", "dataType": "double"}, {"itemOID": "IT.AEHLGT", "name": "AEHLGT", "label": "High Level Group Term", "dataType": "string"}, {"itemOID": "IT.AEHLGTCD", "name": "AEHLGTCD", "label": "High Level Group Term Code", "dataType": "double"}, {"itemOID": "IT.AEBODSYS", "name": "AEBODSYS", "label": "Body System or Organ Class", "dataType": "string"}, {"itemOID": "IT.AEBDSYCD", "name": "AEBDSYCD", "label": "Body System or Organ Class Code", "dataType": "double"}, {"itemOID": "IT.AESOC", "name": "AESOC", "label": "Primary System Organ Class", "dataType": "string"}, {"itemOID": "IT.AESOCCD", "name": "AESOCCD", "label": "Primary System Organ Class Code", "dataType": "double"}, {"itemOID": "IT.AESEV", "name": "AESEV", "label": "Severity/Intensity", "dataType": "string"}, {"itemOID": "IT.AESER", "name": "AESER", "label": "Serious Event", "dataType": "string"}, {"itemOID": "IT.AEACN", "name": "AEACN", "label": "Action Taken with Study Treatment", "dataType": "string"}, {"itemOID": "IT.AEREL", "name": "AEREL", "label": "Causality", "dataType": "string"}, {"itemOID": "IT.AEOUT", "name": "AEOUT", "label": "Outcome of Adverse Event", "dataType": "string"}, {"itemOID": "IT.AESCAN", "name": "AESCAN", "label": "Involves Cancer", "dataType": "string"}, {"itemOID": "IT.AESCONG", "name": "AESCONG", "label": "Congenital Anomaly or Birth Defect", "dataType": "string"}, {"itemOID": "IT.AESDISAB", "name": "AESDISAB", "label": "Persist or Signif Disability/Incapacity", "dataType": "string"}, {"itemOID": "IT.AESDTH", "name": "AESDTH", "label": "Results in Death", "dataType": "string"}, {"itemOID": "IT.AESHOSP", "name": "AESHOSP", "label": "Requires or Prolongs Hospitalization", "dataType": "string"}, {"itemOID": "IT.AESLIFE", "name": "AESLIFE", "label": "Is Life Threatening", "dataType": "string"}, {"itemOID": "IT.AESOD", "name": "AESOD", "label": "Occurred with Overdose", "dataType": "string"}, {"itemOID": "IT.EPOCH", "name": "EPOCH", "label": "Epoch", "dataType": "string"}, {"itemOID": "IT.AEDTC", "name": "AEDTC", "label": "Date/Time of Collection", "dataType": "string"}, {"itemOID": "IT.AESTDTC", "name": "AESTDTC", "label": "Start Date/Time of Adverse Event", "dataType": "string"}, {"itemOID": "IT.AEENDTC", "name": "AEENDTC", "label": "End Date/Time of Adverse Event", "dataType": "string"}, {"itemOID": "IT.AEDY", "name": "AEDY", "label": "Study Day of Visit/Collection/Exam", "dataType": "double"}, {"itemOID": "IT.AESTDY", "name": "AESTDY", "label": "Study Day of Start of Adverse Event", "dataType": "double"}, {"itemOID": "IT.AEENDY", "name": "AEENDY", "label": "Study Day of End of Adverse Event", "dataType": "double"}]}
["CDISCPILOT01", "AE", "01-701-1015", 1.0, "E07", "APPLICATION SITE ERYTHEMA", "APPLICATION SITE REDNESS", null, "APPLICATION SITE ERYTHEMA", null, "HLT_0617", null, "HLGT_0152", null, "GENERAL DISORDERS AND ADMINISTRATION SITE CONDITIONS", null, "GENERAL DISORDERS AND ADMINISTRATION SITE CONDITIONS", null, "MILD", "N", "", "PROBABLE", "NOT RECOVERED/NOT RESOLVED", "N", "N", "N", "N", "N", "N", "N", "TREATMENT", "2014-01-16", "2014-01-03", "", 15.0, 2.0, null]
["CDISCPILOT01", "AE", "01-701-1015", 2.0, "E08", "APPLICATION SITE PRURITUS", "APPLICATION SITE ITCHING", null, "APPLICATION SITE PRURITUS", null, "HLT_0317", null, "HLGT_0338", null, "GENERAL DISORDERS AND ADMINISTRATION SITE CONDITIONS", null, "GENERAL DISORDERS AND ADMINISTRATION SITE CONDITIONS", null, "MILD", "N", "", "PROBABLE", "NOT RECOVERED/NOT RESOLVED", "N", "N", "N", "N", "N", "N", "N", "TREATMENT", "2014-01-16", "2014-01-03", "", 15.0, 2.0, null]
["CDISCPILOT01", "AE", "01-701-1015", 3.0, "E06", "DIARRHOEA", "DIARRHEA", null, "DIARRHOEA", null, "HLT_0148", null, "HLGT_0588", null, "GASTROINTESTINAL DISORDERS", null, "GASTROINTESTINAL DISORDERS", null, "MILD", "N", "", "REMOTE", "RECOVERED/RESOLVED", "N", "N", "N", "N", "N", "N", "N", "TREATMENT", "2014-01-16", "2014-01-09", "2014-01-11", 15.0, 8.0, 10.0]
["CDISCPILOT01", "AE", "01-701-1023", 3.0, "E10", "ATRIOVENTRICULAR BLOCK SECOND DEGREE", "AV BLOCK SECOND DEGREE", null, "ATRIOVENTRICULAR BLOCK SECOND DEGREE", null, "HLT_0415", null, "HLGT_0086", null, "CARDIAC DISORDERS", null, "CARDIAC DISORDERS", null, "MILD", "N", "", "POSSIBLE", "NOT RECOVERED/NOT RESOLVED", "N", "N", "N", "N", "N", "N", "N", "TREATMENT", "2012-08-27", "2012-08-26", "", 23.0, 22.0, null]
["CDISCPILOT01", "AE", "01-701-1023", 2.0, "E09", "ERYTHEMA", "LOCALIZED ERYTHEMA", null, "ERYTHEMA", null, "HLT_0284", null, "HLGT_0192", null, "SKIN AND SUBCUTANEOUS TISSUE DISORDERS", null, "SKIN AND SUBCUTANEOUS TISSUE DISORDERS", null, "MODERATE", "N", "", "PROBABLE", "NOT RECOVERED/NOT RESOLVED", "N", "N", "N", "N", "N", "N", "N", "TREATMENT", "2012-08-27", "2012-08-07", "", 23.0, 3.0, null]
["CDISCPILOT01", "AE", "01-701-1023", 4.0, "E08", "ERYTHEMA", "ERYTHEMA", null, "ERYTHEMA", null, "HLT_0284", null, "HLGT_0192", null, "SKIN AND SUBCUTANEOUS TISSUE DISORDERS", null, "SKIN AND SUBCUTANEOUS TISSUE DISORDERS", null, "MILD", "N", "", "POSSIBLE", "RECOVERED/RESOLVED", "N", "N", "N", "N", "N", "N", "N", "TREATMENT", "2012-09-02", "2012-08-07", "2012-08-30", 29.0, 3.0, 26.0]
["CDISCPILOT01", "AE", "01-701-1028", 1.0, "E04", "APPLICATION SITE ERYTHEMA", "APPLICATION SITE ERYTHEMA", null, "APPLICATION SITE ERYTHEMA", null, "HLT_0617", null, "HLGT_0152", null, "GENERAL DISORDERS AND ADMINISTRATION SITE CONDITIONS", null, "GENERAL DISORDERS AND ADMINISTRATION SITE CONDITIONS", null, "MILD", "N", "", "POSSIBLE", "NOT RECOVERED/NOT RESOLVED", "N", "N", "N", "N", "N", "N", "N", "TREATMENT", "2013-08-01", "2013-07-21", "", 14.0, 3.0, null]
["CDISCPILOT01", "AE", "01-701-1028", 2.0, "E05", "APPLICATION SITE PRURITUS", "APPLICATION SITE ITCHING", null, "APPLICATION SITE PRURITUS", null, "HLT_0317", null, "HLGT_0338", null, "GENERAL DISORDERS AND ADMINISTRATION SITE CONDITIONS", null, "GENERAL DISORDERS AND ADMINISTRATION SITE CONDITIONS", null, "MILD", "N", "", "PROBABLE", "NOT RECOVERED/NOT RESOLVED", "N", "N", "N", "N", "N", "N", "N", "TREATMENT", "2013-08-14", "2013-08-08", "", 27.0, 21.0, null]
["CDISCPILOT01", "AE", "01-701-1034", 1.0, "E08", "APPLICATION SITE PRURITUS", "APPLICATION SITE ITCHING", null, "APPLICATION SITE PRURITUS", null, "HLT_0317", null, "HLGT_0338", null, "GENERAL DISORDERS AND ADMINISTRATION SITE CONDITIONS", null, "GENERAL DISORDERS AND ADMINISTRATION SITE CONDITIONS", null, "MILD", "N", "", "PROBABLE", "NOT RECOVERED/NOT RESOLVED", "N", "N", "N", "N", "N", "N", "N", "TREATMENT", "2014-09-25", "2014-08-27", "", 87.0, 58.0, null]
["CDISCPILOT01", "AE", "01-701-1034", 2.0, "E07", "FATIGUE", "FATIGUE", null, "FATIGUE", null, "HLT_0043", null, "HLGT_0181", null, "GENERAL DISORDERS AND ADMINISTRATION SITE CONDITIONS", null, "GENERAL DISORDERS AND ADMINISTRATION SITE CONDITIONS", null, "MILD", "N", "", "POSSIBLE", "NOT RECOVERED/NOT RESOLVED", "N", "N", "N", "N", "N", "N", "N", "TREATMENT", "2014-11-18", "2014-11-02", "", 141.0, 125.0, null]
["CDISCPILOT01", "AE", "01-701-1047", 4.0, "E09", "BUNDLE BRANCH BLOCK LEFT", "LEFT BUNDLE BRANCH BLOCK", null, "BUNDLE BRANCH BLOCK LEFT", null, "HLT_0281", null, "HLGT_0721", null, "CARDIAC DISORDERS", null, "CARDIAC DISORDERS", null, "MILD", "N", "", "NONE", "NOT RECOVERED/NOT RESOLVED", "N", "N", "N", "N", "N", "N", "N", "TREATMENT", "2013-03-10", "2013-03-10", "", 27.0, 27.0, null]
["CDISCPILOT01", "AE", "01-701-1047", 2.0, "E06", "HIATUS HERNIA", "HERNIA HIATAL", null, "HIATUS HERNIA", null, "HLT_0159", null, "HLGT_0109", null, "GASTROINTESTINAL DISORDERS", null, "GASTROINTESTINAL DISORDERS", null, "MODERATE", "N", "", "NONE", "RECOVERED/RESOLVED", "N", "N", "N", "N", "N", "N", "N", "TREATMENT", "2013-02-25", "2013-02-12", "2013-02-12", 14.0, 1.0, 1.0]
["CDISCPILOT01", "AE", "01-701-1047", 3.0, "E08", "UPPER RESPIRATORY TRACT INFECTION", "UPPER RESPIRATORY INFECTION", null, "UPPER RESPIRATORY TRACT INFECTION", null, "HLT_0520", null, "HLGT_0489", null, "INFECTIONS AND INFESTATIONS", null, "INFECTIONS AND INFESTATIONS", null, "MILD", "N", "", "NONE", "NOT RECOVERED/NOT RESOLVED", "N", "N", "N", "N", "N", "N", "N", "TREATMENT", "2013-03-10", "2013-03-06", "", 27.0, 23.0, null]
["CDISCPILOT01", "AE", "01-701-1097", 4.0, "E06", "APPLICATION SITE PRURITUS", "APPLICATION SITE ITCHING", null, "APPLICATION SITE PRURITUS", null, "HLT_0317", null, "HLGT_0338", null, "GENERAL DISORDERS AND ADMINISTRATION SITE CONDITIONS", null, "GENERAL DISORDERS AND ADMINISTRATION SITE CONDITIONS", null, "MILD", "N", "", "POSSIBLE", "NOT RECOVERED/NOT RESOLVED", "N", "N", "N", "N", "N", "N", "N", "TREATMENT", "2014-02-26", "2014-02-21", "", 57.0, 52.0, null]
["CDISCPILOT01", "AE", "01-701-1097", 10.0, "E06", "APPLICATION SITE PRURITUS", "APPLICATION SITE ITCHING", null, "APPLICATION SITE PRURITUS", null, "HLT_0317", null, "HLGT_0338", null, "GENERAL DISORDERS AND ADMINISTRATION SITE CONDITIONS", null, "GENERAL DISORDERS AND ADMINISTRATION SITE CONDITIONS", null, "MODERATE", "N", "", "POSSIBLE", "NOT RECOVERED/NOT RESOLVED", "N", "N", "N", "N", "N", "N", "N", "TREATMENT", "2014-05-21", "2014-02-21", "", 141.0, 52.0, null]
["CDISCPILOT01", "AE", "01-701-1097", 3.0, "E07", "APPLICATION SITE VESICLES", "APPLICATION SITE BLISTER", null, "APPLICATION SITE VESICLES", null, "HLT_0180", null, "HLGT_0576", null, "GENERAL DISORDERS AND ADMINISTRATION SITE CONDITIONS", null, "GENERAL DISORDERS AND ADMINISTRATION SITE CONDITIONS", null, "MILD", "N", "", "PROBABLE", "RECOVERED/RESOLVED", "N", "N", "N", "N", "N", "N", "N", "TREATMENT", "2014-02-26", "2014-02-20", "2014-02-22", 57.0, 51.0, 53.0]
["CDISCPILOT01", "AE", "01-701-1097", 1.0, "E04", "ERYTHEMA", "ERYTHEMA", null, "ERYTHEMA", null, "HLT_0284", null, "HLGT_0192", null, "SKIN AND SUBCUTANEOUS TISSUE DISORDERS", null, "SKIN AND SUBCUTANEOUS TISSUE DISORDERS", null, "MILD", "N", "", "POSSIBLE", "NOT RECOVERED/NOT RESOLVED", "N", "N", "N", "N", "N", "N", "N", "TREATMENT", "2014-01-15", "2014-01-03", "", 15.0, 3.0, null]
["CDISCPILOT01", "AE", "01-701-1097", 9.0, "E11", "NASAL CONGESTION", "NASAL CONGESTION", null, "NASAL CONGESTION", null, "HLT_0118", null, "HLGT_0549", null, "RESPIRATORY, THORACIC AND MEDIASTINAL DISORDERS", null, "RESPIRATORY, THORACIC AND MEDIASTINAL DISORDERS", null, "MILD", "N", "", "NONE", "RECOVERED/RESOLVED", "N", "N", "N", "N", "N", "N", "N", "TREATMENT", "2014-04-23", "2014-04-19", "2014-04-22", 113.0, 109.0, 112.0]
["CDISCPILOT01", "AE", "01-701-1097", 8.0, "E10", "PHARYNGOLARYNGEAL PAIN", "SORE THROAT", null, "PHARYNGOLARYNGEAL PAIN", null, "HLT_0130", null, "HLGT_0402", null, "RESPIRATORY, THORACIC AND MEDIASTINAL DISORDERS", null, "RESPIRATORY, THORACIC AND MEDIASTINAL DISORDERS", null, "MILD", "N", "", "NONE", "RECOVERED/RESOLVED", "N", "N", "N", "N", "N", "N", "N", "TREATMENT", "2014-04-23", "2014-04-19", "2014-04-22", 113.0, 109.0, 112.0]
["CDISCPILOT01", "AE", "01-701-1097", 2.0, "E05", "PRURITUS GENERALISED", "GENERALIZED PRURITUS", null, "PRURITUS GENERALISED", null, "HLT_0123", null, "HLGT_0689", null, "SKIN AND SUBCUTANEOUS TISSUE DISORDERS", null, "SKIN AND SUBCUTANEOUS TISSUE DISORDERS", null, "MODERATE", "N", "", "POSSIBLE", "RECOVERED/RESOLVED", "N", "N", "N", "N", "N", "N", "N", "TREATMENT", "2014-02-26", "2014-02-20", "2014-02-20", 57.0, 51.0, 51.0]
["CDISCPILOT01", "AE", "01-701-1097", 5.0, "E08", "PRURITUS GENERALISED", "GENERALIZED PRURITUS", null, "PRURITUS GENERALISED", null, "HLT_0123", null, "HLGT_0689", null, "SKIN AND SUBCUTANEOUS TISSUE DISORDERS", null, "SKIN AND SUBCUTANEOUS TISSUE DISORDERS", null, "MODERATE", "N", "", "POSSIBLE", "RECOVERED/RESOLVED", "N", "N", "N", "N", "N", "N", "N", "TREATMENT", "2014-03-26", "2014-03-21", "2014-03-21", 85.0, 80.0, 80.0]
["CDISCPILOT01", "AE", "01-701-1097", 6.0, "E12", "PRURITUS GENERALISED", "GENERALIZED PRURITUS", null, "PRURITUS GENERALISED", null, "HLT_0123", null, "HLGT_0689", null, "SKIN AND SUBCUTANEOUS TISSUE DISORDERS", null, "SKIN AND SUBCUTANEOUS TISSUE DISORDERS", null, "MODERATE", "N", "", "POSSIBLE", "RECOVERED/RESOLVED", "N", "N", "N", "N", "N", "N", "N", "TREATMENT", "2014-04-23", "2014-03-31", "2014-03-31", 113.0, 90.0, 90.0]
["CDISCPILOT01", "AE", "01-701-1097", 7.0, "E09", "PRURITUS GENERALISED", "GENERALIZED PRURITUS", null, "PRURITUS GENERALISED", null, "HLT_0123", null, "HLGT_0689", null, "SKIN AND SUBCUTANEOUS TISSUE DISORDERS", null, "SKIN AND SUBCUTANEOUS TISSUE DISORDERS", null, "MODERATE", "N", "", "POSSIBLE", "RECOVERED/RESOLVED", "N", "N", "N", "N", "N", "N", "N", "TREATMENT", "2014-04-23", "2014-04-19", "2014-04-20", 113.0, 109.0, 110.0]
["CDISCPILOT01", "AE", "01-701-1111", 7.0, "E16", "ARTHRALGIA", "GENERALIZED JOINT PAIN", null, "ARTHRALGIA", null, "HLT_0375", null, "HLGT_0610", null, "MUSCULOSKELETAL AND CONNECTIVE TISSUE DISORDERS", null, "MUSCULOSKELETAL AND CONNECTIVE TISSUE DISORDERS", null, "MODERATE", "N", "", "NONE", "NOT RECOVERED/NOT RESOLVED", "N", "N", "N", "N", "N", "N", "N", "TREATMENT", "2012-09-17", "2012-09-13", "", 11.0, 7.0, null]
["CDISCPILOT01", "AE", "01-701-1111", 8.0, "E17", "CELLULITIS", "CELLULITIS OF LEG", null, "CELLULITIS", null, "HLT_0613", null, "HLGT_0066", null, "INFECTIONS AND INFESTATIONS", null, "INFECTIONS AND INFESTATIONS", null, "MODERATE", "N", "", "NONE", "NOT RECOVERED/NOT RESOLVED", "N", "N", "N", "N", "N", "N", "N", "TREATMENT", "2012-09-17", "2012-09-13", "", 11.0, 7.0, null]
["CDISCPILOT01", "AE", "01-701-1111", 4.0, "E14", "ERYTHEMA", "ERYTHEMA", null, "ERYTHEMA", null, "HLT_0284", null, "HLGT_0192", null, "SKIN AND SUBCUTANEOUS TISSUE DISORDERS", null, "SKIN AND SUBCUTANEOUS TISSUE DISORDERS", null, "MILD", "N", "", "NONE", "RECOVERED/RESOLVED", "N", "N", "N", "N", "N", "N", "N", "SCREENING", "2012-09-17", "2012-09-02", "2012-09-07", 11.0, -5.0, 1.0]
["CDISCPILOT01", "AE", "01-701-1111", 3.0, "E06", "LOCALISED INFECTION", "LOCALIZED INFECTION", null, "LOCALISED INFECTION", null, "HLT_0435", null, "HLGT_0557", null, "INFECTIONS AND INFESTATIONS", null, "INFECTIONS AND INFESTATIONS", null, "MODERATE", "N", "", "NONE", "NOT RECOVERED/NOT RESOLVED", "N", "N", "N", "N", "N", "N", "N", "SCREENING", "2012-09-17", "2012-07-08", "", 11.0, -61.0, null]
["CDISCPILOT01", "AE", "01-701-1111", 6.0, "E18", "MICTURITION URGENCY", "URINARY URGENCY", null, "MICTURITION URGENCY", null, "HLT_0294", null, "HLGT_0483", null, "RENAL AND URINARY DISORDERS", null, "RENAL AND URINARY DISORDERS", null, "MILD", "N", "", "NONE", "NOT RECOVERED/NOT RESOLVED", "N", "N", "N", "N", "N", "N", "N", "TREATMENT", "2012-09-17", "2012-09-07", "", 11.0, 1.0, null]
["CDISCPILOT01", "AE", "01-701-1111", 5.0, "E15", "PRURITUS", "ITCHING", null, "PRURITUS", null, "HLT_0778", null, "HLGT_0695", null, "SKIN AND SUBCUTANEOUS TISSUE DISORDERS", null, "SKIN AND SUBCUTANEOUS TISSUE DISORDERS", null, "MILD", "N", "", "NONE", "RECOVERED/RESOLVED", "N", "N", "N", "N", "N", "N", "N", "SCREENING", "2012-09-17", "2012-09-02", "2012-09-07", 11.0, -5.0, 1.0]
["CDISCPILOT01", "AE", "01-701-1115", 9.0, "E14", "APPLICATION SITE DERMATITIS", "APPLICATION SITE RASH", null, "APPLICATION SITE DERMATITIS", null, "HLT_0343", null, "HLGT_0241", null, "GENERAL DISORDERS AND ADMINISTRATION SITE CONDITIONS", null, "GENERAL DISORDERS AND ADMINISTRATION SITE CONDITIONS", null, "MODERATE", "N", "", "PROBABLE", "NOT RECOVERED/NOT RESOLVED", "N", "N", "N", "N", "N", "N", "N", "TREATMENT", "2013-01-23", "2013-01-19", "", 55.0, 51.0, null]
["CDISCPILOT01", "AE", "01-701-1115", 1.0, "E09", "APPLICATION SITE ERYTHEMA", "APPLICATION SITE REDNESS", null, "APPLICATION SITE ERYTHEMA", null, "HLT_0617", null, "HLGT_0152", null, "GENERAL DISORDERS AND ADMINISTRATION SITE CONDITIONS", null, "GENERAL DISORDERS AND ADMINISTRATION SITE CONDITIONS", null, "MILD", "N", "", "PROBABLE", "NOT RECOVERED/NOT RESOLVED", "N", "N", "N", "N", "N", "N", "N", "TREATMENT", "2012-12-13", "2012-12-02", "", 14.0, 3.0, null]
["CDISCPILOT01", "AE", "01-701-1115", 5.0, "E09", "APPLICATION SITE ERYTHEMA", "APPLICATION SITE REDNESS", null, "APPLICATION SITE ERYTHEMA", null, "HLT_0617", null, "HLGT_0152", null, "GENERAL DISORDERS AND ADMINISTRATION SITE CONDITIONS", null, "GENERAL DISORDERS AND ADMINISTRATION SITE CONDITIONS", null, "MODERATE", "N", "", "PROBABLE", "NOT RECOVERED/NOT RESOLVED", "N", "N", "N", "N", "N", "N", "N", "TREATMENT", "2013-01-23", "2012-12-02", "", 55.0, 3.0, null]
["CDISCPILOT01", "AE", "01-701-1115", 4.0, "E10", "APPLICATION SITE IRRITATION", "APPLICATION SITE BURNING", null, "APPLICATION SITE IRRITATION", null, "HLT_0061", null, "HLGT_0346", null, "GENERAL DISORDERS AND ADMINISTRATION SITE CONDITIONS", null, "GENERAL DISORDERS AND ADMINISTRATION SITE CONDITIONS", null, "MILD", "N", "", "POSSIBLE", "RECOVERED/RESOLVED", "N", "N", "N", "N", "N", "N", "N", "TREATMENT", "2012-12-28", "2012-12-26", "2012-12-26", 29.0, 27.0, 27.0]
["CDISCPILOT01", "AE", "01-701-1115", 8.0, "E12", "APPLICATION SITE IRRITATION", "APPLICATION SITE BURNING", null, "APPLICATION SITE IRRITATION", null, "HLT_0061", null, "HLGT_0346", null, "GENERAL DISORDERS AND ADMINISTRATION SITE CONDITIONS", null, "GENERAL DISORDERS AND ADMINISTRATION SITE CONDITIONS", null, "MODERATE", "N", "", "PROBABLE", "NOT RECOVERED/NOT RESOLVED", "N", "N", "N", "N", "N", "N", "N", "TREATMENT", "2013-01-23", "2013-01-19", "", 55.0, 51.0, null]
["CDISCPILOT01", "AE", "01-701-1115", 2.0, "E11", "APPLICATION SITE PRURITUS", "APPLICATION SITE ITCHING", null, "APPLICATION SITE PRURITUS", null, "HLT_0317", null, "HLGT_0338", null, "GENERAL DISORDERS AND ADMINISTRATION SITE CONDITIONS", null, "GENERAL DISORDERS AND ADMINISTRATION SITE CONDITIONS", null, "MILD", "N", "", "PROBABLE", "NOT RECOVERED/NOT RESOLVED", "N", "N", "N", "N", "N", "N", "N", "TREATMENT", "2012-12-13", "2012-12-02", "", 14.0, 3.0, null]
["CDISCPILOT01", "AE", "01-701-1115", 6.0, "E11", "APPLICATION SITE PRURITUS", "APPLICATION SITE ITCHING", null, "APPLICATION SITE PRURITUS", null, "HLT_0317", null, "HLGT_0338", null, "GENERAL DISORDERS AND ADMINISTRATION SITE CONDITIONS", null, "GENERAL DISORDERS AND ADMINISTRATION SITE CONDITIONS", null, "MODERATE", "N", "", "PROBABLE", "NOT RECOVERED/NOT RESOLVED", "N", "N", "N", "N", "N", "N", "N", "TREATMENT", "2013-01-23", "2012-12-02", "", 55.0, 3.0, null]
["CDISCPILOT01", "AE", "01-701-1115", 7.0, "E13", "FATIGUE", "FATIGUE", null, "FATIGUE", null, "HLT_0043", null, "HLGT_0181", null, "GENERAL DISORDERS AND ADMINISTRATION SITE CONDITIONS", null, "GENERAL DISORDERS AND ADMINISTRATION SITE CONDITIONS", null, "MODERATE", "N", "", "REMOTE", "NOT RECOVERED/NOT RESOLVED", "N", "N", "N", "N", "N", "N", "N", "TREATMENT", "2013-01-23", "2013-01-14", "", 55.0, 46.0, null]
["CDISCPILOT01", "AE", "01-701-1118", 1.0, "E06", "COUGH", "COUGH", null, "COUGH", null, "HLT_0701", null, "HLGT_0280", null, "RESPIRATORY, THORACIC AND MEDIASTINAL DISORDERS", null, "RESPIRATORY, THORACIC AND MEDIASTINAL DISORDERS", null, "MILD", "N", "", "NONE", "NOT RECOVERED/NOT RESOLVED", "N", "N", "N", "N", "N", "N", "N", "SCREENING", "2014-03-10", "2003", "", -2.0, null, null]
["CDISCPILOT01", "AE", "01-701-1130", 5.0, "E09", "EYE ALLERGY", "EYE ALLERGY", null, "EYE ALLERGY", null, "HLT_0256", null, "HLGT_0071", null, "EYE DISORDERS", null, "EYE DISORDERS", null, "MILD", "N", "", "NONE", "RECOVERED/RESOLVED", "N", "N", "N", "N", "N", "N", "N", "TREATMENT", "2014-05-16", "2014-05-09", "2014-05-09", 91.0, 84.0, 84.0]
["CDISCPILOT01", "AE", "01-701-1130", 6.0, "E10", "EYE PRURITUS", "EYE ITCHING", null, "EYE PRURITUS", null, "HLT_0523", null, "HLGT_0240", null, "EYE DISORDERS", null, "EYE DISORDERS", null, "MILD", "N", "", "REMOTE", "NOT RECOVERED/NOT RESOLVED", "N", "N", "N", "N", "N", "N", "N", "TREATMENT", "2014-06-07", "2014-05-22", "", 113.0, 97.0, null]
["CDISCPILOT01", "AE", "01-701-1130", 4.0, "E08", "EYE SWELLING", "EYES SWOLLEN", null, "EYE SWELLING", null, "HLT_0008", null, "HLGT_0466", null, "EYE DISORDERS", null, "EYE DISORDERS", null, "MILD", "N", "", "NONE", "RECOVERED/RESOLVED", "N", "N", "N", "N", "N", "N", "N", "TREATMENT", "2014-05-16", "2014-05-09", "2014-05-09", 91.0, 84.0, 84.0]
["CDISCPILOT01", "AE", "01-701-1130", 8.0, "E12", "NASAL CONGESTION", "NASAL CONGESTION", null, "NASAL CONGESTION", null, "HLT_0118", null, "HLGT_0549", null, "RESPIRATORY, THORACIC AND MEDIASTINAL DISORDERS", null, "RESPIRATORY, THORACIC AND MEDIASTINAL DISORDERS", null, "MILD", "N", "", "REMOTE", "NOT RECOVERED/NOT RESOLVED", "N", "N", "N", "N", "N", "N", "N", "TREATMENT", "2014-06-07", "2014-05-22", "", 113.0, 97.0, null]
["CDISCPILOT01", "AE", "01-701-1130", 7.0, "E11", "PRURITUS", "ITCHING BOTH HANDS", null, "PRURITUS", null, "HLT_0778", null, "HLGT_0695", null, "SKIN AND SUBCUTANEOUS TISSUE DISORDERS", null, "SKIN AND SUBCUTANEOUS TISSUE DISORDERS", null, "MILD", "N", "", "REMOTE", "NOT RECOVERED/NOT RESOLVED", "N", "N", "N", "N", "N", "N", "N", "TREATMENT", "2014-06-07", "2014-05-22", "", 113.0, 97.0, null]
["CDISCPILOT01", "AE", "01-701-1130", 2.0, "E07", "PYREXIA", "FEVER", null, "PYREXIA", null, "HLT_0310", null, "HLGT_0652", null, "GENERAL DISORDERS AND ADMINISTRATION SITE CONDITIONS", null, "GENERAL DISORDERS AND ADMINISTRATION SITE CONDITIONS", null, "MILD", "N", "", "NONE", "RECOVERED/RESOLVED", "N", "N", "N", "N", "N", "N", "N", "TREATMENT", "2014-03-15", "2014-03-09", "2014-03-09", 29.0, 23.0, 23.0]
["CDISCPILOT01", "AE", "01-701-1130", 3.0, "E06", "URINARY TRACT INFECTION", "URINARY TRACT INFECTION", null, "URINARY TRACT INFECTION", null, "HLT_0161", null, "HLGT_0093", null, "INFECTIONS AND INFESTATIONS", null, "INFECTIONS AND INFESTATIONS", null, "MILD", "N", "", "NONE", "RECOVERED/RESOLVED", "N", "N", "N", "N", "N", "N", "N", "TREATMENT", "2014-03-17", "2014-03-09", "2014-03-16", 31.0, 23.0, 30.0]
["CDISCPILOT01", "AE", "01-701-1133", 1.0, "E04", "APPLICATION SITE ERYTHEMA", "APPLICATION SITE REDNESS", null, "APPLICATION SITE ERYTHEMA", null, "HLT_0617", null, "HLGT_0152", null, "GENERAL DISORDERS AND ADMINISTRATION SITE CONDITIONS", null, "GENERAL DISORDERS AND ADMINISTRATION SITE CONDITIONS", null, "MILD", "N", "", "PROBABLE", "NOT RECOVERED/NOT RESOLVED", "N", "N", "N", "N", "N", "N", "N", "TREATMENT", "2013-01-22", "2012-12-27", "", 87.0, 61.0, null]
["CDISCPILOT01", "AE", "01-701-1133", 3.0, "E04", "APPLICATION SITE ERYTHEMA", "APPLICATION SITE REDNESS", null, "APPLICATION SITE ERYTHEMA", null, "HLT_0617", null, "HLGT_0152", null, "GENERAL DISORDERS AND ADMINISTRATION SITE CONDITIONS", null, "GENERAL DISORDERS AND ADMINISTRATION SITE CONDITIONS", null, "MODERATE", "N", "", "PROBABLE", "NOT RECOVERED/NOT RESOLVED", "N", "N", "N", "N", "N", "N", "N", "TREATMENT", "2013-02-18", "2012-12-27", "", 114.0, 61.0, null]
["CDISCPILOT01", "AE", "01-701-1133", 2.0, "E05", "APPLICATION SITE PRURITUS", "APPLICATION SITE ITCHING", null, "APPLICATION SITE PRURITUS", null, "HLT_0317", null, "HLGT_0338", null, "GENERAL DISORDERS AND ADMINISTRATION SITE CONDITIONS", null, "GENERAL DISORDERS AND ADMINISTRATION SITE CONDITIONS", null, "MILD", "N", "", "PROBABLE", "NOT RECOVERED/NOT RESOLVED", "N", "N", "N", "N", "N", "N", "N", "TREATMENT", "2013-01-22", "2012-12-27", "", 87.0, 61.0, null]
["CDISCPILOT01", "AE", "01-701-1133", 4.0, "E05", "APPLICATION SITE PRURITUS", "APPLICATION SITE ITCHING", null, "APPLICATION SITE PRURITUS", null, "HLT_0317", null, "HLGT_0338", null, "GENERAL DISORDERS AND ADMINISTRATION SITE CONDITIONS", null, "GENERAL DISORDERS AND ADMINISTRATION SITE CONDITIONS", null, "MODERATE", "N", "", "PROBABLE", "NOT RECOVERED/NOT RESOLVED", "N", "N", "N", "N", "N", "N", "N", "TREATMENT", "2013-02-18", "2012-12-27", "", 114.0, 61.0, null]
["CDISCPILOT01", "AE", "01-701-1146", 5.0, "E12", "APPLICATION SITE ERYTHEMA", "APPLICATION SITE ERYTHEMA", null, "APPLICATION SITE ERYTHEMA", null, "HLT_0617", null, "HLGT_0152", null, "GENERAL DISORDERS AND ADMINISTRATION SITE CONDITIONS", null, "GENERAL DISORDERS AND ADMINISTRATION SITE CONDITIONS", null, "MILD", "N", "", "PROBABLE", "NOT RECOVERED/NOT RESOLVED", "N", "N", "N", "N", "N", "N", "N", "TREATMENT", "2013-06-16", "2013-06-10", "", 28.0, 22.0, null]
["CDISCPILOT01", "AE", "01-701-1146", 7.0, "E12", "APPLICATION SITE ERYTHEMA", "APPLICATION SITE ERYTHEMA", null, "APPLICATION SITE ERYTHEMA", null, "HLT_0617", null, "HLGT_0152", null, "GENERAL DISORDERS AND ADMINISTRATION SITE CONDITIONS", null, "GENERAL DISORDERS AND ADMINISTRATION SITE CONDITIONS", null, "MODERATE", "N", "", "PROBABLE", "NOT RECOVERED/NOT RESOLVED", "N", "N", "N", "N", "N", "N", "N", "TREATMENT", "2013-06-30", "2013-06-10", "", 42.0, 22.0, null]
["CDISCPILOT01", "AE", "01-701-1146", 3.0, "E10", "APPLICATION SITE IRRITATION", "APPLICATION SITE IRRITATION", null, "APPLICATION SITE IRRITATION", null, "HLT_0061", null, "HLGT_0346", null, "GENERAL DISORDERS AND ADMINISTRATION SITE CONDITIONS", null, "GENERAL DISORDERS AND ADMINISTRATION SITE CONDITIONS", null, "MILD", "N", "", "PROBABLE", "RECOVERED/RESOLVED", "N", "N", "N", "N", "N", "N", "N", "TREATMENT", "2013-06-03", "2013-06-01", "2013-06-02", 15.0, 13.0, 14.0]
["CDISCPILOT01", "AE", "01-701-1146", 11.0, "E16", "APPLICATION SITE IRRITATION", "APPLICATION SITE BURNING", null, "APPLICATION SITE IRRITATION", null, "HLT_0061", null, "HLGT_0346", null, "GENERAL DISORDERS AND ADMINISTRATION SITE CONDITIONS", null, "GENERAL DISORDERS AND ADMINISTRATION SITE CONDITIONS", null, "MODERATE", "N", "", "PROBABLE", "NOT RECOVERED/NOT RESOLVED", "N", "N", "N", "N", "N", "N", "N", "TREATMENT", "2013-06-30", "2013-06-26", "", 42.0, 38.0, null]
["CDISCPILOT01", "AE", "01-701-1146", 9.0, "E14", "APPLICATION SITE PAIN", "APPLICATION SITE PAIN", null, "APPLICATION SITE PAIN", null, "HLT_0342", null, "HLGT_0085", null, "GENERAL DISORDERS AND ADMINISTRATION SITE CONDITIONS", null, "GENERAL DISORDERS AND ADMINISTRATION SITE CONDITIONS", null, "MODERATE", "N", "", "PROBABLE", "NOT RECOVERED/NOT RESOLVED", "N", "N", "N", "N", "N", "N", "N", "TREATMENT", "2013-06-30", "2013-06-22", "", 42.0, 34.0, null]
["CDISCPILOT01", "AE", "01-701-1146", 6.0, "E13", "APPLICATION SITE PRURITUS", "APPLICATION SITE ITCHING", null, "APPLICATION SITE PRURITUS", null, "HLT_0317", null, "HLGT_0338", null, "GENERAL DISORDERS AND ADMINISTRATION SITE CONDITIONS", null, "GENERAL DISORDERS AND ADMINISTRATION SITE CONDITIONS", null, "MILD", "N", "", "PROBABLE", "NOT RECOVERED/NOT RESOLVED", "N", "N", "N", "N", "N", "N", "N", "TREATMENT", "2013-06-16", "2013-06-10", "", 28.0, 22.0, null]
["CDISCPILOT01", "AE", "01-701-1146", 8.0, "E13", "APPLICATION SITE PRURITUS", "APPLICATION SITE ITCHING", null, "APPLICATION SITE PRURITUS", null, "HLT_0317", null, "HLGT_0338", null, "GENERAL DISORDERS AND ADMINISTRATION SITE CONDITIONS", null, "GENERAL DISORDERS AND ADMINISTRATION SITE CONDITIONS", null, "MODERATE", "N", "", "PROBABLE", "NOT RECOVERED/NOT RESOLVED", "N", "N", "N", "N", "N", "N", "N", "TREATMENT", "2013-06-30", "2013-06-10", "", 42.0, 22.0, null]
["CDISCPILOT01", "AE", "01-701-1146", 10.0, "E15", "APPLICATION SITE VESICLES", "APPLICATION SITE VESICLES", null, "APPLICATION SITE VESICLES", null, "HLT_0180", null, "HLGT_0576", null, "GENERAL DISORDERS AND ADMINISTRATION SITE CONDITIONS", null, "GENERAL DISORDERS AND ADMINISTRATION SITE CONDITIONS", null, "MODERATE", "N", "", "PROBABLE", "NOT RECOVERED/NOT RESOLVED", "N", "N", "N", "N", "N", "N", "N", "TREATMENT", "2013-06-30", "2013-06-26", "", 42.0, 38.0, null]
["CDISCPILOT01", "AE", "01-701-1146", 4.0, "E11", "FATIGUE", "FATIGUE", null, "FATIGUE", null, "HLT_0043", null, "HLGT_0181", null, "GENERAL DISORDERS AND ADMINISTRATION SITE CONDITIONS", null, "GENERAL DISORDERS AND ADMINISTRATION SITE CONDITIONS", null, "MILD", "N", "", "POSSIBLE", "NOT RECOVERED/NOT RESOLVED", "N", "N", "N", "N", "N", "N", "N", "TREATMENT", "2013-06-03", "2013-06-03", "", 15.0, 15.0, null]
["CDISCPILOT01", "AE", "01-701-1146", 2.0, "E09", "RASH", "RASH", null, "RASH", null, "HLT_0762", null, "HLGT_0198", null, "SKIN AND SUBCUTANEOUS TISSUE DISORDERS", null, "SKIN AND SUBCUTANEOUS TISSUE DISORDERS", null, "MILD", "N", "", "NONE", "RECOVERED/RESOLVED", "N", "N", "N", "N", "N", "N", "N", "SCREENING", "2013-06-03", "2013-05-16", "2013-06-02", 15.0, -4.0, 14.0]
["CDISCPILOT01", "AE", "01-701-1148", 10.0, "E27", "ACTINIC KERATOSIS", "ACTINIC KERATOSIS", null, "ACTINIC KERATOSIS", null, "HLT_0609", null, "HLGT_0490", null, "SKIN AND SUBCUTANEOUS TISSUE DISORDERS", null, "SKIN AND SUBCUTANEOUS TISSUE DISORDERS", null, "MILD", "N", "", "NONE", "NOT RECOVERED/NOT RESOLVED", "N", "N", "N", "N", "N", "N", "N", "TREATMENT", "2014-02-20", "2014-02-12", "", 182.0, 174.0, null]
["CDISCPILOT01", "AE", "01-701-1148", 1.0, "E20", "APPLICATION SITE ERYTHEMA", "APPLICATION SITE REDNESS", null, "APPLICATION SITE ERYTHEMA", null, "HLT_0617", null, "HLGT_0152", null, "GENERAL DISORDERS AND ADMINISTRATION SITE CONDITIONS", null, "GENERAL DISORDERS AND ADMINISTRATION SITE CONDITIONS", null, "MILD", "N", "", "PROBABLE", "NOT RECOVERED/NOT RESOLVED", "N", "N", "N", "N", "N", "N", "N", "TREATMENT", "2013-09-05", "2013-08-25", "", 14.0, 3.0, null]
["CDISCPILOT01", "AE", "01-701-1148", 2.0, "E21", "APPLICATION SITE PRURITUS", "APPLICATION SITE ITCHING", null, "APPLICATION SITE PRURITUS", null, "HLT_0317", null, "HLGT_0338", null, "GENERAL DISORDERS AND ADMINISTRATION SITE CONDITIONS", null, "GENERAL DISORDERS AND ADMINISTRATION SITE CONDITIONS", null, "MILD", "N", "", "PROBABLE", "NOT RECOVERED/NOT RESOLVED", "N", "N", "N", "N", "N", "N", "N", "TREATMENT", "2013-09-05", "2013-08-25", "", 14.0, 3.0, null]
["CDISCPILOT01", "AE", "01-701-1148", 6.0, "E25", "CALCULUS URETHRAL", "URETHRAL CALCULUS", null, "CALCULUS URETHRAL", null, "HLT_0550", null, "HLGT_0414", null, "RENAL AND URINARY DISORDERS", null, "RENAL AND URINARY DISORDERS", null, "MODERATE", "N", "", "NONE", "RECOVERED/RESOLVED", "N", "N", "N", "N", "N", "N", "N", "TREATMENT", "2014-01-10", "2013-12-17", "2013-12-17", 141.0, 117.0, 117.0]
["CDISCPILOT01", "AE", "01-701-1148", 9.0, "E26", "DEPRESSED MOOD", "DEPRESSED MOOD", null, "DEPRESSED MOOD", null, "HLT_0784", null, "HLGT_0122", null, "PSYCHIATRIC DISORDERS", null, "PSYCHIATRIC DISORDERS", null, "MODERATE", "N", "", "NONE", "NOT RECOVERED/NOT RESOLVED", "N", "N", "N", "N", "N", "N", "N", "SCREENING", "2014-02-08", "2013-07-29", "", 170.0, -25.0, null]
["CDISCPILOT01", "AE", "01-701-1148", 8.0, "E03", "DYSPEPSIA", "INDIGESTION", null, "DYSPEPSIA", null, "HLT_0244", null, "HLGT_0716", null, "GASTROINTESTINAL DISORDERS", null, "GASTROINTESTINAL DISORDERS", null, "MODERATE", "N", "", "NONE", "NOT RECOVERED/NOT RESOLVED", "N", "N", "N", "N", "N", "N", "N", "SCREENING", "2014-02-08", "2012-02", "", 170.0, null, null]
["CDISCPILOT01", "AE", "01-701-1148", 7.0, "E28", "EPISTAXIS", "NOSE BLEED", null, "EPISTAXIS", null, "HLT_0386", null, "HLGT_0577", null, "RESPIRATORY, THORACIC AND MEDIASTINAL DISORDERS", null, "RESPIRATORY, THORACIC AND MEDIASTINAL DISORDERS", null, "MILD", "N", "", "NONE", "RECOVERED/RESOLVED", "N", "N", "N", "N", "N", "N", "N", "TREATMENT", "2014-01-10", "2014-01-03", "2014-01-03", 141.0, 134.0, 134.0]
["CDISCPILOT01", "AE", "01-701-1148", 5.0, "E24", "FLANK PAIN", "FLANK PAIN", null, "FLANK PAIN", null, "HLT_0484", null, "HLGT_0543", null, "MUSCULOSKELETAL AND CONNECTIVE TISSUE DISORDERS", null, "MUSCULOSKELETAL AND CONNECTIVE TISSUE DISORDERS", null, "MODERATE", "N", "", "NONE", "RECOVERED/RESOLVED", "N", "N", "N", "N", "N", "N", "N", "TREATMENT", "2014-01-10", "2013-12-15", "2013-12-17", 141.0, 115.0, 117.0]
["CDISCPILOT01", "AE", "01-701-1148", 4.0, "E23", "LOWER RESPIRATORY TRACT INFECTION", "CHEST COLD", null, "LOWER RESPIRATORY TRACT INFECTION", null, "HLT_0052", null, "HLGT_0217", null, "INFECTIONS AND INFESTATIONS", null, "INFECTIONS AND INFESTATIONS", null, "MODERATE", "N", "", "NONE", "RECOVERED/RESOLVED", "N", "N", "N", "N", "N", "N", "N", "TREATMENT", "2013-11-17", "2013-10-12", "2013-11-10", 87.0, 51.0, 80.0]
["CDISCPILOT01", "AE", "01-701-1153", 2.0, "E06", "INCREASED APPETITE", "INCREASED APPETITE", null, "INCREASED APPETITE", null, "HLT_0566", null, "HLGT_0769", null, "METABOLISM AND NUTRITION DISORDERS", null, "METABOLISM AND NUTRITION DISORDERS", null, "MILD", "N", "", "POSSIBLE", "RECOVERED/RESOLVED", "N", "N", "N", "N", "N", "N", "N", "TREATMENT", "2013-11-18", "2013-10-13", "2013-11-06", 57.0, 21.0, 45.0]
["CDISCPILOT01", "AE", "01-701-1180", 9.0, "E07", "APPLICATION SITE ERYTHEMA", "APPLICATION SITE ERYTHEMA", null, "APPLICATION SITE ERYTHEMA", null, "HLT_0617", null, "HLGT_0152", null, "GENERAL DISORDERS AND ADMINISTRATION SITE CONDITIONS", null, "GENERAL DISORDERS AND ADMINISTRATION SITE CONDITIONS", null, "MODERATE", "N", "", "POSSIBLE", "NOT RECOVERED/NOT RESOLVED", "N", "N", "N", "N", "N", "N", "N", "TREATMENT", "2013-03-23", "2013-03-19", "", 40.0, 36.0, null]
["CDISCPILOT01", "AE", "01-701-1180", 8.0, "E06", "APPLICATION SITE PRURITUS", "APPLICATION SITE ITCHING", null, "APPLICATION SITE PRURITUS", null, "HLT_0317", null, "HLGT_0338", null, "GENERAL DISORDERS AND ADMINISTRATION SITE CONDITIONS", null, "GENERAL DISORDERS AND ADMINISTRATION SITE CONDITIONS", null, "MODERATE", "N", "", "POSSIBLE", "NOT RECOVERED/NOT RESOLVED", "N", "N", "N", "N", "N", "N", "N", "TREATMENT", "2013-03-23", "2013-03-19", "", 40.0, 36.0, null]
["CDISCPILOT01", "AE", "01-701-1180", 7.0, "E05", "APPLICATION SITE VESICLES", "APPLICATION SITE BLISTER", null, "APPLICATION SITE VESICLES", null, "HLT_0180", null, "HLGT_0576", null, "GENERAL DISORDERS AND ADMINISTRATION SITE CONDITIONS", null, "GENERAL DISORDERS AND ADMINISTRATION SITE CONDITIONS", null, "MODERATE", "N", "", "POSSIBLE", "NOT RECOVERED/NOT RESOLVED", "N", "N", "N", "N", "N", "N", "N", "TREATMENT", "2013-03-23", "2013-03-19", "", 40.0, 36.0, null]
["CDISCPILOT01", "AE", "01-701-1180", 4.0, "E04", "HEADACHE", "HEADACHE", null, "HEADACHE", null, "HLT_0064", null, "HLGT_0344", null, "NERVOUS SYSTEM DISORDERS", null, "NERVOUS SYSTEM DISORDERS", null, "MODERATE", "N", "", "NONE", "NOT RECOVERED/NOT RESOLVED", "N", "N", "N", "N", "N", "N", "N", "SCREENING", "2013-03-11", "2002", "", 28.0, null, null]
["CDISCPILOT01", "AE", "01-701-1180", 6.0, "E02", "MICTURITION URGENCY", "URINARY URGENCY", null, "MICTURITION URGENCY", null, "HLT_0294", null, "HLGT_0483", null, "RENAL AND URINARY DISORDERS", null, "RENAL AND URINARY DISORDERS", null, "MILD", "N", "", "POSSIBLE", "RECOVERED/RESOLVED", "N", "N", "N", "N", "N", "N", "N", "TREATMENT", "2013-03-23", "2013-02-15", "2013-03-19", 40.0, 4.0, 36.0]
["CDISCPILOT01", "AE", "01-701-1180", 5.0, "E03", "NASOPHARYNGITIS", "COLD", null, "NASOPHARYNGITIS", null, "HLT_0036", null, "HLGT_0709", null, "INFECTIONS AND INFESTATIONS", null, "INFECTIONS AND INFESTATIONS", null, "MILD", "N", "", "NONE", "RECOVERED/RESOLVED", "N", "N", "N", "N", "N", "N", "N", "TREATMENT", "2013-03-11", "2013-03-06", "2013-03-07", 28.0, 23.0, 24.0]
["CDISCPILOT01", "AE", "01-701-1180", 2.0, "E01", "VOMITING", "VOMITING", null, "VOMITING", null, "HLT_0016", null, "HLGT_0350", null, "GASTROINTESTINAL DISORDERS", null, "GASTROINTESTINAL DISORDERS", null, "MILD", "N", "", "NONE", "RECOVERED/RESOLVED", "N", "N", "N", "N", "N", "N", "N", "TREATMENT", "2013-02-25", "2013-02-12", "2013-02-12", 14.0, 1.0, 1.0]
["CDISCPILOT01", "AE", "01-701-1181", 1.0, "E16", "AGITATION", "AGITATION", null, "AGITATION", null, "HLT_0140", null, "HLGT_0170", null, "PSYCHIATRIC DISORDERS", null, "PSYCHIATRIC DISORDERS", null, "MODERATE", "N", "", "NONE", "RECOVERED/RESOLVED", "N", "N", "N", "N", "N", "N", "N", "TREATMENT", "2013-12-12", "2013-12-09", "2013-12-09", 8.0, 5.0, 5.0]
["CDISCPILOT01", "AE", "01-701-1188", 7.0, "E09", "APPLICATION SITE URTICARIA", "APPLICATION SITE URTICARIA", null, "APPLICATION SITE URTICARIA", null, "HLT_0196", null, "HLGT_0233", null, "GENERAL DISORDERS AND ADMINISTRATION SITE CONDITIONS", null, "GENERAL DISORDERS AND ADMINISTRATION SITE CONDITIONS", null, "MILD", "N", "", "PROBABLE", "NOT RECOVERED/NOT RESOLVED", "N", "N", "N", "N", "N", "N", "N", "TREATMENT", "2013-03-25", "2013-03-21", "", 39.0, 35.0, null]
["CDISCPILOT01", "AE", "01-701-1188", 1.0, "E04", "ERYTHEMA", "ERYTHEMA", null, "ERYTHEMA", null, "HLT_0284", null, "HLGT_0192", null, "SKIN AND SUBCUTANEOUS TISSUE DISORDERS", null, "SKIN AND SUBCUTANEOUS TISSUE DISORDERS", null, "MILD", "N", "", "PROBABLE", "NOT RECOVERED/NOT RESOLVED", "N", "N", "N", "N", "N", "N", "N", "TREATMENT", "2013-03-02", "2013-02-16", "", 16.0, 2.0, null]
["CDISCPILOT01", "AE", "01-701-1188", 3.0, "E04", "ERYTHEMA", "ERYTHEMA", null, "ERYTHEMA", null, "HLT_0284", null, "HLGT_0192", null, "SKIN AND SUBCUTANEOUS TISSUE DISORDERS", null, "SKIN AND SUBCUTANEOUS TISSUE DISORDERS", null, "MODERATE", "N", "", "PROBABLE", "NOT RECOVERED/NOT RESOLVED", "N", "N", "N", "N", "N", "N", "N", "TREATMENT", "2013-03-16", "2013-02-16", "", 30.0, 2.0, null]
["CDISCPILOT01", "AE", "01-701-1188", 2.0, "E05", "PRURITUS", "ITCHING", null, "PRURITUS", null, "HLT_0778", null, "HLGT_0695", null, "SKIN AND SUBCUTANEOUS TISSUE DISORDERS", null, "SKIN AND SUBCUTANEOUS TISSUE DISORDERS", null, "MILD", "N", "", "PROBABLE", "NOT RECOVERED/NOT RESOLVED", "N", "N", "N", "N", "N", "N", "N", "TREATMENT", "2013-03-02", "2013-02-16", "", 16.0, 2.0, null]
["CDISCPILOT01", "AE", "01-701-1188", 4.0, "E05", "PRURITUS", "ITCHING", null, "PRURITUS", null, "HLT_0778", null, "HLGT_0695", null, "SKIN AND SUBCUTANEOUS TISSUE DISORDERS", null, "SKIN AND SUBCUTANEOUS TISSUE DISORDERS", null, "MODERATE", "N", "", "PROBABLE", "NOT RECOVERED/NOT RESOLVED", "N", "N", "N", "N", "N", "N", "N", "TREATMENT", "2013-03-16", "2013-02-16", "", 30.0, 2.0, null]
["CDISCPILOT01", "AE", "01-701-1188", 5.0, "E06", "URTICARIA", "WELTS", null, "URTICARIA", null, "HLT_0420", null, "HLGT_0705", null, "SKIN AND SUBCUTANEOUS TISSUE DISORDERS", null, "SKIN AND SUBCUTANEOUS TISSUE DISORDERS", null, "MILD", "N", "", "PROBABLE", "NOT RECOVERED/NOT RESOLVED", "N", "N", "N", "N", "N", "N", "N", "TREATMENT", "2013-03-16", "2013-03-04", "", 30.0, 18.0, null]
["CDISCPILOT01", "AE", "01-701-1188", 6.0, "E06", "URTICARIA", "WELTS", null, "URTICARIA", null, "HLT_0420", null, "HLGT_0705", null, "SKIN AND SUBCUTANEOUS TISSUE DISORDERS", null, "SKIN AND SUBCUTANEOUS TISSUE DISORDERS", null, "MODERATE", "N", "", "PROBABLE", "NOT RECOVERED/NOT RESOLVED", "N", "N", "N", "N", "N", "N", "N", "TREATMENT", "2013-03-25", "2013-03-04", "", 39.0, 18.0, null]
["CDISCPILOT01", "AE", "01-701-1188", 8.0, "E10", "URTICARIA", "WELTS", null, "URTICARIA", null, "HLT_0420", null, "HLGT_0705", null, "SKIN AND SUBCUTANEOUS TISSUE DISORDERS", null, "SKIN AND SUBCUTANEOUS TISSUE DISORDERS", null, "MILD", "N", "", "PROBABLE", "NOT RECOVERED/NOT RESOLVED", "N", "N", "N", "N", "N", "N", "N", "TREATMENT", "2013-03-25", "2013-03-21", "", 39.0, 35.0, null]
["CDISCPILOT01", "AE", "01-701-1192", 13.0, "E13", "APPLICATION SITE ERYTHEMA", "APPLICATION SITE REDNESS", null, "APPLICATION SITE ERYTHEMA", null, "HLT_0617", null, "HLGT_0152", null, "GENERAL DISORDERS AND ADMINISTRATION SITE CONDITIONS", null, "GENERAL DISORDERS AND ADMINISTRATION SITE CONDITIONS", null, "MILD", "N", "", "PROBABLE", "NOT RECOVERED/NOT RESOLVED", "N", "N", "N", "N", "N", "N", "N", "TREATMENT", "2012-12-13", "2012-12-05", "", 145.0, 137.0, null]
["CDISCPILOT01", "AE", "01-701-1192", 15.0, "E12", "APPLICATION SITE IRRITATION", "APPLICATION SITE BURNING", null, "APPLICATION SITE IRRITATION", null, "HLT_0061", null, "HLGT_0346", null, "GENERAL DISORDERS AND ADMINISTRATION SITE CONDITIONS", null, "GENERAL DISORDERS AND ADMINISTRATION SITE CONDITIONS", null, "MILD", "N", "", "PROBABLE", "RECOVERED/RESOLVED", "N", "N", "N", "N", "N", "N", "N", "TREATMENT", "2013-01-11", "2012-12-05", "2012-12-16", 174.0, 137.0, 148.0]
["CDISCPILOT01", "AE", "01-701-1192", 14.0, "E14", "APPLICATION SITE PRURITUS", "APPLICATION SITE ITCHING", null, "APPLICATION SITE PRURITUS", null, "HLT_0317", null, "HLGT_0338", null, "GENERAL DISORDERS AND ADMINISTRATION SITE CONDITIONS", null, "GENERAL DISORDERS AND ADMINISTRATION SITE CONDITIONS", null, "MILD", "N", "", "PROBABLE", "NOT RECOVERED/NOT RESOLVED", "N", "N", "N", "N", "N", "N", "N", "TREATMENT", "2012-12-13", "2012-12-05", "", 145.0, 137.0, null]
["CDISCPILOT01", "AE", "01-701-1192", 4.0, "E01", "COUGH", "COUGH", null, "COUGH", null, "HLT_0701", null, "HLGT_0280", null, "RESPIRATORY, THORACIC AND MEDIASTINAL DISORDERS", null, "RESPIRATORY, THORACIC AND MEDIASTINAL DISORDERS", null, "MODERATE", "N", "", "NONE", "NOT RECOVERED/NOT RESOLVED", "N", "N", "N", "N", "N", "N", "N", "SCREENING", "2012-09-23", "2010-06", "", 64.0, null, null]
["CDISCPILOT01", "AE", "01-701-1192", 9.0, "E01", "COUGH", "COUGH", null, "COUGH", null, "HLT_0701", null, "HLGT_0280", null, "RESPIRATORY, THORACIC AND MEDIASTINAL DISORDERS", null, "RESPIRATORY, THORACIC AND MEDIASTINAL DISORDERS", null, "MILD", "N", "", "NONE", "NOT RECOVERED/NOT RESOLVED", "N", "N", "N", "N", "N", "N", "N", "SCREENING", "2012-10-14", "2010-06", "", 85.0, null, null]
["CDISCPILOT01", "AE", "01-701-1192", 6.0, "E09", "ERYTHEMA", "ERYTHEMA FACIAL", null, "ERYTHEMA", null, "HLT_0284", null, "HLGT_0192", null, "SKIN AND SUBCUTANEOUS TISSUE DISORDERS", null, "SKIN AND SUBCUTANEOUS TISSUE DISORDERS", null, "MILD", "N", "", "NONE", "RECOVERED/RESOLVED", "N", "N", "N", "N", "N", "N", "N", "TREATMENT", "2012-09-23", "2012-08-07", "2012-09-14", 64.0, 17.0, 55.0]
["CDISCPILOT01", "AE", "01-701-1192", 11.0, "E11", "MUSCULAR WEAKNESS", "MUSCULAR WEAKNESS", null, "MUSCULAR WEAKNESS", null, "HLT_0444", null, "HLGT_0211", null, "MUSCULOSKELETAL AND CONNECTIVE TISSUE DISORDERS", null, "MUSCULOSKELETAL AND CONNECTIVE TISSUE DISORDERS", null, "MODERATE", "N", "", "NONE", "RECOVERED/RESOLVED", "N", "N", "N", "N", "N", "N", "N", "TREATMENT", "2012-10-14", "2012-09-07", "2012-09-30", 85.0, 48.0, 71.0]
["CDISCPILOT01", "AE", "01-701-1192", 1.0, "E06", "NASAL MUCOSA BIOPSY", "NASAL MUCOSA BIOPSY", null, "NASAL MUCOSA BIOPSY", null, "HLT_0680", null, "HLGT_0396", null, "INVESTIGATIONS", null, "INVESTIGATIONS", null, "MILD", "N", "", "NONE", "RECOVERED/RESOLVED", "N", "N", "N", "N", "N", "N", "N", "TREATMENT", "2012-08-07", "2012-08-03", "2012-08-03", 17.0, 13.0, 13.0]
["CDISCPILOT01", "AE", "01-701-1192", 10.0, "E10", "PNEUMONIA", "PNEUMONIA", null, "PNEUMONIA", null, "HLT_0251", null, "HLGT_0671", null, "INFECTIONS AND INFESTATIONS", null, "INFECTIONS AND INFESTATIONS", null, "MODERATE", "N", "", "NONE", "RECOVERED/RESOLVED", "N", "N", "N", "N", "Y", "N", "N", "TREATMENT", "2012-10-14", "2012-09-07", "2012-10-06", 85.0, 48.0, 77.0]
["CDISCPILOT01", "AE", "01-701-1192", 5.0, "E08", "SECRETION DISCHARGE", "SECRETION DISCHARGE", null, "SECRETION DISCHARGE", null, "HLT_0683", null, "HLGT_0575", null, "GENERAL DISORDERS AND ADMINISTRATION SITE CONDITIONS", null, "GENERAL DISORDERS AND ADMINISTRATION SITE CONDITIONS", null, "MILD", "N", "", "NONE", "RECOVERED/RESOLVED", "N", "N", "N", "N", "N", "N", "N", "TREATMENT", "2012-09-23", "2012-08-07", "2012-09-14", 64.0, 17.0, 55.0]
["CDISCPILOT01", "AE", "01-701-1203", 1.0, "E05", "EYE LASER SURGERY", "EYE LASER SURGERY", null, "EYE LASER SURGERY", null, "HLT_0355", null, "HLGT_0189", null, "SURGICAL AND MEDICAL PROCEDURES", null, "SURGICAL AND MEDICAL PROCEDURES", null, "MILD", "N", "", "NONE", "RECOVERED/RESOLVED", "N", "N", "N", "N", "N", "N", "N", "TREATMENT", "2013-03-30", "2013-03-21", "2013-03-21", 57.0, 48.0, 48.0]
["CDISCPILOT01", "AE", "01-701-1211", 5.0, "E05", "APPLICATION SITE ERYTHEMA", "APPLICATION SITE REDNESS", null, "APPLICATION SITE ERYTHEMA", null, "HLT_0617", null, "HLGT_0152", null, "GENERAL DISORDERS AND ADMINISTRATION SITE CONDITIONS", null, "GENERAL DISORDERS AND ADMINISTRATION SITE CONDITIONS", null, "MILD", "N", "", "POSSIBLE", "NOT RECOVERED/NOT RESOLVED", "N", "N", "N", "N", "N", "N", "N", "TREATMENT", "2012-12-11", "2012-11-29", "", 27.0, 15.0, null]
["CDISCPILOT01", "AE", "01-701-1211", 1.0, "E08", "APPLICATION SITE PRURITUS", "APPLICATION SITE ITCHING", null, "APPLICATION SITE PRURITUS", null, "HLT_0317", null, "HLGT_0338", null, "GENERAL DISORDERS AND ADMINISTRATION SITE CONDITIONS", null, "GENERAL DISORDERS AND ADMINISTRATION SITE CONDITIONS", null, "MILD", "N", "", "POSSIBLE", "NOT RECOVERED/NOT RESOLVED", "N", "N", "N", "N", "N", "N", "N", "TREATMENT", "2012-11-28", "2012-11-16", "", 14.0, 2.0, null]
["CDISCPILOT01", "AE", "01-701-1211", 7.0, "E12", "CONFUSIONAL STATE", "CONFUSION", null, "CONFUSIONAL STATE", null, "HLT_0642", null, "HLGT_0329", null, "PSYCHIATRIC DISORDERS", null, "PSYCHIATRIC DISORDERS", null, "MODERATE", "N", "", "NONE", "NOT RECOVERED/NOT RESOLVED", "N", "N", "N", "N", "N", "N", "N", "TREATMENT", "2013-01-14", "2013-01-11", "", 61.0, 58.0, null]
["CDISCPILOT01", "AE", "01-701-1211", 8.0, "E13", "DYSPNOEA", "SHORTNESS OF BREATH", null, "DYSPNOEA", null, "HLT_0296", null, "HLGT_0255", null, "RESPIRATORY, THORACIC AND MEDIASTINAL DISORDERS", null, "RESPIRATORY, THORACIC AND MEDIASTINAL DISORDERS", null, "MODERATE", "N", "", "NONE", "NOT RECOVERED/NOT RESOLVED", "N", "N", "N", "N", "N", "N", "N", "TREATMENT", "2013-01-14", "2013-01-11", "", 61.0, 58.0, null]
["CDISCPILOT01", "AE", "01-701-1211", 4.0, "E09", "INCONTINENCE", "INCONTINENCE", null, "INCONTINENCE", null, "HLT_0560", null, "HLGT_0503", null, "RENAL AND URINARY DISORDERS", null, "RENAL AND URINARY DISORDERS", null, "MILD", "N", "", "NONE", "NOT RECOVERED/NOT RESOLVED", "N", "N", "N", "N", "N", "N", "N", "TREATMENT", "2012-11-28", "2012-11-22", "", 14.0, 8.0, null]
["CDISCPILOT01", "AE", "01-701-1211", 2.0, "E03", "JOINT DISLOCATION", "SHOULDER DISLOCATION", null, "JOINT DISLOCATION", null, "HLT_0035", null, "HLGT_0227", null, "INJURY, POISONING AND PROCEDURAL COMPLICATIONS", null, "INJURY, POISONING AND PROCEDURAL COMPLICATIONS", null, "MODERATE", "N", "", "NONE", "RECOVERED/RESOLVED", "N", "N", "N", "N", "N", "N", "N", "TREATMENT", "2012-11-28", "2012-11-21", "2012-11-21", 14.0, 7.0, 7.0]
["CDISCPILOT01", "AE", "01-701-1211", 3.0, "E04", "SHOULDER PAIN", "SHOULDER PAIN", null, "SHOULDER PAIN", null, "HLT_0527", null, "HLGT_0288", null, "MUSCULOSKELETAL AND CONNECTIVE TISSUE DISORDERS", null, "MUSCULOSKELETAL AND CONNECTIVE TISSUE DISORDERS", null, "MILD", "N", "", "NONE", "NOT RECOVERED/NOT RESOLVED", "N", "N", "N", "N", "N", "N", "N", "TREATMENT", "2012-11-28", "2012-11-21", "", 14.0, 7.0, null]
["CDISCPILOT01", "AE", "01-701-1211", 6.0, "E06", "SKIN LACERATION", "LACERATION OF FACE", null, "SKIN LACERATION", null, "HLT_0075", null, "HLGT_0118", null, "INJURY, POISONING AND PROCEDURAL COMPLICATIONS", null, "INJURY, POISONING AND PROCEDURAL COMPLICATIONS", null, "MILD", "N", "", "NONE", "NOT RECOVERED/NOT RESOLVED", "N", "N", "N", "N", "N", "N", "N", "TREATMENT", "2012-12-11", "2012-12-09", "", 27.0, 25.0, null]
["CDISCPILOT01", "AE", "01-701-1211", 9.0, "E11", "SUDDEN DEATH", "SUDDEN DEATH", null, "SUDDEN DEATH", null, "HLT_0142", null, "HLGT_0272", null, "GENERAL DISORDERS AND ADMINISTRATION SITE CONDITIONS", null, "GENERAL DISORDERS AND ADMINISTRATION SITE CONDITIONS", null, "SEVERE", "N", "", "NONE", "FATAL", "N", "N", "N", "Y", "N", "Y", "N", "TREATMENT", "2013-01-14", "2013-01-14", "2013-01-14", 61.0, 61.0, 61.0]
["CDISCPILOT01", "AE", "01-701-1239", 5.0, "E13", "APPLICATION SITE IRRITATION", "APPLICATION SITE IRRITATION", null, "APPLICATION SITE IRRITATION", null, "HLT_0061", null, "HLGT_0346", null, "GENERAL DISORDERS AND ADMINISTRATION SITE CONDITIONS", null, "GENERAL DISORDERS AND ADMINISTRATION SITE CONDITIONS", null, "MILD", "N", "", "PROBABLE", "RECOVERED/RESOLVED", "N", "N", "N", "N", "N", "N", "N", "TREATMENT", "2014-02-10", "2014-01-20", "2014-02-08", 31.0, 10.0, 29.0]
["CDISCPILOT01", "AE", "01-701-1239", 1.0, "E11", "ERYTHEMA", "ERYTHEMA", null, "ERYTHEMA", null, "HLT_0284", null, "HLGT_0192", null, "SKIN AND SUBCUTANEOUS TISSUE DISORDERS", null, "SKIN AND SUBCUTANEOUS TISSUE DISORDERS", null, "MILD", "N", "", "POSSIBLE", "NOT RECOVERED/NOT RESOLVED", "N", "N", "N", "N", "N", "N", "N", "TREATMENT", "2014-01-25", "2014-01-12", "", 15.0, 2.0, null]
["CDISCPILOT01", "AE", "01-701-1239", 6.0, "E11", "ERYTHEMA", "ERYTHEMA", null, "ERYTHEMA", null, "HLT_0284", null, "HLGT_0192", null, "SKIN AND SUBCUTANEOUS TISSUE DISORDERS", null, "SKIN AND SUBCUTANEOUS TISSUE DISORDERS", null, "MODERATE", "N", "", "POSSIBLE", "NOT RECOVERED/NOT RESOLVED", "N", "N", "N", "N", "N", "N", "N", "TREATMENT", "2014-02-19", "2014-01-12", "", 40.0, 2.0, null]
["CDISCPILOT01", "AE", "01-701-1239", 9.0, "E16", "FATIGUE", "FATIGUE", null, "FATIGUE", null, "HLT_0043", null, "HLGT_0181", null, "GENERAL DISORDERS AND ADMINISTRATION SITE CONDITIONS", null, "GENERAL DISORDERS AND ADMINISTRATION SITE CONDITIONS", null, "MILD", "N", "", "REMOTE", "NOT RECOVERED/NOT RESOLVED", "N", "N", "N", "N", "N", "N", "N", "SCREENING", "2014-04-02", "2014-03", "", 82.0, null, null]
["CDISCPILOT01", "AE", "01-701-1239", 10.0, "E17", "HORDEOLUM", "STYE", null, "HORDEOLUM", null, "HLT_0604", null, "HLGT_0290", null, "INFECTIONS AND INFESTATIONS", null, "INFECTIONS AND INFESTATIONS", null, "MILD", "N", "", "NONE", "NOT RECOVERED/NOT RESOLVED", "N", "N", "N", "N", "N", "N", "N", "SCREENING", "2014-05-02", "2014-04", "", 112.0, null, null]
["CDISCPILOT01", "AE", "01-701-1239", 3.0, "E12", "PRURITUS", "ITCHING", null, "PRURITUS", null, "HLT_0778", null, "HLGT_0695", null, "SKIN AND SUBCUTANEOUS TISSUE DISORDERS", null, "SKIN AND SUBCUTANEOUS TISSUE DISORDERS", null, "MILD", "N", "", "POSSIBLE", "NOT RECOVERED/NOT RESOLVED", "N", "N", "N", "N", "N", "N", "N", "TREATMENT", "2014-01-25", "2014-01-13", "", 15.0, 3.0, null]
["CDISCPILOT01", "AE", "01-701-1239", 2.0, "E15", "SKIN ODOUR ABNORMAL", "SKIN ODOR ABNORMAL", null, "SKIN ODOUR ABNORMAL", null, "HLT_0510", null, "HLGT_0184", null, "SKIN AND SUBCUTANEOUS TISSUE DISORDERS", null, "SKIN AND SUBCUTANEOUS TISSUE DISORDERS", null, "MILD", "N", "", "REMOTE", "NOT RECOVERED/NOT RESOLVED", "N", "N", "N", "N", "N", "N", "N", "TREATMENT", "2014-01-25", "2014-01-12", "", 15.0, 2.0, null]
["CDISCPILOT01", "AE", "01-701-1239", 8.0, "E14", "UPPER RESPIRATORY TRACT INFECTION", "UPPER RESPIRATORY INFECTION", null, "UPPER RESPIRATORY TRACT INFECTION", null, "HLT_0520", null, "HLGT_0489", null, "INFECTIONS AND INFESTATIONS", null, "INFECTIONS AND INFESTATIONS", null, "MILD", "N", "", "NONE", "RECOVERED/RESOLVED", "N", "N", "N", "N", "N", "N", "N", "TREATMENT", "2014-04-02", "2014-02-20", "2014-03-12", 82.0, 41.0, 61.0]
["CDISCPILOT01", "AE", "01-701-1275", 9.0, "E09", "COUGH", "COUGH", null, "COUGH", null, "HLT_0701", null, "HLGT_0280", null, "RESPIRATORY, THORACIC AND MEDIASTINAL DISORDERS", null, "RESPIRATORY, THORACIC AND MEDIASTINAL DISORDERS", null, "MILD", "N", "", "NONE", "RECOVERED/RESOLVED", "N", "N", "N", "N", "N", "N", "N", "TREATMENT", "2014-04-05", "2014-03-12", "2014-03-27", 58.0, 34.0, 49.0]
["CDISCPILOT01", "AE", "01-701-1275", 12.0, "E06", "ERYTHEMA", "ERYTHEMA", null, "ERYTHEMA", null, "HLT_0284", null, "HLGT_0192", null, "SKIN AND SUBCUTANEOUS TISSUE DISORDERS", null, "SKIN AND SUBCUTANEOUS TISSUE DISORDERS", null, "MILD", "N", "", "POSSIBLE", "RECOVERED/RESOLVED", "N", "N", "N", "N", "N", "N", "N", "TREATMENT", "2014-06-14", "2014-02-24", "2014-06-12", 128.0, 18.0, 126.0]
["CDISCPILOT01", "AE", "01-701-1275", 10.0, "E10", "NASAL CONGESTION", "NASAL CONGESTION", null, "NASAL CONGESTION", null, "HLT_0118", null, "HLGT_0549", null, "RESPIRATORY, THORACIC AND MEDIASTINAL DISORDERS", null, "RESPIRATORY, THORACIC AND MEDIASTINAL DISORDERS", null, "MILD", "N", "", "NONE", "RECOVERED/RESOLVED", "N", "N", "N", "N", "N", "N", "N", "TREATMENT", "2014-04-05", "2014-03-12", "2014-03-27", 58.0, 34.0, 49.0]
["CDISCPILOT01", "AE", "01-701-1275", 11.0, "E04", "NAUSEA", "NAUSEA", null, "NAUSEA", null, "HLT_0742", null, "HLGT_0326", null, "GASTROINTESTINAL DISORDERS", null, "GASTROINTESTINAL DISORDERS", null, "MILD", "N", "", "POSSIBLE", "RECOVERED/RESOLVED", "N", "N", "N", "N", "N", "N", "N", "TREATMENT", "2014-06-14", "2014-02-13", "2014-06-03", 128.0, 7.0, 117.0]
["CDISCPILOT01", "AE", "01-701-1275", 14.0, "E08", "PAROSMIA", "STRANGE SMELL SENSATION", null, "PAROSMIA", null, "HLT_0258", null, "HLGT_0471", null, "NERVOUS SYSTEM DISORDERS", null, "NERVOUS SYSTEM DISORDERS", null, "MILD", "N", "", "POSSIBLE", "RECOVERED/RESOLVED", "N", "N", "N", "N", "N", "N", "N", "TREATMENT", "2014-06-14", "2014-02-24", "2014-06-03", 128.0, 18.0, 117.0]
["CDISCPILOT01", "AE", "01-701-1275", 15.0, "E11", "PRURITUS", "ITCHING", null, "PRURITUS", null, "HLT_0778", null, "HLGT_0695", null, "SKIN AND SUBCUTANEOUS TISSUE DISORDERS", null, "SKIN AND SUBCUTANEOUS TISSUE DISORDERS", null, "MILD", "N", "", "POSSIBLE", "RECOVERED/RESOLVED", "N", "N", "N", "N", "N", "N", "N", "TREATMENT", "2014-06-14", "2014-02-24", "2014-06-12", 128.0, 18.0, 126.0]
["CDISCPILOT01", "AE", "01-701-1275", 13.0, "E07", "SALIVARY HYPERSECRETION", "HYPERSALIVATION", null, "SALIVARY HYPERSECRETION", null, "HLT_0374", null, "HLGT_0488", null, "GASTROINTESTINAL DISORDERS", null, "GASTROINTESTINAL DISORDERS", null, "MILD", "N", "", "POSSIBLE", "RECOVERED/RESOLVED", "N", "N", "N", "N", "N", "N", "N", "TREATMENT", "2014-06-14", "2014-02-24", "2014-06-03", 128.0, 18.0, 117.0]
["CDISCPILOT01", "AE", "01-701-1275", 2.0, "E05", "VOMITING", "VOMITING", null, "VOMITING", null, "HLT_0016", null, "HLGT_0350", null, "GASTROINTESTINAL DISORDERS", null, "GASTROINTESTINAL DISORDERS", null, "MILD", "N", "", "POSSIBLE", "RECOVERED/RESOLVED", "N", "N", "N", "N", "N", "N", "N", "TREATMENT", "2014-03-07", "2014-02-23", "2014-02-23", 29.0, 17.0, 17.0]
["CDISCPILOT01", "AE", "01-701-1287", 3.0, "E04", "APPLICATION SITE ERYTHEMA", "APPLICATION SITE REDNESS", null, "APPLICATION SITE ERYTHEMA", null, "HLT_0617", null, "HLGT_0152", null, "GENERAL DISORDERS AND ADMINISTRATION SITE CONDITIONS", null, "GENERAL DISORDERS AND ADMINISTRATION SITE CONDITIONS", null, "MILD", "N", "", "PROBABLE", "NOT RECOVERED/NOT RESOLVED", "N", "N", "N", "N", "N", "N", "N", "TREATMENT", "2014-03-21", "2014-03-09", "", 56.0, 44.0, null]
["CDISCPILOT01", "AE", "01-701-1287", 2.0, "E03", "APPLICATION SITE PRURITUS", "APPLICATION SITE ITCHING", null, "APPLICATION SITE PRURITUS", null, "HLT_0317", null, "HLGT_0338", null, "GENERAL DISORDERS AND ADMINISTRATION SITE CONDITIONS", null, "GENERAL DISORDERS AND ADMINISTRATION SITE CONDITIONS", null, "MILD", "N", "", "POSSIBLE", "NOT RECOVERED/NOT RESOLVED", "N", "N", "N", "N", "N", "N", "N", "TREATMENT", "2014-03-06", "2014-02-22", "", 41.0, 29.0, null]
["CDISCPILOT01", "AE", "01-701-1287", 5.0, "E05", "RHINORRHOEA", "RUNNY NOSE", null, "RHINORRHOEA", null, "HLT_0635", null, "HLGT_0460", null, "RESPIRATORY, THORACIC AND MEDIASTINAL DISORDERS", null, "RESPIRATORY, THORACIC AND MEDIASTINAL DISORDERS", null, "MILD", "N", "", "NONE", "RECOVERED/RESOLVED", "N", "N", "N", "N", "N", "N", "N", "TREATMENT", "2014-07-26", "2014-07-09", "2014-07-12", 183.0, 166.0, 169.0]
["CDISCPILOT01", "AE", "01-701-1287", 1.0, "E02", "SALIVARY HYPERSECRETION", "INCREASED SALIVATION", null, "SALIVARY HYPERSECRETION", null, "HLT_0374", null, "HLGT_0488", null, "GASTROINTESTINAL DISORDERS", null, "GASTROINTESTINAL DISORDERS", null, "MILD", "N", "", "NONE", "NOT RECOVERED/NOT RESOLVED", "N", "N", "N", "N", "N", "N", "N", "TREATMENT", "2014-02-11", "2014-01-26", "", 18.0, 2.0, null]
["CDISCPILOT01", "AE", "01-701-1294", 3.0, "E08", "APPLICATION SITE ERYTHEMA", "APPLICATION SITE REDNESS", null, "APPLICATION SITE ERYTHEMA", null, "HLT_0617", null, "HLGT_0152", null, "GENERAL DISORDERS AND ADMINISTRATION SITE CONDITIONS", null, "GENERAL DISORDERS AND ADMINISTRATION SITE CONDITIONS", null, "MILD", "N", "", "PROBABLE", "NOT RECOVERED/NOT RESOLVED", "N", "N", "N", "N", "N", "N", "N", "TREATMENT", "2013-05-22", "2013-05-19", "", 60.0, 57.0, null]
["CDISCPILOT01", "AE", "01-701-1294", 5.0, "E08", "APPLICATION SITE ERYTHEMA", "APPLICATION SITE REDNESS", null, "APPLICATION SITE ERYTHEMA", null, "HLT_0617", null, "HLGT_0152", null, "GENERAL DISORDERS AND ADMINISTRATION SITE CONDITIONS", null, "GENERAL DISORDERS AND ADMINISTRATION SITE CONDITIONS", null, "MODERATE", "N", "", "PROBABLE", "NOT RECOVERED/NOT RESOLVED", "N", "N", "N", "N", "N", "N", "N", "TREATMENT", "2013-06-14", "2013-05-19", "", 83.0, 57.0, null]
["CDISCPILOT01", "AE", "01-701-1294", 1.0, "E06", "APPLICATION SITE PRURITUS", "APPLICATION SITE ITCHING", null, "APPLICATION SITE PRURITUS", null, "HLT_0317", null, "HLGT_0338", null, "GENERAL DISORDERS AND ADMINISTRATION SITE CONDITIONS", null, "GENERAL DISORDERS AND ADMINISTRATION SITE CONDITIONS", null, "MODERATE", "N", "", "NONE", "RECOVERED/RESOLVED", "N", "N", "N", "N", "N", "N", "N", "SCREENING", "2013-03-24", "2013-03-22", "2013-03-23", 1.0, -2.0, -1.0]
["CDISCPILOT01", "AE", "01-701-1294", 2.0, "E07", "APPLICATION SITE PRURITUS", "APPLICATION SITE ITCHING", null, "APPLICATION SITE PRURITUS", null, "HLT_0317", null, "HLGT_0338", null, "GENERAL DISORDERS AND ADMINISTRATION SITE CONDITIONS", null, "GENERAL DISORDERS AND ADMINISTRATION SITE CONDITIONS", null, "MILD", "N", "", "POSSIBLE", "NOT RECOVERED/NOT RESOLVED", "N", "N", "N", "N", "N", "N", "N", "TREATMENT", "2013-05-22", "2013-05-19", "", 60.0, 57.0, null]
["CDISCPILOT01", "AE", "01-701-1294", 4.0, "E07", "APPLICATION SITE PRURITUS", "APPLICATION SITE ITCHING", null, "APPLICATION SITE PRURITUS", null, "HLT_0317", null, "HLGT_0338", null, "GENERAL DISORDERS AND ADMINISTRATION SITE CONDITIONS", null, "GENERAL DISORDERS AND ADMINISTRATION SITE CONDITIONS", null, "MODERATE", "N", "", "POSSIBLE", "NOT RECOVERED/NOT RESOLVED", "N", "N", "N", "N", "N", "N", "N", "TREATMENT", "2013-06-14", "2013-05-19", "", 83.0, 57.0, null]
["CDISCPILOT01", "AE", "01-701-1294", 6.0, "E09", "RASH ERYTHEMATOUS", "ERYTHEMATOUS RASH", null, "RASH ERYTHEMATOUS", null, "HLT_0336", null, "HLGT_0701", null, "SKIN AND SUBCUTANEOUS TISSUE DISORDERS", null, "SKIN AND SUBCUTANEOUS TISSUE DISORDERS", null, "MODERATE", "N", "", "PROBABLE", "NOT RECOVERED/NOT RESOLVED", "N", "N", "N", "N", "N", "N", "N", "TREATMENT", "2013-06-14", "2013-06-10", "", 83.0, 79.0, null]
["CDISCPILOT01", "AE", "01-701-1302", 16.0, "E27", "APPLICATION SITE ERYTHEMA", "APPLICATION SITE REDNESS", null, "APPLICATION SITE ERYTHEMA", null, "HLT_0617", null, "HLGT_0152", null, "GENERAL DISORDERS AND ADMINISTRATION SITE CONDITIONS", null, "GENERAL DISORDERS AND ADMINISTRATION SITE CONDITIONS", null, "MILD", "N", "", "PROBABLE", "NOT RECOVERED/NOT RESOLVED", "N", "N", "N", "N", "N", "N", "N", "TREATMENT", "2013-10-22", "2013-10-15", "", 55.0, 48.0, null]
["CDISCPILOT01", "AE", "01-701-1302", 1.0, "E21", "APPLICATION SITE PERSPIRATION", "APPLICATION SITE PERSPIRATION", null, "APPLICATION SITE PERSPIRATION", null, "HLT_0283", null, "HLGT_0403", null, "GENERAL DISORDERS AND ADMINISTRATION SITE CONDITIONS", null, "GENERAL DISORDERS AND ADMINISTRATION SITE CONDITIONS", null, "MILD", "N", "", "POSSIBLE", "NOT RECOVERED/NOT RESOLVED", "N", "N", "N", "N", "N", "N", "N", "TREATMENT", "2013-09-15", "2013-08-30", "", 18.0, 2.0, null]
["CDISCPILOT01", "AE", "01-701-1302", 17.0, "E28", "APPLICATION SITE PRURITUS", "APPLICATION SITE ITCHING", null, "APPLICATION SITE PRURITUS", null, "HLT_0317", null, "HLGT_0338", null, "GENERAL DISORDERS AND ADMINISTRATION SITE CONDITIONS", null, "GENERAL DISORDERS AND ADMINISTRATION SITE CONDITIONS", null, "MILD", "N", "", "PROBABLE", "NOT RECOVERED/NOT RESOLVED", "N", "N", "N", "N", "N", "N", "N", "TREATMENT", "2013-10-22", "2013-10-15", "", 55.0, 48.0, null]
["CDISCPILOT01", "AE", "01-701-1302", 15.0, "E19", "CONTUSION", "BRUISE", null, "CONTUSION", null, "HLT_0713", null, "HLGT_0381", null, "INJURY, POISONING AND PROCEDURAL COMPLICATIONS", null, "INJURY, POISONING AND PROCEDURAL COMPLICATIONS", null, "MILD", "N", "", "REMOTE", "RECOVERED/RESOLVED", "N", "N", "N", "N", "N", "N", "N", "TREATMENT", "2013-10-22", "2013-09-05", "2013-10-08", 55.0, 8.0, 41.0]
["CDISCPILOT01", "AE", "01-701-1302", 9.0, "E17", "DIZZINESS", "DIZZY", null, "DIZZINESS", null, "HLT_0619", null, "HLGT_0751", null, "NERVOUS SYSTEM DISORDERS", null, "NERVOUS SYSTEM DISORDERS", null, "MODERATE", "N", "", "REMOTE", "RECOVERED/RESOLVED", "N", "N", "N", "N", "N", "N", "N", "TREATMENT", "2013-09-15", "2013-09-02", "2013-09-03", 18.0, 5.0, 6.0]
["CDISCPILOT01", "AE", "01-701-1302", 11.0, "E20", "DIZZINESS", "LIGHTHEADEDNESS", null, "DIZZINESS", null, "HLT_0619", null, "HLGT_0751", null, "NERVOUS SYSTEM DISORDERS", null, "NERVOUS SYSTEM DISORDERS", null, "MILD", "N", "", "POSSIBLE", "NOT RECOVERED/NOT RESOLVED", "N", "N", "N", "N", "N", "N", "N", "TREATMENT", "2013-09-15", "2013-09-04", "", 18.0, 7.0, null]
["CDISCPILOT01", "AE", "01-701-1302", 14.0, "E25", "EPISTAXIS", "NOSE BLEED", null, "EPISTAXIS", null, "HLT_0386", null, "HLGT_0577", null, "RESPIRATORY, THORACIC AND MEDIASTINAL DISORDERS", null, "RESPIRATORY, THORACIC AND MEDIASTINAL DISORDERS", null, "MILD", "N", "", "REMOTE", "NOT RECOVERED/NOT RESOLVED", "N", "N", "N", "N", "N", "N", "N", "TREATMENT", "2013-10-08", "2013-09-30", "", 41.0, 33.0, null]
["CDISCPILOT01", "AE", "01-701-1302", 21.0, "E31", "FEELING ABNORMAL", "FOGGY FEELING IN HEAD", null, "FEELING ABNORMAL", null, "HLT_0524", null, "HLGT_0749", null, "GENERAL DISORDERS AND ADMINISTRATION SITE CONDITIONS", null, "GENERAL DISORDERS AND ADMINISTRATION SITE CONDITIONS", null, "MILD", "N", "", "POSSIBLE", "NOT RECOVERED/NOT RESOLVED", "N", "N", "N", "N", "N", "N", "N", "TREATMENT", "2013-11-05", "2013-10-24", "", 69.0, 57.0, null]
["CDISCPILOT01", "AE", "01-701-1302", 13.0, "E23", "HEADACHE", "HEADACHE", null, "HEADACHE", null, "HLT_0064", null, "HLGT_0344", null, "NERVOUS SYSTEM DISORDERS", null, "NERVOUS SYSTEM DISORDERS", null, "MILD", "N", "", "NONE", "NOT RECOVERED/NOT RESOLVED", "N", "N", "N", "N", "N", "N", "N", "TREATMENT", "2013-09-15", "2013-09-15", "", 18.0, 18.0, null]
["CDISCPILOT01", "AE", "01-701-1302", 2.0, "E24", "HYPERHIDROSIS", "PERSPIRATION EXCESSIVE", null, "HYPERHIDROSIS", null, "HLT_0587", null, "HLGT_0005", null, "SKIN AND SUBCUTANEOUS TISSUE DISORDERS", null, "SKIN AND SUBCUTANEOUS TISSUE DISORDERS", null, "MILD", "N", "", "POSSIBLE", "NOT RECOVERED/NOT RESOLVED", "N", "N", "N", "N", "N", "N", "N", "TREATMENT", "2013-09-15", "2013-08-30", "", 18.0, 2.0, null]
["CDISCPILOT01", "AE", "01-701-1302", 23.0, "E33", "LIBIDO DECREASED", "LIBIDO DECREASED", null, "LIBIDO DECREASED", null, "HLT_0338", null, "HLGT_0496", null, "PSYCHIATRIC DISORDERS", null, "PSYCHIATRIC DISORDERS", null, "MILD", "N", "", "POSSIBLE", "NOT RECOVERED/NOT RESOLVED", "N", "N", "N", "N", "N", "N", "N", "TREATMENT", "2013-11-05", "2013-10-24", "", 69.0, 57.0, null]
["CDISCPILOT01", "AE", "01-701-1302", 22.0, "E32", "LISTLESS", "LISTLESSNESS", null, "LISTLESS", null, "HLT_0657", null, "HLGT_0124", null, "PSYCHIATRIC DISORDERS", null, "PSYCHIATRIC DISORDERS", null, "MILD", "N", "", "POSSIBLE", "NOT RECOVERED/NOT RESOLVED", "N", "N", "N", "N", "N", "N", "N", "TREATMENT", "2013-11-05", "2013-10-24", "", 69.0, 57.0, null]
["CDISCPILOT01", "AE", "01-701-1302", 8.0, "E16", "MALAISE", "MALAISE", null, "MALAISE", null, "HLT_0456", null, "HLGT_0178", null, "GENERAL DISORDERS AND ADMINISTRATION SITE CONDITIONS", null, "GENERAL DISORDERS AND ADMINISTRATION SITE CONDITIONS", null, "MILD", "N", "", "REMOTE", "NOT RECOVERED/NOT RESOLVED", "N", "N", "N", "N", "N", "N", "N", "TREATMENT", "2013-09-15", "2013-09-02", "", 18.0, 5.0, null]
["CDISCPILOT01", "AE", "01-701-1302", 18.0, "E16", "MALAISE", "MALAISE", null, "MALAISE", null, "HLT_0456", null, "HLGT_0178", null, "GENERAL DISORDERS AND ADMINISTRATION SITE CONDITIONS", null, "GENERAL DISORDERS AND ADMINISTRATION SITE CONDITIONS", null, "MODERATE", "N", "", "REMOTE", "NOT RECOVERED/NOT RESOLVED", "N", "N", "N", "N", "N", "N", "N", "TREATMENT", "2013-11-05", "2013-09-02", "", 69.0, 5.0, null]
["CDISCPILOT01", "AE", "01-701-1302", 10.0, "E18", "MYALGIA", "MYALGIA", null, "MYALGIA", null, "HLT_0700", null, "HLGT_0121", null, "MUSCULOSKELETAL AND CONNECTIVE TISSUE DISORDERS", null, "MUSCULOSKELETAL AND CONNECTIVE TISSUE DISORDERS", null, "MILD", "N", "", "POSSIBLE", "NOT RECOVERED/NOT RESOLVED", "N", "N", "N", "N", "N", "N", "N", "TREATMENT", "2013-09-15", "2013-09-02", "", 18.0, 5.0, null]
["CDISCPILOT01", "AE", "01-701-1302", 5.0, "E13", "NASAL CONGESTION", "NASAL CONGESTION", null, "NASAL CONGESTION", null, "HLT_0118", null, "HLGT_0549", null, "RESPIRATORY, THORACIC AND MEDIASTINAL DISORDERS", null, "RESPIRATORY, THORACIC AND MEDIASTINAL DISORDERS", null, "MILD", "N", "", "NONE", "NOT RECOVERED/NOT RESOLVED", "N", "N", "N", "N", "N", "N", "N", "TREATMENT", "2013-09-15", "2013-09-01", "", 18.0, 4.0, null]
["CDISCPILOT01", "AE", "01-701-1302", 4.0, "E22", "PAIN", "STINGING", null, "PAIN", null, "HLT_0314", null, "HLGT_0478", null, "GENERAL DISORDERS AND ADMINISTRATION SITE CONDITIONS", null, "GENERAL DISORDERS AND ADMINISTRATION SITE CONDITIONS", null, "MILD", "N", "", "POSSIBLE", "NOT RECOVERED/NOT RESOLVED", "N", "N", "N", "N", "N", "N", "N", "TREATMENT", "2013-09-15", "2013-08-31", "", 18.0, 3.0, null]
["CDISCPILOT01", "AE", "01-701-1302", 6.0, "E14", "PHARYNGOLARYNGEAL PAIN", "SORE THROAT", null, "PHARYNGOLARYNGEAL PAIN", null, "HLT_0130", null, "HLGT_0402", null, "RESPIRATORY, THORACIC AND MEDIASTINAL DISORDERS", null, "RESPIRATORY, THORACIC AND MEDIASTINAL DISORDERS", null, "MILD", "N", "", "NONE", "NOT RECOVERED/NOT RESOLVED", "N", "N", "N", "N", "N", "N", "N", "TREATMENT", "2013-09-15", "2013-09-02", "", 18.0, 5.0, null]
["CDISCPILOT01", "AE", "01-701-1302", 7.0, "E15", "PRODUCTIVE COUGH", "PRODUCTIVE COUGH", null, "PRODUCTIVE COUGH", null, "HLT_0545", null, "HLGT_0681", null, "RESPIRATORY, THORACIC AND MEDIASTINAL DISORDERS", null, "RESPIRATORY, THORACIC AND MEDIASTINAL DISORDERS", null, "MILD", "N", "", "NONE", "NOT RECOVERED/NOT RESOLVED", "N", "N", "N", "N", "N", "N", "N", "TREATMENT", "2013-09-15", "2013-09-02", "", 18.0, 5.0, null]
["CDISCPILOT01", "AE", "01-701-1302", 19.0, "E29", "RESPIRATORY TRACT CONGESTION", "RESPIRATORY TRACT CONGESTION", null, "RESPIRATORY TRACT CONGESTION", null, "HLT_0330", null, "HLGT_0424", null, "RESPIRATORY, THORACIC AND MEDIASTINAL DISORDERS", null, "RESPIRATORY, THORACIC AND MEDIASTINAL DISORDERS", null, "MILD", "N", "", "NONE", "NOT RECOVERED/NOT RESOLVED", "N", "N", "N", "N", "N", "N", "N", "TREATMENT", "2013-11-05", "2013-10-23", "", 69.0, 56.0, null]
["CDISCPILOT01", "AE", "01-701-1302", 20.0, "E30", "RHINITIS", "CORYZA", null, "RHINITIS", null, "HLT_0239", null, "HLGT_0322", null, "INFECTIONS AND INFESTATIONS", null, "INFECTIONS AND INFESTATIONS", null, "MILD", "N", "", "NONE", "NOT RECOVERED/NOT RESOLVED", "N", "N", "N", "N", "N", "N", "N", "TREATMENT", "2013-11-05", "2013-10-23", "", 69.0, 56.0, null]
["CDISCPILOT01", "AE", "01-701-1302", 3.0, "E26", "STOMACH DISCOMFORT", "STOMACH UPSET", null, "STOMACH DISCOMFORT", null, "HLT_0065", null, "HLGT_0183", null, "GASTROINTESTINAL DISORDERS", null, "GASTROINTESTINAL DISORDERS", null, "MILD", "N", "", "POSSIBLE", "NOT RECOVERED/NOT RESOLVED", "N", "N", "N", "N", "N", "N", "N", "TREATMENT", "2013-09-15", "2013-08-30", "", 18.0, 2.0, null]
["CDISCPILOT01", "AE", "01-701-1317", 3.0, "E13", "APPLICATION SITE ERYTHEMA", "APPLICATION SITE REDNESS", null, "APPLICATION SITE ERYTHEMA", null, "HLT_0617", null, "HLGT_0152", null, "GENERAL DISORDERS AND ADMINISTRATION SITE CONDITIONS", null, "GENERAL DISORDERS AND ADMINISTRATION SITE CONDITIONS", null, "MILD", "N", "", "POSSIBLE", "NOT RECOVERED/NOT RESOLVED", "N", "N", "N", "N", "N", "N", "N", "TREATMENT", "2014-07-03", "2014-06-23", "", 43.0, 33.0, null]
["CDISCPILOT01", "AE", "01-701-1317", 4.0, "E14", "APPLICATION SITE PRURITUS", "APPLICATION SITE ITCHING", null, "APPLICATION SITE PRURITUS", null, "HLT_0317", null, "HLGT_0338", null, "GENERAL DISORDERS AND ADMINISTRATION SITE CONDITIONS", null, "GENERAL DISORDERS AND ADMINISTRATION SITE CONDITIONS", null, "MILD", "N", "", "POSSIBLE", "NOT RECOVERED/NOT RESOLVED", "N", "N", "N", "N", "N", "N", "N", "TREATMENT", "2014-07-03", "2014-06-23", "", 43.0, 33.0, null]
["CDISCPILOT01", "AE", "01-701-1317", 5.0, "E15", "APPLICATION SITE URTICARIA", "APPLICATION SITE URTICARIA", null, "APPLICATION SITE URTICARIA", null, "HLT_0196", null, "HLGT_0233", null, "GENERAL DISORDERS AND ADMINISTRATION SITE CONDITIONS", null, "GENERAL DISORDERS AND ADMINISTRATION SITE CONDITIONS", null, "MILD", "N", "", "POSSIBLE", "NOT RECOVERED/NOT RESOLVED", "N", "N", "N", "N", "N", "N", "N", "TREATMENT", "2014-07-03", "2014-06-23", "", 43.0, 33.0, null]
["CDISCPILOT01", "AE", "01-701-1317", 2.0, "E12", "CYST", "CYST", null, "CYST", null, "HLT_0763", null, "HLGT_0341", null, "GENERAL DISORDERS AND ADMINISTRATION SITE CONDITIONS", null, "GENERAL DISORDERS AND ADMINISTRATION SITE CONDITIONS", null, "MILD", "N", "", "NONE", "NOT RECOVERED/NOT RESOLVED", "N", "N", "N", "N", "N", "N", "N", "SCREENING", "2014-05-20", "2014-05-13", "", -2.0, -9.0, null]
["CDISCPILOT01", "AE", "01-701-1317", 6.0, "E16", "DEPRESSED MOOD", "DEPRESSED MOOD", null, "DEPRESSED MOOD", null, "HLT_0784", null, "HLGT_0122", null, "PSYCHIATRIC DISORDERS", null, "PSYCHIATRIC DISORDERS", null, "MILD", "N", "", "POSSIBLE", "NOT RECOVERED/NOT RESOLVED", "N", "N", "N", "N", "N", "N", "N", "TREATMENT", "2014-07-22", "2014-07-04", "", 62.0, 44.0, null]
["CDISCPILOT01", "AE", "01-701-1317", 7.0, "E16", "DEPRESSED MOOD", "DEPRESSED MOOD", null, "DEPRESSED MOOD", null, "HLT_0784", null, "HLGT_0122", null, "PSYCHIATRIC DISORDERS", null, "PSYCHIATRIC DISORDERS", null, "MODERATE", "N", "", "POSSIBLE", "NOT RECOVERED/NOT RESOLVED", "N", "N", "N", "N", "N", "N", "N", "TREATMENT", "2014-10-09", "2014-07-04", "", 141.0, 44.0, null]
["CDISCPILOT01", "AE", "01-701-1317", 9.0, "E18", "DYSPHONIA", "HOARSENESS", null, "DYSPHONIA", null, "HLT_0073", null, "HLGT_0274", null, "RESPIRATORY, THORACIC AND MEDIASTINAL DISORDERS", null, "RESPIRATORY, THORACIC AND MEDIASTINAL DISORDERS", null, "MILD", "N", "", "REMOTE", "NOT RECOVERED/NOT RESOLVED", "N", "N", "N", "N", "N", "N", "N", "TREATMENT", "2014-11-06", "2014-11-03", "", 169.0, 166.0, null]
["CDISCPILOT01", "AE", "01-701-1317", 8.0, "E17", "FATIGUE", "TIREDNESS", null, "FATIGUE", null, "HLT_0043", null, "HLGT_0181", null, "GENERAL DISORDERS AND ADMINISTRATION SITE CONDITIONS", null, "GENERAL DISORDERS AND ADMINISTRATION SITE CONDITIONS", null, "MILD", "N", "", "REMOTE", "NOT RECOVERED/NOT RESOLVED", "N", "N", "N", "N", "N", "N", "N", "TREATMENT", "2014-10-09", "2014-09-12", "", 141.0, 114.0, null]
["CDISCPILOT01", "AE", "01-701-1317", 1.0, "E11", "ONYCHOMYCOSIS", "ONYCHOMYCOSIS", null, "ONYCHOMYCOSIS", null, "HLT_0275", null, "HLGT_0243", null, "INFECTIONS AND INFESTATIONS", null, "INFECTIONS AND INFESTATIONS", null, "MILD", "N", "", "NONE", "NOT RECOVERED/NOT RESOLVED", "N", "N", "N", "N", "N", "N", "N", "SCREENING", "2014-05-20", "2014-05-13", "", -2.0, -9.0, null]
["CDISCPILOT01", "AE", "01-701-1324", 1.0, "E04", "APPLICATION SITE ERYTHEMA", "APPLICATION SITE ERYTHEMA", null, "APPLICATION SITE ERYTHEMA", null, "HLT_0617", null, "HLGT_0152", null, "GENERAL DISORDERS AND ADMINISTRATION SITE CONDITIONS", null, "GENERAL DISORDERS AND ADMINISTRATION SITE CONDITIONS", null, "MILD", "N", "", "PROBABLE", "NOT RECOVERED/NOT RESOLVED", "N", "N", "N", "N", "N", "N", "N", "TREATMENT", "2012-10-30", "2012-10-22", "", 29.0, 21.0, null]
["CDISCPILOT01", "AE", "01-701-1324", 2.0, "E06", "APPLICATION SITE PRURITUS", "APPLICATION SITE ITCHING", null, "APPLICATION SITE PRURITUS", null, "HLT_0317", null, "HLGT_0338", null, "GENERAL DISORDERS AND ADMINISTRATION SITE CONDITIONS", null, "GENERAL DISORDERS AND ADMINISTRATION SITE CONDITIONS", null, "MILD", "N", "", "PROBABLE", "NOT RECOVERED/NOT RESOLVED", "N", "N", "N", "N", "N", "N", "N", "TREATMENT", "2012-12-25", "2012-12-02", "", 85.0, 62.0, null]
["CDISCPILOT01", "AE", "01-701-1324", 4.0, "E05", "APPLICATION SITE VESICLES", "APPLICATION SITE BLISTER", null, "APPLICATION SITE VESICLES", null, "HLT_0180", null, "HLGT_0576", null, "GENERAL DISORDERS AND ADMINISTRATION SITE CONDITIONS", null, "GENERAL DISORDERS AND ADMINISTRATION SITE CONDITIONS", null, "MILD", "N", "", "PROBABLE", "RECOVERED/RESOLVED", "N", "N", "N", "N", "N", "N", "N", "TREATMENT", "2013-01-22", "2012-12-25", "2013-01-16", 113.0, 85.0, 107.0]
["CDISCPILOT01", "AE", "01-701-1341", 2.0, "E10", "APPLICATION SITE ERYTHEMA", "APPLICATION SITE REDNESS", null, "APPLICATION SITE ERYTHEMA", null, "HLT_0617", null, "HLGT_0152", null, "GENERAL DISORDERS AND ADMINISTRATION SITE CONDITIONS", null, "GENERAL DISORDERS AND ADMINISTRATION SITE CONDITIONS", null, "MODERATE", "N", "", "PROBABLE", "NOT RECOVERED/NOT RESOLVED", "N", "N", "N", "N", "N", "N", "N", "TREATMENT", "2013-02-07", "2013-01-19", "", 34.0, 15.0, null]
["CDISCPILOT01", "AE", "01-701-1341", 4.0, "E12", "APPLICATION SITE ERYTHEMA", "APPLICATION SITE REDNESS", null, "APPLICATION SITE ERYTHEMA", null, "HLT_0617", null, "HLGT_0152", null, "GENERAL DISORDERS AND ADMINISTRATION SITE CONDITIONS", null, "GENERAL DISORDERS AND ADMINISTRATION SITE CONDITIONS", null, "MODERATE", "N", "", "PROBABLE", "NOT RECOVERED/NOT RESOLVED", "N", "N", "N", "N", "N", "N", "N", "TREATMENT", "2013-02-07", "2013-01-26", "", 34.0, 22.0, null]
["CDISCPILOT01", "AE", "01-701-1341", 5.0, "E13", "APPLICATION SITE IRRITATION", "APPLICATION SITE BURNING", null, "APPLICATION SITE IRRITATION", null, "HLT_0061", null, "HLGT_0346", null, "GENERAL DISORDERS AND ADMINISTRATION SITE CONDITIONS", null, "GENERAL DISORDERS AND ADMINISTRATION SITE CONDITIONS", null, "MODERATE", "N", "", "PROBABLE", "RECOVERED/RESOLVED", "N", "N", "N", "N", "N", "N", "N", "TREATMENT", "2013-02-07", "2013-01-26", "2013-01-30", 34.0, 22.0, 26.0]
["CDISCPILOT01", "AE", "01-701-1341", 1.0, "E09", "APPLICATION SITE PRURITUS", "APPLICATION SITE ITCHING", null, "APPLICATION SITE PRURITUS", null, "HLT_0317", null, "HLGT_0338", null, "GENERAL DISORDERS AND ADMINISTRATION SITE CONDITIONS", null, "GENERAL DISORDERS AND ADMINISTRATION SITE CONDITIONS", null, "MODERATE", "N", "", "PROBABLE", "NOT RECOVERED/NOT RESOLVED", "N", "N", "N", "N", "N", "N", "N", "TREATMENT", "2013-02-07", "2013-01-19", "", 34.0, 15.0, null]
["CDISCPILOT01", "AE", "01-701-1341", 3.0, "E11", "APPLICATION SITE PRURITUS", "APPLICATION SITE ITCHING", null, "APPLICATION SITE PRURITUS", null, "HLT_0317", null, "HLGT_0338", null, "GENERAL DISORDERS AND ADMINISTRATION SITE CONDITIONS", null, "GENERAL DISORDERS AND ADMINISTRATION SITE CONDITIONS", null, "MODERATE", "N", "", "PROBABLE", "RECOVERED/RESOLVED", "N", "N", "N", "N", "N", "N", "N", "TREATMENT", "2013-02-07", "2013-01-26", "2013-01-30", 34.0, 22.0, 26.0]
["CDISCPILOT01", "AE", "01-701-1360", 1.0, "E08", "APPLICATION SITE ERYTHEMA", "APPLICATION SITE ERYTHEMA", null, "APPLICATION SITE ERYTHEMA", null, "HLT_0617", null, "HLGT_0152", null, "GENERAL DISORDERS AND ADMINISTRATION SITE CONDITIONS", null, "GENERAL DISORDERS AND ADMINISTRATION SITE CONDITIONS", null, "MODERATE", "N", "", "PROBABLE", "NOT RECOVERED/NOT RESOLVED", "N", "N", "N", "N", "N", "N", "N", "TREATMENT", "2013-08-14", "2013-08-02", "", 15.0, 3.0, null]
["CDISCPILOT01", "AE", "01-701-1360", 2.0, "E09", "APPLICATION SITE PRURITUS", "APPLICATION SITE ITCHING", null, "APPLICATION SITE PRURITUS", null, "HLT_0317", null, "HLGT_0338", null, "GENERAL DISORDERS AND ADMINISTRATION SITE CONDITIONS", null, "GENERAL DISORDERS AND ADMINISTRATION SITE CONDITIONS", null, "MODERATE", "N", "", "PROBABLE", "NOT RECOVERED/NOT RESOLVED", "N", "N", "N", "N", "N", "N", "N", "TREATMENT", "2013-08-14", "2013-08-02", "", 15.0, 3.0, null]
["CDISCPILOT01", "AE", "01-701-1360", 3.0, "E10", "APPLICATION SITE VESICLES", "APPLICATION SITE BLISTER", null, "APPLICATION SITE VESICLES", null, "HLT_0180", null, "HLGT_0576", null, "GENERAL DISORDERS AND ADMINISTRATION SITE CONDITIONS", null, "GENERAL DISORDERS AND ADMINISTRATION SITE CONDITIONS", null, "MODERATE", "N", "", "PROBABLE", "NOT RECOVERED/NOT RESOLVED", "N", "N", "N", "N", "N", "N", "N", "TREATMENT", "2013-08-14", "2013-08-05", "", 15.0, 6.0, null]
["CDISCPILOT01", "AE", "01-701-1363", 3.0, "E11", "APPLICATION SITE PRURITUS", "APPLICATION SITE ITCHING", null, "APPLICATION SITE PRURITUS", null, "HLT_0317", null, "HLGT_0338", null, "GENERAL DISORDERS AND ADMINISTRATION SITE CONDITIONS", null, "GENERAL DISORDERS AND ADMINISTRATION SITE CONDITIONS", null, "MILD", "N", "", "PROBABLE", "NOT RECOVERED/NOT RESOLVED", "N", "N", "N", "N", "N", "N", "N", "TREATMENT", "2013-07-24", "2013-07-16", "", 56.0, 48.0, null]
["CDISCPILOT01", "AE", "01-701-1363", 6.0, "E13", "BACK PAIN", "BACKACHE", null, "BACK PAIN", null, "HLT_0115", null, "HLGT_0508", null, "MUSCULOSKELETAL AND CONNECTIVE TISSUE DISORDERS", null, "MUSCULOSKELETAL AND CONNECTIVE TISSUE DISORDERS", null, "MILD", "N", "", "NONE", "RECOVERED/RESOLVED", "N", "N", "N", "N", "N", "N", "N", "TREATMENT", "2013-11-13", "2013-10-13", "2013-10-15", 168.0, 137.0, 139.0]
["CDISCPILOT01", "AE", "01-701-1363", 2.0, "E03", "HEADACHE", "HEADACHE", null, "HEADACHE", null, "HLT_0064", null, "HLGT_0344", null, "NERVOUS SYSTEM DISORDERS", null, "NERVOUS SYSTEM DISORDERS", null, "MODERATE", "N", "", "POSSIBLE", "NOT RECOVERED/NOT RESOLVED", "N", "N", "N", "N", "N", "N", "N", "SCREENING", "2013-07-24", "1986", "", 56.0, null, null]
["CDISCPILOT01", "AE", "01-701-1363", 4.0, "E03", "HEADACHE", "HEADACHE", null, "HEADACHE", null, "HLT_0064", null, "HLGT_0344", null, "NERVOUS SYSTEM DISORDERS", null, "NERVOUS SYSTEM DISORDERS", null, "MILD", "N", "", "POSSIBLE", "NOT RECOVERED/NOT RESOLVED", "N", "N", "N", "N", "N", "N", "N", "SCREENING", "2013-10-14", "1986", "", 138.0, null, null]
["CDISCPILOT01", "AE", "01-701-1363", 1.0, "E09", "NAUSEA", "NAUSEA", null, "NAUSEA", null, "HLT_0742", null, "HLGT_0326", null, "GASTROINTESTINAL DISORDERS", null, "GASTROINTESTINAL DISORDERS", null, "MILD", "N", "", "REMOTE", "RECOVERED/RESOLVED", "N", "N", "N", "N", "N", "N", "N", "TREATMENT", "2013-06-25", "2013-06-14", "2013-06-15", 27.0, 16.0, 17.0]
["CDISCPILOT01", "AE", "01-701-1383", 3.0, "E06", "APPLICATION SITE ERYTHEMA", "APPLICATION SITE ERYTHEMA", null, "APPLICATION SITE ERYTHEMA", null, "HLT_0617", null, "HLGT_0152", null, "GENERAL DISORDERS AND ADMINISTRATION SITE CONDITIONS", null, "GENERAL DISORDERS AND ADMINISTRATION SITE CONDITIONS", null, "MILD", "N", "", "POSSIBLE", "RECOVERED/RESOLVED", "N", "N", "N", "N", "N", "N", "N", "TREATMENT", "2013-04-02", "2013-03-23", "2013-03-26", 58.0, 48.0, 51.0]
["CDISCPILOT01", "AE", "01-701-1383", 5.0, "E08", "APPLICATION SITE ERYTHEMA", "APPLICATION SITE ERYTHEMA", null, "APPLICATION SITE ERYTHEMA", null, "HLT_0617", null, "HLGT_0152", null, "GENERAL DISORDERS AND ADMINISTRATION SITE CONDITIONS", null, "GENERAL DISORDERS AND ADMINISTRATION SITE CONDITIONS", null, "MILD", "N", "", "POSSIBLE", "NOT RECOVERED/NOT RESOLVED", "N", "N", "N", "N", "N", "N", "N", "TREATMENT", "2013-04-30", "2013-04-12", "", 86.0, 68.0, null]
["CDISCPILOT01", "AE", "01-701-1383", 6.0, "E09", "APPLICATION SITE IRRITATION", "APPLICATION SITE BURNING", null, "APPLICATION SITE IRRITATION", null, "HLT_0061", null, "HLGT_0346", null, "GENERAL DISORDERS AND ADMINISTRATION SITE CONDITIONS", null, "GENERAL DISORDERS AND ADMINISTRATION SITE CONDITIONS", null, "MILD", "N", "", "POSSIBLE", "NOT RECOVERED/NOT RESOLVED", "N", "N", "N", "N", "N", "N", "N", "TREATMENT", "2013-04-30", "2013-04-12", "", 86.0, 68.0, null]
["CDISCPILOT01", "AE", "01-701-1383", 8.0, "E09", "APPLICATION SITE IRRITATION", "APPLICATION SITE BURNING", null, "APPLICATION SITE IRRITATION", null, "HLT_0061", null, "HLGT_0346", null, "GENERAL DISORDERS AND ADMINISTRATION SITE CONDITIONS", null, "GENERAL DISORDERS AND ADMINISTRATION SITE CONDITIONS", null, "MODERATE", "N", "", "POSSIBLE", "NOT RECOVERED/NOT RESOLVED", "N", "N", "N", "N", "N", "N", "N", "TREATMENT", "2013-05-30", "2013-04-12", "", 116.0, 68.0, null]
["CDISCPILOT01", "AE", "01-701-1383", 2.0, "E05", "APPLICATION SITE PAIN", "APPLICATION SITE PAIN", null, "APPLICATION SITE PAIN", null, "HLT_0342", null, "HLGT_0085", null, "GENERAL DISORDERS AND ADMINISTRATION SITE CONDITIONS", null, "GENERAL DISORDERS AND ADMINISTRATION SITE CONDITIONS", null, "MILD", "N", "", "PROBABLE", "RECOVERED/RESOLVED", "N", "N", "N", "N", "N", "N", "N", "TREATMENT", "2013-02-19", "2013-02-07", "2013-02-07", 16.0, 4.0, 4.0]
["CDISCPILOT01", "AE", "01-701-1383", 1.0, "E04", "APPLICATION SITE PRURITUS", "APPLICATION SITE ITCHING", null, "APPLICATION SITE PRURITUS", null, "HLT_0317", null, "HLGT_0338", null, "GENERAL DISORDERS AND ADMINISTRATION SITE CONDITIONS", null, "GENERAL DISORDERS AND ADMINISTRATION SITE CONDITIONS", null, "MILD", "N", "", "PROBABLE", "RECOVERED/RESOLVED", "N", "N", "N", "N", "N", "N", "N", "TREATMENT", "2013-02-19", "2013-02-07", "2013-02-07", 16.0, 4.0, 4.0]
["CDISCPILOT01", "AE", "01-701-1383", 4.0, "E07", "APPLICATION SITE PRURITUS", "APPLICATION SITE ITCHING", null, "APPLICATION SITE PRURITUS", null, "HLT_0317", null, "HLGT_0338", null, "GENERAL DISORDERS AND ADMINISTRATION SITE CONDITIONS", null, "GENERAL DISORDERS AND ADMINISTRATION SITE CONDITIONS", null, "MILD", "N", "", "POSSIBLE", "NOT RECOVERED/NOT RESOLVED", "N", "N", "N", "N", "N", "N", "N", "TREATMENT", "2013-04-02", "2013-03-23", "", 58.0, 48.0, null]
["CDISCPILOT01", "AE", "01-701-1383", 7.0, "E07", "APPLICATION SITE PRURITUS", "APPLICATION SITE ITCHING", null, "APPLICATION SITE PRURITUS", null, "HLT_0317", null, "HLGT_0338", null, "GENERAL DISORDERS AND ADMINISTRATION SITE CONDITIONS", null, "GENERAL DISORDERS AND ADMINISTRATION SITE CONDITIONS", null, "MODERATE", "N", "", "POSSIBLE", "NOT RECOVERED/NOT RESOLVED", "N", "N", "N", "N", "N", "N", "N", "TREATMENT", "2013-05-30", "2013-03-23", "", 116.0, 48.0, null]
["CDISCPILOT01", "AE", "01-701-1383", 9.0, "E10", "APPLICATION SITE VESICLES", "APPLICATION SITE BLISTER", null, "APPLICATION SITE VESICLES", null, "HLT_0180", null, "HLGT_0576", null, "GENERAL DISORDERS AND ADMINISTRATION SITE CONDITIONS", null, "GENERAL DISORDERS AND ADMINISTRATION SITE CONDITIONS", null, "MILD", "N", "", "POSSIBLE", "RECOVERED/RESOLVED", "N", "N", "N", "N", "N", "N", "N", "TREATMENT", "2013-05-30", "2013-05-07", "2013-05-24", 116.0, 93.0, 110.0]
["CDISCPILOT01", "AE", "01-701-1383", 10.0, "E11", "CHEST DISCOMFORT", "CHEST PRESSURE", null, "CHEST DISCOMFORT", null, "HLT_0593", null, "HLGT_0441", null, "GENERAL DISORDERS AND ADMINISTRATION SITE CONDITIONS", null, "GENERAL DISORDERS AND ADMINISTRATION SITE CONDITIONS", null, "MILD", "N", "", "NONE", "RECOVERED/RESOLVED", "N", "N", "N", "N", "N", "N", "N", "TREATMENT", "2013-06-25", "2013-06-24", "2013-06-24", 142.0, 141.0, 141.0]
["CDISCPILOT01", "AE", "01-701-1383", 12.0, "E13", "COUGH", "COUGH", null, "COUGH", null, "HLT_0701", null, "HLGT_0280", null, "RESPIRATORY, THORACIC AND MEDIASTINAL DISORDERS", null, "RESPIRATORY, THORACIC AND MEDIASTINAL DISORDERS", null, "MODERATE", "N", "", "NONE", "RECOVERED/RESOLVED", "N", "N", "N", "N", "N", "N", "N", "TREATMENT", "2013-07-30", "2013-07-17", "2013-07-26", 177.0, 164.0, 173.0]
["CDISCPILOT01", "AE", "01-701-1383", 11.0, "E12", "HEADACHE", "FULLNESS HEAD", null, "HEADACHE", null, "HLT_0064", null, "HLGT_0344", null, "NERVOUS SYSTEM DISORDERS", null, "NERVOUS SYSTEM DISORDERS", null, "MILD", "N", "", "NONE", "RECOVERED/RESOLVED", "N", "N", "N", "N", "N", "N", "N", "TREATMENT", "2013-06-25", "2013-06-24", "2013-06-24", 142.0, 141.0, 141.0]
["CDISCPILOT01", "AE", "01-701-1387", 1.0, "E08", "DIARRHOEA", "DIARRHEA", null, "DIARRHOEA", null, "HLT_0148", null, "HLGT_0588", null, "GASTROINTESTINAL DISORDERS", null, "GASTROINTESTINAL DISORDERS", null, "MILD", "N", "", "REMOTE", "RECOVERED/RESOLVED", "N", "N", "N", "N", "N", "N", "N", "TREATMENT", "2014-03-25", "2014-03-18", "2014-03-18", 14.0, 7.0, 7.0]
["CDISCPILOT01", "AE", "01-701-1387", 2.0, "E09", "HYPERHIDROSIS", "SWEATING", null, "HYPERHIDROSIS", null, "HLT_0587", null, "HLGT_0005", null, "SKIN AND SUBCUTANEOUS TISSUE DISORDERS", null, "SKIN AND SUBCUTANEOUS TISSUE DISORDERS", null, "MILD", "N", "", "REMOTE", "RECOVERED/RESOLVED", "N", "N", "N", "N", "N", "N", "N", "TREATMENT", "2014-03-25", "2014-03-18", "2014-03-18", 14.0, 7.0, 7.0]
["CDISCPILOT01", "AE", "01-701-1392", 2.0, "E04", "UPPER RESPIRATORY TRACT INFECTION", "UPPER RESPIRATORY INFECTION", null, "UPPER RESPIRATORY TRACT INFECTION", null, "HLT_0520", null, "HLGT_0489", null, "INFECTIONS AND INFESTATIONS", null, "INFECTIONS AND INFESTATIONS", null, "MILD", "N", "", "REMOTE", "RECOVERED/RESOLVED", "N", "N", "N", "N", "N", "N", "N", "TREATMENT", "2013-04-15", "2013-03-16", "2013-03-21", 170.0, 140.0, 145.0]
["CDISCPILOT01", "AE", "01-701-1415", 6.0, "E12", "DIARRHOEA", "DIARRHEA", null, "DIARRHOEA", null, "HLT_0148", null, "HLGT_0588", null, "GASTROINTESTINAL DISORDERS", null, "GASTROINTESTINAL DISORDERS", null, "MILD", "N", "", "NONE", "RECOVERED/RESOLVED", "N", "N", "N", "N", "N", "N", "N", "TREATMENT", "2014-03-10", "2014-03-09", "2014-03-09", 169.0, 168.0, 168.0]
["CDISCPILOT01", "AE", "01-701-1415", 3.0, "E10", "MICTURITION URGENCY", "URINARY URGENCY", null, "MICTURITION URGENCY", null, "HLT_0294", null, "HLGT_0483", null, "RENAL AND URINARY DISORDERS", null, "RENAL AND URINARY DISORDERS", null, "MILD", "N", "", "NONE", "NOT RECOVERED/NOT RESOLVED", "N", "N", "N", "N", "N", "N", "N", "TREATMENT", "2013-12-21", "2013-12-02", "", 90.0, 71.0, null]
["CDISCPILOT01", "AE", "01-701-1415", 2.0, "E09", "UPPER RESPIRATORY TRACT INFECTION", "UPPER RESPIRATORY INFECTION", null, "UPPER RESPIRATORY TRACT INFECTION", null, "HLT_0520", null, "HLGT_0489", null, "INFECTIONS AND INFESTATIONS", null, "INFECTIONS AND INFESTATIONS", null, "MILD", "N", "", "NONE", "RECOVERED/RESOLVED", "N", "N", "N", "N", "N", "N", "N", "TREATMENT", "2013-11-21", "2013-10-21", "2013-11-04", 60.0, 29.0, 43.0]
["CDISCPILOT01", "AE", "01-701-1415", 5.0, "E11", "UPPER RESPIRATORY TRACT INFECTION", "UPPER RESPIRATORY INFECTION", null, "UPPER RESPIRATORY TRACT INFECTION", null, "HLT_0520", null, "HLGT_0489", null, "INFECTIONS AND INFESTATIONS", null, "INFECTIONS AND INFESTATIONS", null, "MILD", "N", "", "REMOTE", "RECOVERED/RESOLVED", "N", "N", "N", "N", "N", "N", "N", "TREATMENT", "2014-03-10", "2014-01-21", "2014-02-10", 169.0, 121.0, 141.0]
["CDISCPILOT01", "AE", "01-701-1442", 1.0, "E03", "APPLICATION SITE PRURITUS", "APPLICATION SITE ITCHING", null, "APPLICATION SITE PRURITUS", null, "HLT_0317", null, "HLGT_0338", null, "GENERAL DISORDERS AND ADMINISTRATION SITE CONDITIONS", null, "GENERAL DISORDERS AND ADMINISTRATION SITE CONDITIONS", null, "MILD", "N", "", "PROBABLE", "NOT RECOVERED/NOT RESOLVED", "N", "N", "N", "N", "N", "N", "N", "TREATMENT", "2014-01-18", "2014-01-10", "", 85.0, 77.0, null]
["CDISCPILOT01", "AE", "01-701-1444", 1.0, "E11", "APPLICATION SITE ERYTHEMA", "APPLICATION SITE ERYTHEMA", null, "APPLICATION SITE ERYTHEMA", null, "HLT_0617", null, "HLGT_0152", null, "GENERAL DISORDERS AND ADMINISTRATION SITE CONDITIONS", null, "GENERAL DISORDERS AND ADMINISTRATION SITE CONDITIONS", null, "MILD", "N", "", "POSSIBLE", "NOT RECOVERED/NOT RESOLVED", "N", "N", "N", "N", "N", "N", "N", "TREATMENT", "2013-01-31", "2013-01-19", "", 27.0, 15.0, null]
["CDISCPILOT01", "AE", "01-701-1444", 4.0, "E11", "APPLICATION SITE ERYTHEMA", "APPLICATION SITE ERYTHEMA", null, "APPLICATION SITE ERYTHEMA", null, "HLT_0617", null, "HLGT_0152", null, "GENERAL DISORDERS AND ADMINISTRATION SITE CONDITIONS", null, "GENERAL DISORDERS AND ADMINISTRATION SITE CONDITIONS", null, "MODERATE", "N", "", "POSSIBLE", "NOT RECOVERED/NOT RESOLVED", "N", "N", "N", "N", "N", "N", "N", "TREATMENT", "2013-02-13", "2013-01-19", "", 40.0, 15.0, null]
["CDISCPILOT01", "AE", "01-701-1444", 6.0, "E15", "APPLICATION SITE IRRITATION", "APPLICATION SITE BURNING", null, "APPLICATION SITE IRRITATION", null, "HLT_0061", null, "HLGT_0346", null, "GENERAL DISORDERS AND ADMINISTRATION SITE CONDITIONS", null, "GENERAL DISORDERS AND ADMINISTRATION SITE CONDITIONS", null, "MODERATE", "N", "", "PROBABLE", "NOT RECOVERED/NOT RESOLVED", "N", "N", "N", "N", "N", "N", "N", "TREATMENT", "2013-02-13", "2013-02-04", "", 40.0, 31.0, null]
["CDISCPILOT01", "AE", "01-701-1444", 2.0, "E12", "APPLICATION SITE PRURITUS", "APPLICATION SITE ITCHING", null, "APPLICATION SITE PRURITUS", null, "HLT_0317", null, "HLGT_0338", null, "GENERAL DISORDERS AND ADMINISTRATION SITE CONDITIONS", null, "GENERAL DISORDERS AND ADMINISTRATION SITE CONDITIONS", null, "MILD", "N", "", "PROBABLE", "NOT RECOVERED/NOT RESOLVED", "N", "N", "N", "N", "N", "N", "N", "TREATMENT", "2013-01-31", "2013-01-19", "", 27.0, 15.0, null]
["CDISCPILOT01", "AE", "01-701-1444", 5.0, "E12", "APPLICATION SITE PRURITUS", "APPLICATION SITE ITCHING", null, "APPLICATION SITE PRURITUS", null, "HLT_0317", null, "HLGT_0338", null, "GENERAL DISORDERS AND ADMINISTRATION SITE CONDITIONS", null, "GENERAL DISORDERS AND ADMINISTRATION SITE CONDITIONS", null, "MODERATE", "N", "", "PROBABLE", "NOT RECOVERED/NOT RESOLVED", "N", "N", "N", "N", "N", "N", "N", "TREATMENT", "2013-02-13", "2013-01-19", "", 40.0, 15.0, null]
["CDISCPILOT01", "AE", "01-701-1444", 7.0, "E16", "APPLICATION SITE VESICLES", "APPLICATION SITE BLISTER", null, "APPLICATION SITE VESICLES", null, "HLT_0180", null, "HLGT_0576", null, "GENERAL DISORDERS AND ADMINISTRATION SITE CONDITIONS", null, "GENERAL DISORDERS AND ADMINISTRATION SITE CONDITIONS", null, "MODERATE", "N", "", "PROBABLE", "NOT RECOVERED/NOT RESOLVED", "N", "N", "N", "N", "N", "N", "N", "TREATMENT", "2013-02-13", "2013-02-04", "", 40.0, 31.0, null]
["CDISCPILOT01", "AE", "01-701-1444", 8.0, "E14", "PARAESTHESIA", "TINGLING", null, "PARAESTHESIA", null, "HLT_0481", null, "HLGT_0534", null, "NERVOUS SYSTEM DISORDERS", null, "NERVOUS SYSTEM DISORDERS", null, "MILD", "N", "", "NONE", "RECOVERED/RESOLVED", "N", "N", "N", "N", "N", "N", "N", "TREATMENT", "2013-02-13", "2013-02-08", "2013-02-08", 40.0, 35.0, 35.0]
["CDISCPILOT01", "AE", "01-701-1444", 3.0, "E13", "SALIVARY HYPERSECRETION", "HYPERSALIVATION", null, "SALIVARY HYPERSECRETION", null, "HLT_0374", null, "HLGT_0488", null, "GASTROINTESTINAL DISORDERS", null, "GASTROINTESTINAL DISORDERS", null, "MILD", "N", "", "POSSIBLE", "NOT RECOVERED/NOT RESOLVED", "N", "N", "N", "N", "N", "N", "N", "TREATMENT", "2013-01-31", "2013-01-19", "", 27.0, 15.0, null]
["CDISCPILOT01", "AE", "01-702-1082", 9.0, "E07", "APPLICATION SITE IRRITATION", "APPLICATION SITE IRRITATION", null, "APPLICATION SITE IRRITATION", null, "HLT_0061", null, "HLGT_0346", null, "GENERAL DISORDERS AND ADMINISTRATION SITE CONDITIONS", null, "GENERAL DISORDERS AND ADMINISTRATION SITE CONDITIONS", null, "MILD", "N", "", "PROBABLE", "RECOVERED/RESOLVED", "N", "N", "N", "N", "N", "N", "N", "TREATMENT", "2013-09-28", "2013-09-09", "2013-09-24", 65.0, 46.0, 61.0]
["CDISCPILOT01", "AE", "01-702-1082", 6.0, "E03", "NEUTROPHIL COUNT INCREASED", "NEUTROPHIL COUNT INCREASED", null, "NEUTROPHIL COUNT INCREASED", null, "HLT_0326", null, "HLGT_0625", null, "INVESTIGATIONS", null, "INVESTIGATIONS", null, "MILD", "N", "", "NONE", "RECOVERED/RESOLVED", "N", "N", "N", "N", "N", "N", "N", "SCREENING", "2013-08-08", "2013-07-07", "2013-07-26", 14.0, -19.0, 1.0]
["CDISCPILOT01", "AE", "01-702-1082", 8.0, "E06", "RECTAL HAEMORRHAGE", "RECTAL BLEEDING", null, "RECTAL HAEMORRHAGE", null, "HLT_0353", null, "HLGT_0755", null, "GASTROINTESTINAL DISORDERS", null, "GASTROINTESTINAL DISORDERS", null, "MILD", "N", "", "NONE", "RECOVERED/RESOLVED", "N", "N", "N", "N", "N", "N", "N", "TREATMENT", "2013-09-28", "2013-09-02", "2013-09-06", 65.0, 39.0, 43.0]
["CDISCPILOT01", "AE", "01-702-1082", 10.0, "E08", "SKIN IRRITATION", "SKIN IRRITATION", null, "SKIN IRRITATION", null, "HLT_0583", null, "HLGT_0384", null, "SKIN AND SUBCUTANEOUS TISSUE DISORDERS", null, "SKIN AND SUBCUTANEOUS TISSUE DISORDERS", null, "MODERATE", "N", "", "PROBABLE", "RECOVERED/RESOLVED", "N", "N", "N", "N", "N", "N", "N", "TREATMENT", "2013-11-17", "2013-10-12", "2013-10-31", 115.0, 79.0, 98.0]
["CDISCPILOT01", "AE", "01-702-1082", 4.0, "E04", "URINE ANALYSIS ABNORMAL", "URINE ANALYSIS ABNORMAL", null, "URINE ANALYSIS ABNORMAL", null, "HLT_0783", null, "HLGT_0295", null, "INVESTIGATIONS", null, "INVESTIGATIONS", null, "MILD", "N", "", "NONE", "RECOVERED/RESOLVED", "N", "N", "N", "N", "N", "N", "N", "SCREENING", "2013-07-26", "2013-07-07", "2013-07-24", 1.0, -19.0, -2.0]
["CDISCPILOT01", "AE", "01-702-1082", 5.0, "E02", "WHITE BLOOD CELL COUNT INCREASED", "WBC INCREASED", null, "WHITE BLOOD CELL COUNT INCREASED", null, "HLT_0417", null, "HLGT_0465", null, "INVESTIGATIONS", null, "INVESTIGATIONS", null, "MILD", "N", "", "NONE", "RECOVERED/RESOLVED", "N", "N", "N", "N", "N", "N", "N", "SCREENING", "2013-08-08", "2013-07-07", "2013-07-26", 14.0, -19.0, 1.0]
["CDISCPILOT01", "AE", "01-703-1042", 1.0, "E04", "DIARRHOEA", "DIARRHEA", null, "DIARRHOEA", null, "HLT_0148", null, "HLGT_0588", null, "GASTROINTESTINAL DISORDERS", null, "GASTROINTESTINAL DISORDERS", null, "MILD", "N", "", "POSSIBLE", "RECOVERED/RESOLVED", "N", "N", "N", "N", "N", "N", "N", "TREATMENT", "2013-03-14", "2013-03-04", "2013-03-05", 13.0, 3.0, 4.0]
["CDISCPILOT01", "AE", "01-703-1042", 2.0, "E05", "INSOMNIA", "INSOMNIA", null, "INSOMNIA", null, "HLT_0297", null, "HLGT_0469", null, "PSYCHIATRIC DISORDERS", null, "PSYCHIATRIC DISORDERS", null, "MILD", "N", "", "REMOTE", "RECOVERED/RESOLVED", "N", "N", "N", "N", "N", "N", "N", "TREATMENT", "2013-03-14", "2013-03-05", "2013-03-06", 13.0, 4.0, 5.0]
["CDISCPILOT01", "AE", "01-703-1076", 5.0, "E09", "APPLICATION SITE DERMATITIS", "APPLICATION SITE RASH", null, "APPLICATION SITE DERMATITIS", null, "HLT_0343", null, "HLGT_0241", null, "GENERAL DISORDERS AND ADMINISTRATION SITE CONDITIONS", null, "GENERAL DISORDERS AND ADMINISTRATION SITE CONDITIONS", null, "MILD", "N", "", "PROBABLE", "NOT RECOVERED/NOT RESOLVED", "N", "N", "N", "N", "N", "N", "N", "TREATMENT", "2013-12-04", "2013-11-23", "", 41.0, 30.0, null]
["CDISCPILOT01", "AE", "01-703-1076", 4.0, "E08", "APPLICATION SITE PRURITUS", "APPLICATION SITE ITCHING", null, "APPLICATION SITE PRURITUS", null, "HLT_0317", null, "HLGT_0338", null, "GENERAL DISORDERS AND ADMINISTRATION SITE CONDITIONS", null, "GENERAL DISORDERS AND ADMINISTRATION SITE CONDITIONS", null, "MILD", "N", "", "PROBABLE", "NOT RECOVERED/NOT RESOLVED", "N", "N", "N", "N", "N", "N", "N", "TREATMENT", "2013-12-04", "2013-11-23", "", 41.0, 30.0, null]
["CDISCPILOT01", "AE", "01-703-1076", 7.0, "E08", "APPLICATION SITE PRURITUS", "APPLICATION SITE ITCHING", null, "APPLICATION SITE PRURITUS", null, "HLT_0317", null, "HLGT_0338", null, "GENERAL DISORDERS AND ADMINISTRATION SITE CONDITIONS", null, "GENERAL DISORDERS AND ADMINISTRATION SITE CONDITIONS", null, "MODERATE", "N", "", "PROBABLE", "NOT RECOVERED/NOT RESOLVED", "N", "N", "N", "N", "N", "N", "N", "TREATMENT", "2013-12-17", "2013-11-23", "", 54.0, 30.0, null]
["CDISCPILOT01", "AE", "01-703-1076", 2.0, "E01", "BENIGN PROSTATIC HYPERPLASIA", "BENIGN PROSTATIC HYPERTROPHY", null, "BENIGN PROSTATIC HYPERPLASIA", null, "HLT_0215", null, "HLGT_0568", null, "REPRODUCTIVE SYSTEM AND BREAST DISORDERS", null, "REPRODUCTIVE SYSTEM AND BREAST DISORDERS", null, "MODERATE", "N", "", "NONE", "NOT RECOVERED/NOT RESOLVED", "N", "N", "N", "N", "N", "N", "N", "TREATMENT", "2013-11-20", "2013-11-20", "", 27.0, 27.0, null]
["CDISCPILOT01", "AE", "01-703-1076", 1.0, "E02", "BIOPSY PROSTATE", "BIOPSY OF PROSTATE", null, "BIOPSY PROSTATE", null, "HLT_0553", null, "HLGT_0725", null, "INVESTIGATIONS", null, "INVESTIGATIONS", null, "MODERATE", "N", "", "NONE", "RECOVERED/RESOLVED", "N", "N", "N", "N", "N", "N", "N", "TREATMENT", "2013-11-20", "2013-11-16", "2013-11-16", 27.0, 23.0, 23.0]
["CDISCPILOT01", "AE", "01-703-1076", 3.0, "E05", "HYPERCHOLESTEROLAEMIA", "HYPERCHOLESTEROLEMIA", null, "HYPERCHOLESTEROLAEMIA", null, "HLT_0025", null, "HLGT_0703", null, "METABOLISM AND NUTRITION DISORDERS", null, "METABOLISM AND NUTRITION DISORDERS", null, "MODERATE", "N", "", "NONE", "NOT RECOVERED/NOT RESOLVED", "N", "N", "N", "N", "N", "N", "N", "SCREENING", "2013-12-04", "2007", "", 41.0, null, null]
["CDISCPILOT01", "AE", "01-703-1076", 6.0, "E07", "HYPERHIDROSIS", "SWEATING", null, "HYPERHIDROSIS", null, "HLT_0587", null, "HLGT_0005", null, "SKIN AND SUBCUTANEOUS TISSUE DISORDERS", null, "SKIN AND SUBCUTANEOUS TISSUE DISORDERS", null, "MILD", "N", "", "POSSIBLE", "NOT RECOVERED/NOT RESOLVED", "N", "N", "N", "N", "N", "N", "N", "TREATMENT", "2013-12-04", "2013-11-25", "", 41.0, 32.0, null]
["CDISCPILOT01", "AE", "01-703-1086", 2.0, "E01", "APPLICATION SITE IRRITATION", "APPLICATION SITE IRRITATION", null, "APPLICATION SITE IRRITATION", null, "HLT_0061", null, "HLGT_0346", null, "GENERAL DISORDERS AND ADMINISTRATION SITE CONDITIONS", null, "GENERAL DISORDERS AND ADMINISTRATION SITE CONDITIONS", null, "MODERATE", "N", "", "PROBABLE", "NOT RECOVERED/NOT RESOLVED", "N", "N", "N", "N", "N", "N", "N", "TREATMENT", "2012-09-30", "2012-09-13", "2013-01-02", 29.0, 12.0, 123.0]
["CDISCPILOT01", "AE", "01-703-1086", 3.0, "E01", "APPLICATION SITE IRRITATION", "APPLICATION SITE IRRITATION", null, "APPLICATION SITE IRRITATION", null, "HLT_0061", null, "HLGT_0346", null, "GENERAL DISORDERS AND ADMINISTRATION SITE CONDITIONS", null, "GENERAL DISORDERS AND ADMINISTRATION SITE CONDITIONS", null, "SEVERE", "N", "", "PROBABLE", "NOT RECOVERED/NOT RESOLVED", "N", "N", "N", "N", "N", "N", "N", "TREATMENT", "2012-10-13", "2012-09-13", "2013-01-02", 42.0, 12.0, 123.0]
["CDISCPILOT01", "AE", "01-703-1086", 6.0, "E01", "APPLICATION SITE IRRITATION", "APPLICATION SITE IRRITATION", null, "APPLICATION SITE IRRITATION", null, "HLT_0061", null, "HLGT_0346", null, "GENERAL DISORDERS AND ADMINISTRATION SITE CONDITIONS", null, "GENERAL DISORDERS AND ADMINISTRATION SITE CONDITIONS", null, "MILD", "N", "", "PROBABLE", "RECOVERED/RESOLVED", "N", "N", "N", "N", "N", "N", "N", "TREATMENT", "2013-03-26", "2012-09-13", "2013-01-02", 206.0, 12.0, 123.0]
["CDISCPILOT01", "AE", "01-703-1086", 5.0, "E02", "CHILLS", "CHILLS", null, "CHILLS", null, "HLT_0586", null, "HLGT_0161", null, "GENERAL DISORDERS AND ADMINISTRATION SITE CONDITIONS", null, "GENERAL DISORDERS AND ADMINISTRATION SITE CONDITIONS", null, "MILD", "N", "", "POSSIBLE", "RECOVERED/RESOLVED", "N", "N", "N", "N", "N", "N", "N", "TREATMENT", "2012-10-27", "2012-10-09", "2012-10-15", 56.0, 38.0, 44.0]
["CDISCPILOT01", "AE", "01-703-1100", 1.0, "E04", "APPLICATION SITE IRRITATION", "APPLICATION SITE IRRITATION", null, "APPLICATION SITE IRRITATION", null, "HLT_0061", null, "HLGT_0346", null, "GENERAL DISORDERS AND ADMINISTRATION SITE CONDITIONS", null, "GENERAL DISORDERS AND ADMINISTRATION SITE CONDITIONS", null, "MODERATE", "N", "", "PROBABLE", "NOT RECOVERED/NOT RESOLVED", "N", "N", "N", "N", "N", "N", "N", "TREATMENT", "2013-04-12", "2013-04-05", "2013-04-16", 31.0, 24.0, 35.0]
["CDISCPILOT01", "AE", "01-703-1100", 3.0, "E04", "APPLICATION SITE IRRITATION", "APPLICATION SITE IRRITATION", null, "APPLICATION SITE IRRITATION", null, "HLT_0061", null, "HLGT_0346", null, "GENERAL DISORDERS AND ADMINISTRATION SITE CONDITIONS", null, "GENERAL DISORDERS AND ADMINISTRATION SITE CONDITIONS", null, "MILD", "N", "", "PROBABLE", "RECOVERED/RESOLVED", "N", "N", "N", "N", "N", "N", "N", "TREATMENT", "2013-04-24", "2013-04-05", "2013-04-16", 43.0, 24.0, 35.0]
["CDISCPILOT01", "AE", "01-703-1100", 4.0, "E06", "CATARACT OPERATION", "CATARACT EXTRACTION", null, "CATARACT OPERATION", null, "HLT_0432", null, "HLGT_0058", null, "SURGICAL AND MEDICAL PROCEDURES", null, "SURGICAL AND MEDICAL PROCEDURES", null, "MODERATE", "N", "", "NONE", "RECOVERED/RESOLVED", "N", "N", "N", "N", "N", "N", "N", "TREATMENT", "2013-05-08", "2013-04-25", "2013-04-25", 57.0, 44.0, 44.0]
["CDISCPILOT01", "AE", "01-703-1100", 8.0, "E07", "OEDEMA PERIPHERAL", "LEG EDEMA", null, "OEDEMA PERIPHERAL", null, "HLT_0661", null, "HLGT_0137", null, "GENERAL DISORDERS AND ADMINISTRATION SITE CONDITIONS", null, "GENERAL DISORDERS AND ADMINISTRATION SITE CONDITIONS", null, "MODERATE", "N", "", "REMOTE", "RECOVERED/RESOLVED", "N", "N", "N", "N", "N", "N", "N", "SCREENING", "2013-09-14", "2013-02-28", "2013-09-14", 186.0, -13.0, 186.0]
["CDISCPILOT01", "AE", "01-703-1100", 9.0, "E09", "OEDEMA PERIPHERAL", "LEG EDEMA", null, "OEDEMA PERIPHERAL", null, "HLT_0661", null, "HLGT_0137", null, "GENERAL DISORDERS AND ADMINISTRATION SITE CONDITIONS", null, "GENERAL DISORDERS AND ADMINISTRATION SITE CONDITIONS", null, "MILD", "N", "", "REMOTE", "RECOVERED/RESOLVED", "N", "N", "N", "N", "N", "N", "N", "TREATMENT", "2013-09-14", "2013-07-17", "2013-09-14", 186.0, 127.0, 186.0]
["CDISCPILOT01", "AE", "01-703-1100", 5.0, "E08", "UPPER RESPIRATORY TRACT INFECTION", "UPPER RESPIRATORY INFECTION", null, "UPPER RESPIRATORY TRACT INFECTION", null, "HLT_0520", null, "HLGT_0489", null, "INFECTIONS AND INFESTATIONS", null, "INFECTIONS AND INFESTATIONS", null, "MODERATE", "N", "", "REMOTE", "RECOVERED/RESOLVED", "N", "N", "N", "N", "N", "N", "N", "TREATMENT", "2013-06-05", "2013-05-27", "2013-06-03", 85.0, 76.0, 83.0]
["CDISCPILOT01", "AE", "01-703-1119", 1.0, "E04", "APPLICATION SITE IRRITATION", "APPLICATION SITE IRRITATION", null, "APPLICATION SITE IRRITATION", null, "HLT_0061", null, "HLGT_0346", null, "GENERAL DISORDERS AND ADMINISTRATION SITE CONDITIONS", null, "GENERAL DISORDERS AND ADMINISTRATION SITE CONDITIONS", null, "MODERATE", "N", "", "PROBABLE", "NOT RECOVERED/NOT RESOLVED", "N", "N", "N", "N", "N", "N", "N", "TREATMENT", "2013-03-21", "2013-03-16", "", 30.0, 25.0, null]
["CDISCPILOT01", "AE", "01-703-1119", 2.0, "E04", "APPLICATION SITE IRRITATION", "APPLICATION SITE IRRITATION", null, "APPLICATION SITE IRRITATION", null, "HLT_0061", null, "HLGT_0346", null, "GENERAL DISORDERS AND ADMINISTRATION SITE CONDITIONS", null, "GENERAL DISORDERS AND ADMINISTRATION SITE CONDITIONS", null, "SEVERE", "N", "", "PROBABLE", "NOT RECOVERED/NOT RESOLVED", "N", "N", "N", "N", "N", "N", "N", "TREATMENT", "2013-05-17", "2013-03-16", "", 87.0, 25.0, null]
["CDISCPILOT01", "AE", "01-703-1119", 3.0, "E05", "PRURITUS", "ITCHING", null, "PRURITUS", null, "HLT_0778", null, "HLGT_0695", null, "SKIN AND SUBCUTANEOUS TISSUE DISORDERS", null, "SKIN AND SUBCUTANEOUS TISSUE DISORDERS", null, "MODERATE", "N", "", "PROBABLE", "NOT RECOVERED/NOT RESOLVED", "N", "N", "N", "N", "N", "N", "N", "TREATMENT", "2013-05-17", "2013-05-04", "", 87.0, 74.0, null]
["CDISCPILOT01", "AE", "01-703-1119", 4.0, "E05", "PRURITUS", "ITCHING", null, "PRURITUS", null, "HLT_0778", null, "HLGT_0695", null, "SKIN AND SUBCUTANEOUS TISSUE DISORDERS", null, "SKIN AND SUBCUTANEOUS TISSUE DISORDERS", null, "SEVERE", "N", "", "PROBABLE", "NOT RECOVERED/NOT RESOLVED", "N", "N", "N", "N", "N", "N", "N", "TREATMENT", "2013-06-13", "2013-05-04", "", 114.0, 74.0, null]
["CDISCPILOT01", "AE", "01-703-1175", 1.0, "E01", "ATRIOVENTRICULAR BLOCK SECOND DEGREE", "HEART BLOCK SECOND DEGREE", null, "ATRIOVENTRICULAR BLOCK SECOND DEGREE", null, "HLT_0415", null, "HLGT_0086", null, "CARDIAC DISORDERS", null, "CARDIAC DISORDERS", null, "SEVERE", "N", "", "NONE", "NOT RECOVERED/NOT RESOLVED", "N", "N", "N", "N", "N", "N", "N", "SCREENING", "2013-12-18", "2013-12-18", "", -2.0, -2.0, null]
["CDISCPILOT01", "AE", "01-703-1182", 1.0, "E05", "APPLICATION SITE ERYTHEMA", "APPLICATION SITE REDNESS", null, "APPLICATION SITE ERYTHEMA", null, "HLT_0617", null, "HLGT_0152", null, "GENERAL DISORDERS AND ADMINISTRATION SITE CONDITIONS", null, "GENERAL DISORDERS AND ADMINISTRATION SITE CONDITIONS", null, "MILD", "N", "", "POSSIBLE", "NOT RECOVERED/NOT RESOLVED", "N", "N", "N", "N", "N", "N", "N", "TREATMENT", "2013-10-31", "2013-10-31", "", 15.0, 15.0, null]
["CDISCPILOT01", "AE", "01-703-1182", 2.0, "E05", "APPLICATION SITE ERYTHEMA", "APPLICATION SITE REDNESS", null, "APPLICATION SITE ERYTHEMA", null, "HLT_0617", null, "HLGT_0152", null, "GENERAL DISORDERS AND ADMINISTRATION SITE CONDITIONS", null, "GENERAL DISORDERS AND ADMINISTRATION SITE CONDITIONS", null, "MODERATE", "N", "", "POSSIBLE", "NOT RECOVERED/NOT RESOLVED", "N", "N", "N", "N", "N", "N", "N", "TREATMENT", "2013-11-28", "2013-10-31", "", 43.0, 15.0, null]
["CDISCPILOT01", "AE", "01-703-1182", 3.0, "E07", "SOMNOLENCE", "DROWSINESS", null, "SOMNOLENCE", null, "HLT_0160", null, "HLGT_0254", null, "NERVOUS SYSTEM DISORDERS", null, "NERVOUS SYSTEM DISORDERS", null, "MILD", "N", "", "REMOTE", "NOT RECOVERED/NOT RESOLVED", "N", "N", "N", "N", "N", "N", "N", "TREATMENT", "2013-11-28", "2013-11-22", "", 43.0, 37.0, null]
["CDISCPILOT01", "AE", "01-703-1182", 4.0, "E07", "SOMNOLENCE", "DROWSINESS", null, "SOMNOLENCE", null, "HLT_0160", null, "HLGT_0254", null, "NERVOUS SYSTEM DISORDERS", null, "NERVOUS SYSTEM DISORDERS", null, "MODERATE", "N", "", "REMOTE", "NOT RECOVERED/NOT RESOLVED", "N", "N", "N", "N", "N", "N", "N", "TREATMENT", "2013-12-12", "2013-11-22", "", 57.0, 37.0, null]
["CDISCPILOT01", "AE", "01-703-1210", 2.0, "E04", "DECREASED APPETITE", "DECREASED APPETITE", null, "DECREASED APPETITE", null, "HLT_0574", null, "HLGT_0231", null, "METABOLISM AND NUTRITION DISORDERS", null, "METABOLISM AND NUTRITION DISORDERS", null, "MILD", "N", "", "POSSIBLE", "NOT RECOVERED/NOT RESOLVED", "N", "N", "N", "N", "N", "N", "N", "TREATMENT", "2013-05-10", "2013-05-04", "", 56.0, 50.0, null]
["CDISCPILOT01", "AE", "01-703-1210", 3.0, "E04", "DECREASED APPETITE", "DECREASED APPETITE", null, "DECREASED APPETITE", null, "HLT_0574", null, "HLGT_0231", null, "METABOLISM AND NUTRITION DISORDERS", null, "METABOLISM AND NUTRITION DISORDERS", null, "MODERATE", "N", "", "POSSIBLE", "NOT RECOVERED/NOT RESOLVED", "N", "N", "N", "N", "N", "N", "N", "TREATMENT", "2013-08-24", "2013-05-04", "", 162.0, 50.0, null]
["CDISCPILOT01", "AE", "01-703-1210", 1.0, "E01", "DISORIENTATION", "DISORIENTATION", null, "DISORIENTATION", null, "HLT_0299", null, "HLGT_0307", null, "PSYCHIATRIC DISORDERS", null, "PSYCHIATRIC DISORDERS", null, "MILD", "N", "", "REMOTE", "NOT RECOVERED/NOT RESOLVED", "N", "N", "N", "N", "N", "N", "N", "TREATMENT", "2013-04-12", "2013-04-02", "", 28.0, 18.0, null]
["CDISCPILOT01", "AE", "01-703-1258", 6.0, "E08", "APPLICATION SITE DERMATITIS", "APPLICATION SITE RASH", null, "APPLICATION SITE DERMATITIS", null, "HLT_0343", null, "HLGT_0241", null, "GENERAL DISORDERS AND ADMINISTRATION SITE CONDITIONS", null, "GENERAL DISORDERS AND ADMINISTRATION SITE CONDITIONS", null, "MODERATE", "N", "", "PROBABLE", "NOT RECOVERED/NOT RESOLVED", "N", "N", "N", "N", "N", "N", "N", "TREATMENT", "2012-09-14", "2012-09-04", "2013-01-25", 57.0, 47.0, 190.0]
["CDISCPILOT01", "AE", "01-703-1258", 7.0, "E08", "APPLICATION SITE DERMATITIS", "APPLICATION SITE RASH", null, "APPLICATION SITE DERMATITIS", null, "HLT_0343", null, "HLGT_0241", null, "GENERAL DISORDERS AND ADMINISTRATION SITE CONDITIONS", null, "GENERAL DISORDERS AND ADMINISTRATION SITE CONDITIONS", null, "MILD", "N", "", "PROBABLE", "RECOVERED/RESOLVED", "N", "N", "N", "N", "N", "N", "N", "TREATMENT", "2013-01-28", "2012-09-04", "2013-01-25", 193.0, 47.0, 190.0]
["CDISCPILOT01", "AE", "01-703-1258", 2.0, "E06", "DIZZINESS", "DIZZINESS", null, "DIZZINESS", null, "HLT_0619", null, "HLGT_0751", null, "NERVOUS SYSTEM DISORDERS", null, "NERVOUS SYSTEM DISORDERS", null, "MODERATE", "N", "", "NONE", "NOT RECOVERED/NOT RESOLVED", "N", "N", "N", "N", "N", "N", "N", "SCREENING", "2012-09-04", "2001", "", 47.0, null, null]
["CDISCPILOT01", "AE", "01-703-1258", 5.0, "E06", "DIZZINESS", "DIZZINESS", null, "DIZZINESS", null, "HLT_0619", null, "HLGT_0751", null, "NERVOUS SYSTEM DISORDERS", null, "NERVOUS SYSTEM DISORDERS", null, "MILD", "N", "", "NONE", "NOT RECOVERED/NOT RESOLVED", "N", "N", "N", "N", "N", "N", "N", "SCREENING", "2012-09-14", "2001", "", 57.0, null, null]
["CDISCPILOT01", "AE", "01-703-1258", 3.0, "E07", "UPPER RESPIRATORY TRACT INFECTION", "UPPER RESPIRATORY INFECTION", null, "UPPER RESPIRATORY TRACT INFECTION", null, "HLT_0520", null, "HLGT_0489", null, "INFECTIONS AND INFESTATIONS", null, "INFECTIONS AND INFESTATIONS", null, "MILD", "N", "", "NONE", "RECOVERED/RESOLVED", "N", "N", "N", "N", "N", "N", "N", "TREATMENT", "2012-09-04", "2012-08-11", "2012-08-19", 47.0, 23.0, 31.0]
["CDISCPILOT01", "AE", "01-703-1295", 1.0, "E06", "ARTHRITIS", "ARTHRITIS", null, "ARTHRITIS", null, "HLT_0019", null, "HLGT_0587", null, "MUSCULOSKELETAL AND CONNECTIVE TISSUE DISORDERS", null, "MUSCULOSKELETAL AND CONNECTIVE TISSUE DISORDERS", null, "MODERATE", "N", "", "NONE", "NOT RECOVERED/NOT RESOLVED", "N", "N", "N", "N", "N", "N", "N", "TREATMENT", "2014-01-01", "2013-12-28", "", 42.0, 38.0, null]
["CDISCPILOT01", "AE", "01-703-1299", 3.0, "E01", "GLAUCOMA", "GLAUCOMA", null, "GLAUCOMA", null, "HLT_0556", null, "HLGT_0734", null, "EYE DISORDERS", null, "EYE DISORDERS", null, "MODERATE", "N", "", "NONE", "NOT RECOVERED/NOT RESOLVED", "N", "N", "N", "N", "N", "N", "N", "SCREENING", "2013-03-01", "1992", "", 171.0, null, null]
["CDISCPILOT01", "AE", "01-703-1299", 4.0, "E05", "HYPOTENSION", "HYPOTENSION", null, "HYPOTENSION", null, "HLT_0761", null, "HLGT_0412", null, "VASCULAR DISORDERS", null, "VASCULAR DISORDERS", null, "MILD", "N", "", "REMOTE", "NOT RECOVERED/NOT RESOLVED", "N", "N", "N", "N", "N", "N", "N", "TREATMENT", "2013-03-01", "2013-03-01", "", 171.0, 171.0, null]
["CDISCPILOT01", "AE", "01-703-1299", 6.0, "E05", "HYPOTENSION", "HYPOTENSION", null, "HYPOTENSION", null, "HLT_0761", null, "HLGT_0412", null, "VASCULAR DISORDERS", null, "VASCULAR DISORDERS", null, "MODERATE", "N", "", "REMOTE", "NOT RECOVERED/NOT RESOLVED", "N", "N", "N", "N", "N", "N", "N", "TREATMENT", "2013-03-13", "2013-03-01", "", 183.0, 171.0, null]
["CDISCPILOT01", "AE", "01-703-1299", 8.0, "E07", "MYOCARDIAL INFARCTION", "MYOCARDIAL INFARCTION", null, "MYOCARDIAL INFARCTION", null, "HLT_0649", null, "HLGT_0688", null, "CARDIAC DISORDERS", null, "CARDIAC DISORDERS", null, "MODERATE", "N", "", "REMOTE", "NOT RECOVERED/NOT RESOLVED", "N", "N", "N", "N", "N", "N", "N", "TREATMENT", "2013-03-13", "2013-03-13", "", 183.0, 183.0, null]
["CDISCPILOT01", "AE", "01-703-1299", 5.0, "E06", "TACHYCARDIA", "TACHYCARDIA", null, "TACHYCARDIA", null, "HLT_0082", null, "HLGT_0574", null, "CARDIAC DISORDERS", null, "CARDIAC DISORDERS", null, "MILD", "N", "", "REMOTE", "NOT RECOVERED/NOT RESOLVED", "N", "N", "N", "N", "N", "N", "N", "TREATMENT", "2013-03-01", "2013-03-01", "", 171.0, 171.0, null]
["CDISCPILOT01", "AE", "01-703-1299", 7.0, "E06", "TACHYCARDIA", "TACHYCARDIA", null, "TACHYCARDIA", null, "HLT_0082", null, "HLGT_0574", null, "CARDIAC DISORDERS", null, "CARDIAC DISORDERS", null, "MODERATE", "N", "", "REMOTE", "NOT RECOVERED/NOT RESOLVED", "N", "N", "N", "N", "N", "N", "N", "TREATMENT", "2013-03-13", "2013-03-01", "", 183.0, 171.0, null]
["CDISCPILOT01", "AE", "01-703-1299", 2.0, "E02", "UPPER RESPIRATORY TRACT INFECTION", "UPPER RESPIRATORY INFECTION", null, "UPPER RESPIRATORY TRACT INFECTION", null, "HLT_0520", null, "HLGT_0489", null, "INFECTIONS AND INFESTATIONS", null, "INFECTIONS AND INFESTATIONS", null, "MILD", "N", "", "NONE", "RECOVERED/RESOLVED", "N", "N", "N", "N", "N", "N", "N", "TREATMENT", "2012-10-10", "2012-09-27", "2012-10-06", 29.0, 16.0, 25.0]
["CDISCPILOT01", "AE", "01-703-1335", 2.0, "E01", "ATRIOVENTRICULAR BLOCK SECOND DEGREE", "AV BLOCK SECOND DEGREE", null, "ATRIOVENTRICULAR BLOCK SECOND DEGREE", null, "HLT_0415", null, "HLGT_0086", null, "CARDIAC DISORDERS", null, "CARDIAC DISORDERS", null, "MILD", "N", "", "NONE", "RECOVERED/RESOLVED", "N", "N", "N", "N", "N", "N", "N", "SCREENING", "2014-03-31", "2014-03-15", "2014-03-30", 15.0, -2.0, 14.0]
["CDISCPILOT01", "AE", "01-703-1403", 4.0, "E03", "CHEST DISCOMFORT", "CHEST TIGHTNESS", null, "CHEST DISCOMFORT", null, "HLT_0593", null, "HLGT_0441", null, "GENERAL DISORDERS AND ADMINISTRATION SITE CONDITIONS", null, "GENERAL DISORDERS AND ADMINISTRATION SITE CONDITIONS", null, "MILD", "N", "", "PROBABLE", "RECOVERED/RESOLVED", "N", "N", "N", "N", "N", "N", "N", "TREATMENT", "2012-12-19", "2012-12-15", "2012-12-16", 8.0, 4.0, 5.0]
["CDISCPILOT01", "AE", "01-703-1403", 2.0, "E01", "DIARRHOEA", "DIARRHEA", null, "DIARRHOEA", null, "HLT_0148", null, "HLGT_0588", null, "GASTROINTESTINAL DISORDERS", null, "GASTROINTESTINAL DISORDERS", null, "MODERATE", "N", "", "PROBABLE", "RECOVERED/RESOLVED", "N", "N", "N", "N", "N", "N", "N", "TREATMENT", "2012-12-19", "2012-12-13", "2012-12-14", 8.0, 2.0, 3.0]
["CDISCPILOT01", "AE", "01-703-1403", 3.0, "E02", "VOMITING", "VOMITING", null, "VOMITING", null, "HLT_0016", null, "HLGT_0350", null, "GASTROINTESTINAL DISORDERS", null, "GASTROINTESTINAL DISORDERS", null, "MODERATE", "N", "", "PROBABLE", "RECOVERED/RESOLVED", "N", "N", "N", "N", "N", "N", "N", "TREATMENT", "2012-12-19", "2012-12-13", "2012-12-14", 8.0, 2.0, 3.0]
["CDISCPILOT01", "AE", "01-703-1403", 5.0, "E07", "WEIGHT DECREASED", "WEIGHT LOSS", null, "WEIGHT DECREASED", null, "HLT_0158", null, "HLGT_0778", null, "INVESTIGATIONS", null, "INVESTIGATIONS", null, "MODERATE", "N", "", "NONE", "RECOVERED/RESOLVED", "N", "N", "N", "N", "N", "N", "N", "TREATMENT", "2013-01-08", "2012-12-12", "2012-12-19", 28.0, 1.0, 8.0]
["CDISCPILOT01", "AE", "01-703-1439", 1.0, "E01", "APPLICATION SITE IRRITATION", "APPLICATION SITE IRRITATION", null, "APPLICATION SITE IRRITATION", null, "HLT_0061", null, "HLGT_0346", null, "GENERAL DISORDERS AND ADMINISTRATION SITE CONDITIONS", null, "GENERAL DISORDERS AND ADMINISTRATION SITE CONDITIONS", null, "MILD", "N", "", "PROBABLE", "NOT RECOVERED/NOT RESOLVED", "N", "N", "N", "N", "N", "N", "N", "TREATMENT", "2014-05-05", "2014-04-24", "", 55.0, 44.0, null]
["CDISCPILOT01", "AE", "01-703-1439", 2.0, "E01", "APPLICATION SITE IRRITATION", "APPLICATION SITE IRRITATION", null, "APPLICATION SITE IRRITATION", null, "HLT_0061", null, "HLGT_0346", null, "GENERAL DISORDERS AND ADMINISTRATION SITE CONDITIONS", null, "GENERAL DISORDERS AND ADMINISTRATION SITE CONDITIONS", null, "MODERATE", "N", "", "PROBABLE", "NOT RECOVERED/NOT RESOLVED", "N", "N", "N", "N", "N", "N", "N", "TREATMENT", "2014-06-30", "2014-04-24", "", 111.0, 44.0, null]
["CDISCPILOT01", "AE", "01-704-1008", 1.0, "E03", "HYPERHIDROSIS", "SWEATING INCREASED", null, "HYPERHIDROSIS", null, "HLT_0587", null, "HLGT_0005", null, "SKIN AND SUBCUTANEOUS TISSUE DISORDERS", null, "SKIN AND SUBCUTANEOUS TISSUE DISORDERS", null, "MILD", "N", "", "POSSIBLE", "NOT RECOVERED/NOT RESOLVED", "N", "N", "N", "N", "N", "N", "N", "TREATMENT", "2013-02-09", "2013-01-30", "", 28.0, 18.0, null]
["CDISCPILOT01", "AE", "01-704-1008", 3.0, "E05", "SINUS BRADYCARDIA", "SINUS BRADYCARDIA", null, "SINUS BRADYCARDIA", null, "HLT_0644", null, "HLGT_0500", null, "CARDIAC DISORDERS", null, "CARDIAC DISORDERS", null, "MODERATE", "N", "", "NONE", "NOT RECOVERED/NOT RESOLVED", "N", "N", "N", "N", "N", "N", "N", "TREATMENT", "2013-02-25", "2013-02-25", "", 44.0, 44.0, null]
["CDISCPILOT01", "AE", "01-704-1008", 2.0, "E06", "TRANSIENT ISCHAEMIC ATTACK", "TRANSIENT ISCHEMIC ATTACKS", null, "TRANSIENT ISCHAEMIC ATTACK", null, "HLT_0041", null, "HLGT_0433", null, "NERVOUS SYSTEM DISORDERS", null, "NERVOUS SYSTEM DISORDERS", null, "SEVERE", "N", "", "NONE", "RECOVERED/RESOLVED", "N", "N", "N", "N", "Y", "N", "N", "TREATMENT", "2013-02-25", "2013-02-21", "2013-02-21", 44.0, 40.0, 40.0]
["CDISCPILOT01", "AE", "01-704-1009", 5.0, "E07", "DIZZINESS", "DIZZINESS", null, "DIZZINESS", null, "HLT_0619", null, "HLGT_0751", null, "NERVOUS SYSTEM DISORDERS", null, "NERVOUS SYSTEM DISORDERS", null, "MILD", "N", "", "REMOTE", "NOT RECOVERED/NOT RESOLVED", "N", "N", "N", "N", "N", "N", "N", "TREATMENT", "2013-10-02", "2013-09-17", "", 37.0, 22.0, null]
["CDISCPILOT01", "AE", "01-704-1009", 1.0, "E09", "FATIGUE", "FATIGUE", null, "FATIGUE", null, "HLT_0043", null, "HLGT_0181", null, "GENERAL DISORDERS AND ADMINISTRATION SITE CONDITIONS", null, "GENERAL DISORDERS AND ADMINISTRATION SITE CONDITIONS", null, "MILD", "N", "", "REMOTE", "NOT RECOVERED/NOT RESOLVED", "N", "N", "N", "N", "N", "N", "N", "TREATMENT", "2013-09-14", "2013-09-05", "", 19.0, 10.0, null]
["CDISCPILOT01", "AE", "01-704-1009", 4.0, "E10", "MALAISE", "MALAISE", null, "MALAISE", null, "HLT_0456", null, "HLGT_0178", null, "GENERAL DISORDERS AND ADMINISTRATION SITE CONDITIONS", null, "GENERAL DISORDERS AND ADMINISTRATION SITE CONDITIONS", null, "MILD", "N", "", "POSSIBLE", "RECOVERED/RESOLVED", "N", "N", "N", "N", "N", "N", "N", "TREATMENT", "2013-10-02", "2013-09-05", "2013-09-27", 37.0, 10.0, 32.0]
["CDISCPILOT01", "AE", "01-704-1009", 6.0, "E08", "NAUSEA", "NAUSEA", null, "NAUSEA", null, "HLT_0742", null, "HLGT_0326", null, "GASTROINTESTINAL DISORDERS", null, "GASTROINTESTINAL DISORDERS", null, "MILD", "N", "", "POSSIBLE", "RECOVERED/RESOLVED", "N", "N", "N", "N", "N", "N", "N", "TREATMENT", "2013-10-02", "2013-09-22", "2013-09-23", 37.0, 27.0, 28.0]
["CDISCPILOT01", "AE", "01-704-1009", 3.0, "E03", "RASH", "RASH", null, "RASH", null, "HLT_0762", null, "HLGT_0198", null, "SKIN AND SUBCUTANEOUS TISSUE DISORDERS", null, "SKIN AND SUBCUTANEOUS TISSUE DISORDERS", null, "MILD", "N", "", "POSSIBLE", "NOT RECOVERED/NOT RESOLVED", "N", "N", "N", "N", "N", "N", "N", "TREATMENT", "2013-09-14", "2013-09-14", "", 19.0, 19.0, null]
["CDISCPILOT01", "AE", "01-704-1010", 6.0, "E07", "ARTHRALGIA", "KNEE PAIN", null, "ARTHRALGIA", null, "HLT_0375", null, "HLGT_0610", null, "MUSCULOSKELETAL AND CONNECTIVE TISSUE DISORDERS", null, "MUSCULOSKELETAL AND CONNECTIVE TISSUE DISORDERS", null, "MILD", "N", "", "NONE", "NOT RECOVERED/NOT RESOLVED", "N", "N", "N", "N", "N", "N", "N", "TREATMENT", "2014-07-09", "2014-07-06", "", 139.0, 136.0, null]
["CDISCPILOT01", "AE", "01-704-1010", 7.0, "E08", "CONTUSION", "BRUISE OF HEAD", null, "CONTUSION", null, "HLT_0713", null, "HLGT_0381", null, "INJURY, POISONING AND PROCEDURAL COMPLICATIONS", null, "INJURY, POISONING AND PROCEDURAL COMPLICATIONS", null, "MILD", "N", "", "NONE", "NOT RECOVERED/NOT RESOLVED", "N", "N", "N", "N", "N", "N", "N", "TREATMENT", "2014-07-09", "2014-07-06", "", 139.0, 136.0, null]
["CDISCPILOT01", "AE", "01-704-1010", 1.0, "E01", "CYSTITIS", "BLADDER INFECTION", null, "CYSTITIS", null, "HLT_0739", null, "HLGT_0129", null, "INFECTIONS AND INFESTATIONS", null, "INFECTIONS AND INFESTATIONS", null, "MILD", "N", "", "NONE", "RECOVERED/RESOLVED", "N", "N", "N", "N", "N", "N", "N", "TREATMENT", "2014-03-08", "2014-02-27", "2014-03-06", 16.0, 7.0, 14.0]
["CDISCPILOT01", "AE", "01-704-1010", 3.0, "E04", "DIARRHOEA", "DIARRHEA", null, "DIARRHOEA", null, "HLT_0148", null, "HLGT_0588", null, "GASTROINTESTINAL DISORDERS", null, "GASTROINTESTINAL DISORDERS", null, "MILD", "N", "", "NONE", "RECOVERED/RESOLVED", "N", "N", "N", "N", "N", "N", "N", "TREATMENT", "2014-07-09", "2014-07-05", "2014-07-06", 139.0, 135.0, 136.0]
["CDISCPILOT01", "AE", "01-704-1010", 4.0, "E05", "EXCORIATION", "ABRASION NOS", null, "EXCORIATION", null, "HLT_0738", null, "HLGT_0511", null, "INJURY, POISONING AND PROCEDURAL COMPLICATIONS", null, "INJURY, POISONING AND PROCEDURAL COMPLICATIONS", null, "MILD", "N", "", "NONE", "NOT RECOVERED/NOT RESOLVED", "N", "N", "N", "N", "N", "N", "N", "TREATMENT", "2014-07-09", "2014-07-06", "", 139.0, 136.0, null]
["CDISCPILOT01", "AE", "01-704-1010", 5.0, "E06", "SKIN LACERATION", "SKIN TEAR", null, "SKIN LACERATION", null, "HLT_0075", null, "HLGT_0118", null, "INJURY, POISONING AND PROCEDURAL COMPLICATIONS", null, "INJURY, POISONING AND PROCEDURAL COMPLICATIONS", null, "MILD", "N", "", "NONE", "NOT RECOVERED/NOT RESOLVED", "N", "N", "N", "N", "N", "N", "N", "TREATMENT", "2014-07-09", "2014-07-06", "", 139.0, 136.0, null]
["CDISCPILOT01", "AE", "01-704-1010", 2.0, "E03", "VOMITING", "VOMITING", null, "VOMITING", null, "HLT_0016", null, "HLGT_0350", null, "GASTROINTESTINAL DISORDERS", null, "GASTROINTESTINAL DISORDERS", null, "MILD", "N", "", "NONE", "RECOVERED/RESOLVED", "N", "N", "N", "N", "N", "N", "N", "TREATMENT", "2014-07-09", "2014-07-05", "2014-07-06", 139.0, 135.0, 136.0]
["CDISCPILOT01", "AE", "01-704-1017", 4.0, "E16", "CARDIAC DISORDER", "CARDIAC DISORDER", null, "CARDIAC DISORDER", null, "HLT_0507", null, "HLGT_0126", null, "CARDIAC DISORDERS", null, "CARDIAC DISORDERS", null, "MILD", "N", "", "NONE", "NOT RECOVERED/NOT RESOLVED", "N", "N", "N", "N", "N", "N", "N", "TREATMENT", "2013-11-09", "2013-11-01", "", 35.0, 27.0, null]
["CDISCPILOT01", "AE", "01-704-1017", 3.0, "E13", "INFLUENZA", "FLU", null, "INFLUENZA", null, "HLT_0125", null, "HLGT_0081", null, "INFECTIONS AND INFESTATIONS", null, "INFECTIONS AND INFESTATIONS", null, "MILD", "N", "", "NONE", "RECOVERED/RESOLVED", "N", "N", "N", "N", "N", "N", "N", "TREATMENT", "2013-11-09", "2013-11-01", "2013-11-08", 35.0, 27.0, 34.0]
["CDISCPILOT01", "AE", "01-704-1017", 1.0, "E14", "MYOCARDIAL INFARCTION", "MYOCARDIAL INFARCTION", null, "MYOCARDIAL INFARCTION", null, "HLT_0649", null, "HLGT_0688", null, "CARDIAC DISORDERS", null, "CARDIAC DISORDERS", null, "MILD", "N", "", "NONE", "NOT RECOVERED/NOT RESOLVED", "N", "N", "N", "N", "N", "N", "N", "TREATMENT", "2013-10-19", "2013-10-19", "", 14.0, 14.0, null]
["CDISCPILOT01", "AE", "01-704-1017", 8.0, "E12", "PRURITUS", "ITCHING", null, "PRURITUS", null, "HLT_0778", null, "HLGT_0695", null, "SKIN AND SUBCUTANEOUS TISSUE DISORDERS", null, "SKIN AND SUBCUTANEOUS TISSUE DISORDERS", null, "MILD", "N", "", "PROBABLE", "RECOVERED/RESOLVED", "N", "N", "N", "N", "N", "N", "N", "TREATMENT", "2013-11-24", "2013-11-05", "2013-11-22", 50.0, 31.0, 48.0]
["CDISCPILOT01", "AE", "01-704-1017", 7.0, "E11", "RASH", "RASH", null, "RASH", null, "HLT_0762", null, "HLGT_0198", null, "SKIN AND SUBCUTANEOUS TISSUE DISORDERS", null, "SKIN AND SUBCUTANEOUS TISSUE DISORDERS", null, "MILD", "N", "", "PROBABLE", "RECOVERED/RESOLVED", "N", "N", "N", "N", "N", "N", "N", "TREATMENT", "2013-11-24", "2013-11-05", "2013-11-22", 50.0, 31.0, 48.0]
["CDISCPILOT01", "AE", "01-704-1017", 2.0, "E15", "VENTRICULAR SEPTAL DEFECT", "VENTRICULAR SEPTAL DEFECT", null, "VENTRICULAR SEPTAL DEFECT", null, "HLT_0589", null, "HLGT_0747", null, "CONGENITAL, FAMILIAL AND GENETIC DISORDERS", null, "CONGENITAL, FAMILIAL AND GENETIC DISORDERS", null, "MILD", "N", "", "NONE", "NOT RECOVERED/NOT RESOLVED", "N", "N", "N", "N", "N", "N", "N", "TREATMENT", "2013-10-19", "2013-10-19", "", 14.0, 14.0, null]
["CDISCPILOT01", "AE", "01-704-1025", 5.0, "E05", "ELECTROCARDIOGRAM ST SEGMENT DEPRESSION", "ST SEGMENT DEPRESSED", null, "ELECTROCARDIOGRAM ST SEGMENT DEPRESSION", null, "HLT_0610", null, "HLGT_0220", null, "INVESTIGATIONS", null, "INVESTIGATIONS", null, "MILD", "N", "", "POSSIBLE", "RECOVERED/RESOLVED", "N", "N", "N", "N", "N", "N", "N", "TREATMENT", "2013-11-29", "2013-10-11", "2013-10-25", 64.0, 15.0, 29.0]
["CDISCPILOT01", "AE", "01-704-1025", 2.0, "E02", "PALPITATIONS", "PALPITATIONS", null, "PALPITATIONS", null, "HLT_0493", null, "HLGT_0593", null, "CARDIAC DISORDERS", null, "CARDIAC DISORDERS", null, "MODERATE", "N", "", "REMOTE", "RECOVERED/RESOLVED", "N", "N", "N", "N", "N", "N", "N", "TREATMENT", "2013-10-11", "2013-09-28", "2013-09-30", 15.0, 2.0, 4.0]
["CDISCPILOT01", "AE", "01-704-1025", 1.0, "E01", "VERTIGO", "VERTIGO", null, "VERTIGO", null, "HLT_0255", null, "HLGT_0147", null, "EAR AND LABYRINTH DISORDERS", null, "EAR AND LABYRINTH DISORDERS", null, "MODERATE", "N", "", "POSSIBLE", "RECOVERED/RESOLVED", "N", "N", "N", "N", "N", "N", "N", "TREATMENT", "2013-10-11", "2013-09-28", "2013-09-30", 15.0, 2.0, 4.0]
["CDISCPILOT01", "AE", "01-704-1025", 6.0, "E06", "WOLFF-PARKINSON-WHITE SYNDROME", "WOLFF-PARKINSON-WHITE SYNDROME", null, "WOLFF-PARKINSON-WHITE SYNDROME", null, "HLT_0612", null, "HLGT_0218", null, "CARDIAC DISORDERS", null, "CARDIAC DISORDERS", null, "MILD", "N", "", "POSSIBLE", "RECOVERED/RESOLVED", "N", "N", "N", "N", "N", "N", "N", "TREATMENT", "2013-11-29", "2013-10-25", "2013-11-29", 64.0, 29.0, 64.0]
["CDISCPILOT01", "AE", "01-704-1065", 1.0, "E13", "ABDOMINAL DISCOMFORT", "ABDOMINAL DISCOMFORT", null, "ABDOMINAL DISCOMFORT", null, "HLT_0012", null, "HLGT_0332", null, "GASTROINTESTINAL DISORDERS", null, "GASTROINTESTINAL DISORDERS", null, "MILD", "N", "", "REMOTE", "NOT RECOVERED/NOT RESOLVED", "N", "N", "N", "N", "N", "N", "N", "TREATMENT", "2013-11-07", "2013-10-26", "", 15.0, 3.0, null]
["CDISCPILOT01", "AE", "01-704-1065", 4.0, "E12", "APPLICATION SITE IRRITATION", "APPLICATION SITE BURNING", null, "APPLICATION SITE IRRITATION", null, "HLT_0061", null, "HLGT_0346", null, "GENERAL DISORDERS AND ADMINISTRATION SITE CONDITIONS", null, "GENERAL DISORDERS AND ADMINISTRATION SITE CONDITIONS", null, "MILD", "N", "", "PROBABLE", "NOT RECOVERED/NOT RESOLVED", "N", "N", "N", "N", "N", "N", "N", "TREATMENT", "2013-11-25", "2013-11-09", "", 33.0, 17.0, null]
["CDISCPILOT01", "AE", "01-704-1065", 3.0, "E10", "APPLICATION SITE PRURITUS", "APPLICATION SITE ITCHING", null, "APPLICATION SITE PRURITUS", null, "HLT_0317", null, "HLGT_0338", null, "GENERAL DISORDERS AND ADMINISTRATION SITE CONDITIONS", null, "GENERAL DISORDERS AND ADMINISTRATION SITE CONDITIONS", null, "MODERATE", "N", "", "PROBABLE", "NOT RECOVERED/NOT RESOLVED", "N", "N", "N", "N", "N", "N", "N", "TREATMENT", "2013-11-07", "2013-10-27", "", 15.0, 4.0, null]
["CDISCPILOT01", "AE", "01-704-1065", 7.0, "E16", "CHILLS", "CHILLS", null, "CHILLS", null, "HLT_0586", null, "HLGT_0161", null, "GENERAL DISORDERS AND ADMINISTRATION SITE CONDITIONS", null, "GENERAL DISORDERS AND ADMINISTRATION SITE CONDITIONS", null, "MILD", "N", "", "REMOTE", "RECOVERED/RESOLVED", "N", "N", "N", "N", "N", "N", "N", "TREATMENT", "2013-11-25", "2013-11-17", "2013-11-17", 33.0, 25.0, 25.0]
["CDISCPILOT01", "AE", "01-704-1065", 9.0, "E18", "DIARRHOEA", "DIARRHEA", null, "DIARRHOEA", null, "HLT_0148", null, "HLGT_0588", null, "GASTROINTESTINAL DISORDERS", null, "GASTROINTESTINAL DISORDERS", null, "MILD", "N", "", "REMOTE", "RECOVERED/RESOLVED", "N", "N", "N", "N", "N", "N", "N", "TREATMENT", "2013-12-20", "2013-12-15", "2013-12-15", 58.0, 53.0, 53.0]
["CDISCPILOT01", "AE", "01-704-1065", 8.0, "E17", "DIZZINESS", "DIZZINESS", null, "DIZZINESS", null, "HLT_0619", null, "HLGT_0751", null, "NERVOUS SYSTEM DISORDERS", null, "NERVOUS SYSTEM DISORDERS", null, "MILD", "N", "", "REMOTE", "RECOVERED/RESOLVED", "N", "N", "N", "N", "N", "N", "N", "TREATMENT", "2013-11-25", "2013-11-17", "2013-11-17", 33.0, 25.0, 25.0]
["CDISCPILOT01", "AE", "01-704-1065", 6.0, "E15", "HYPERHIDROSIS", "PERSPIRATION EXCESSIVE", null, "HYPERHIDROSIS", null, "HLT_0587", null, "HLGT_0005", null, "SKIN AND SUBCUTANEOUS TISSUE DISORDERS", null, "SKIN AND SUBCUTANEOUS TISSUE DISORDERS", null, "MILD", "N", "", "POSSIBLE", "NOT RECOVERED/NOT RESOLVED", "N", "N", "N", "N", "N", "N", "N", "TREATMENT", "2013-11-25", "2013-11-09", "", 33.0, 17.0, null]
["CDISCPILOT01", "AE", "01-704-1065", 5.0, "E14", "MALAISE", "MALAISE", null, "MALAISE", null, "HLT_0456", null, "HLGT_0178", null, "GENERAL DISORDERS AND ADMINISTRATION SITE CONDITIONS", null, "GENERAL DISORDERS AND ADMINISTRATION SITE CONDITIONS", null, "MILD", "N", "", "POSSIBLE", "NOT RECOVERED/NOT RESOLVED", "N", "N", "N", "N", "N", "N", "N", "TREATMENT", "2013-11-25", "2013-11-09", "", 33.0, 17.0, null]
["CDISCPILOT01", "AE", "01-704-1065", 2.0, "E07", "RASH", "RASH", null, "RASH", null, "HLT_0762", null, "HLGT_0198", null, "SKIN AND SUBCUTANEOUS TISSUE DISORDERS", null, "SKIN AND SUBCUTANEOUS TISSUE DISORDERS", null, "MILD", "N", "", "PROBABLE", "NOT RECOVERED/NOT RESOLVED", "N", "N", "N", "N", "N", "N", "N", "TREATMENT", "2013-11-07", "2013-10-27", "", 15.0, 4.0, null]
["CDISCPILOT01", "AE", "01-704-1065", 10.0, "E19", "SINUS BRADYCARDIA", "BRADYCARDIA SINUS", null, "SINUS BRADYCARDIA", null, "HLT_0644", null, "HLGT_0500", null, "CARDIAC DISORDERS", null, "CARDIAC DISORDERS", null, "MILD", "N", "", "NONE", "NOT RECOVERED/NOT RESOLVED", "N", "N", "N", "N", "N", "N", "N", "TREATMENT", "2013-12-24", "2013-12-24", "", 62.0, 62.0, null]
["CDISCPILOT01", "AE", "01-704-1074", 2.0, "E09", "ERYTHEMA", "SKIN RED", null, "ERYTHEMA", null, "HLT_0284", null, "HLGT_0192", null, "SKIN AND SUBCUTANEOUS TISSUE DISORDERS", null, "SKIN AND SUBCUTANEOUS TISSUE DISORDERS", null, "MILD", "N", "", "PROBABLE", "NOT RECOVERED/NOT RESOLVED", "N", "N", "N", "N", "N", "N", "N", "TREATMENT", "2014-02-09", "2014-02-09", "", 19.0, 19.0, null]
["CDISCPILOT01", "AE", "01-704-1074", 1.0, "E08", "PRURITUS", "ITCHING", null, "PRURITUS", null, "HLT_0778", null, "HLGT_0695", null, "SKIN AND SUBCUTANEOUS TISSUE DISORDERS", null, "SKIN AND SUBCUTANEOUS TISSUE DISORDERS", null, "MILD", "N", "", "PROBABLE", "NOT RECOVERED/NOT RESOLVED", "N", "N", "N", "N", "N", "N", "N", "TREATMENT", "2014-01-22", "2014-01-22", "", 1.0, 1.0, null]
["CDISCPILOT01", "AE", "01-704-1093", 2.0, "E02", "BLOOD GLUCOSE INCREASED", "GLUCOSE INCREASED", null, "BLOOD GLUCOSE INCREASED", null, "HLT_0450", null, "HLGT_0188", null, "INVESTIGATIONS", null, "INVESTIGATIONS", null, "MILD", "N", "", "NONE", "RECOVERED/RESOLVED", "N", "N", "N", "N", "N", "N", "N", "TREATMENT", "2013-04-17", "2013-03-30", "2013-04-13", 34.0, 16.0, 30.0]
["CDISCPILOT01", "AE", "01-704-1093", 4.0, "E06", "PRURITUS", "ITCHING", null, "PRURITUS", null, "HLT_0778", null, "HLGT_0695", null, "SKIN AND SUBCUTANEOUS TISSUE DISORDERS", null, "SKIN AND SUBCUTANEOUS TISSUE DISORDERS", null, "MILD", "N", "", "PROBABLE", "NOT RECOVERED/NOT RESOLVED", "N", "N", "N", "N", "N", "N", "N", "TREATMENT", "2013-05-11", "2013-05-04", "", 58.0, 51.0, null]
["CDISCPILOT01", "AE", "01-704-1093", 3.0, "E05", "RASH", "RASH", null, "RASH", null, "HLT_0762", null, "HLGT_0198", null, "SKIN AND SUBCUTANEOUS TISSUE DISORDERS", null, "SKIN AND SUBCUTANEOUS TISSUE DISORDERS", null, "MILD", "N", "", "PROBABLE", "NOT RECOVERED/NOT RESOLVED", "N", "N", "N", "N", "N", "N", "N", "TREATMENT", "2013-05-11", "2013-05-04", "", 58.0, 51.0, null]
["CDISCPILOT01", "AE", "01-704-1114", 1.0, "E06", "ERYTHEMA", "REDNESS", null, "ERYTHEMA", null, "HLT_0284", null, "HLGT_0192", null, "SKIN AND SUBCUTANEOUS TISSUE DISORDERS", null, "SKIN AND SUBCUTANEOUS TISSUE DISORDERS", null, "MILD", "N", "", "PROBABLE", "RECOVERED/RESOLVED", "N", "N", "N", "N", "N", "N", "N", "TREATMENT", "2013-03-13", "2013-02-21", "2013-02-23", 50.0, 30.0, 32.0]
["CDISCPILOT01", "AE", "01-704-1114", 5.0, "E07", "INFLUENZA", "FLU", null, "INFLUENZA", null, "HLT_0125", null, "HLGT_0081", null, "INFECTIONS AND INFESTATIONS", null, "INFECTIONS AND INFESTATIONS", null, "MILD", "N", "", "NONE", "RECOVERED/RESOLVED", "N", "N", "N", "N", "N", "N", "N", "TREATMENT", "2013-06-16", "2013-06-07", "2013-06-13", 145.0, 136.0, 142.0]
["CDISCPILOT01", "AE", "01-704-1114", 2.0, "E03", "OEDEMA", "EDEMA", null, "OEDEMA", null, "HLT_0656", null, "HLGT_0036", null, "GENERAL DISORDERS AND ADMINISTRATION SITE CONDITIONS", null, "GENERAL DISORDERS AND ADMINISTRATION SITE CONDITIONS", null, "MILD", "N", "", "PROBABLE", "NOT RECOVERED/NOT RESOLVED", "N", "N", "N", "N", "N", "N", "N", "TREATMENT", "2013-03-13", "2013-02-23", "", 50.0, 32.0, null]
["CDISCPILOT01", "AE", "01-704-1114", 4.0, "E05", "PRURITUS", "ITCHING", null, "PRURITUS", null, "HLT_0778", null, "HLGT_0695", null, "SKIN AND SUBCUTANEOUS TISSUE DISORDERS", null, "SKIN AND SUBCUTANEOUS TISSUE DISORDERS", null, "MILD", "N", "", "PROBABLE", "NOT RECOVERED/NOT RESOLVED", "N", "N", "N", "N", "N", "N", "N", "TREATMENT", "2013-03-26", "2013-03-23", "", 63.0, 60.0, null]
["CDISCPILOT01", "AE", "01-704-1114", 3.0, "E04", "RASH", "RASH", null, "RASH", null, "HLT_0762", null, "HLGT_0198", null, "SKIN AND SUBCUTANEOUS TISSUE DISORDERS", null, "SKIN AND SUBCUTANEOUS TISSUE DISORDERS", null, "MILD", "N", "", "PROBABLE", "NOT RECOVERED/NOT RESOLVED", "N", "N", "N", "N", "N", "N", "N", "TREATMENT", "2013-03-26", "2013-03-23", "", 63.0, 60.0, null]
["CDISCPILOT01", "AE", "01-704-1120", 6.0, "E02", "NASOPHARYNGITIS", "COLD", null, "NASOPHARYNGITIS", null, "HLT_0036", null, "HLGT_0709", null, "INFECTIONS AND INFESTATIONS", null, "INFECTIONS AND INFESTATIONS", null, "MILD", "N", "", "NONE", "RECOVERED/RESOLVED", "N", "N", "N", "N", "N", "N", "N", "TREATMENT", "2014-03-10", "2013-12-28", "2014-02-03", 99.0, 27.0, 64.0]
["CDISCPILOT01", "AE", "01-704-1120", 4.0, "E04", "PRURITUS", "ITCHING", null, "PRURITUS", null, "HLT_0778", null, "HLGT_0695", null, "SKIN AND SUBCUTANEOUS TISSUE DISORDERS", null, "SKIN AND SUBCUTANEOUS TISSUE DISORDERS", null, "MILD", "N", "", "PROBABLE", "NOT RECOVERED/NOT RESOLVED", "N", "N", "N", "N", "N", "N", "N", "TREATMENT", "2014-01-27", "2014-01-27", "", 57.0, 57.0, null]
["CDISCPILOT01", "AE", "01-704-1120", 5.0, "E04", "PRURITUS", "ITCHING", null, "PRURITUS", null, "HLT_0778", null, "HLGT_0695", null, "SKIN AND SUBCUTANEOUS TISSUE DISORDERS", null, "SKIN AND SUBCUTANEOUS TISSUE DISORDERS", null, "MODERATE", "N", "", "PROBABLE", "NOT RECOVERED/NOT RESOLVED", "N", "N", "N", "N", "N", "N", "N", "TREATMENT", "2014-02-03", "2014-01-27", "", 64.0, 57.0, null]
["CDISCPILOT01", "AE", "01-704-1120", 1.0, "E01", "RASH", "RASH", null, "RASH", null, "HLT_0762", null, "HLGT_0198", null, "SKIN AND SUBCUTANEOUS TISSUE DISORDERS", null, "SKIN AND SUBCUTANEOUS TISSUE DISORDERS", null, "MILD", "N", "", "PROBABLE", "NOT RECOVERED/NOT RESOLVED", "N", "N", "N", "N", "N", "N", "N", "TREATMENT", "2013-12-29", "2013-12-23", "", 28.0, 22.0, null]
["CDISCPILOT01", "AE", "01-704-1120", 3.0, "E01", "RASH", "RASH", null, "RASH", null, "HLT_0762", null, "HLGT_0198", null, "SKIN AND SUBCUTANEOUS TISSUE DISORDERS", null, "SKIN AND SUBCUTANEOUS TISSUE DISORDERS", null, "MODERATE", "N", "", "PROBABLE", "NOT RECOVERED/NOT RESOLVED", "N", "N", "N", "N", "N", "N", "N", "TREATMENT", "2014-01-27", "2013-12-23", "", 57.0, 22.0, null]
["CDISCPILOT01", "AE", "01-704-1135", 1.0, "E01", "RASH", "RASH", null, "RASH", null, "HLT_0762", null, "HLGT_0198", null, "SKIN AND SUBCUTANEOUS TISSUE DISORDERS", null, "SKIN AND SUBCUTANEOUS TISSUE DISORDERS", null, "MILD", "N", "", "", "NOT RECOVERED/NOT RESOLVED", "N", "N", "N", "N", "N", "N", "N", "TREATMENT", "2013-12-11", "2013-12-08", "", 42.0, 39.0, null]
["CDISCPILOT01", "AE", "01-704-1135", 2.0, "E01", "RASH", "RASH", null, "RASH", null, "HLT_0762", null, "HLGT_0198", null, "SKIN AND SUBCUTANEOUS TISSUE DISORDERS", null, "SKIN AND SUBCUTANEOUS TISSUE DISORDERS", null, "SEVERE", "N", "", "", "NOT RECOVERED/NOT RESOLVED", "N", "N", "N", "N", "N", "N", "N", "TREATMENT", "2014-02-19", "2013-12-08", "", 112.0, 39.0, null]
["CDISCPILOT01", "AE", "01-704-1164", 2.0, "E02", "INFLUENZA", "FLU", null, "INFLUENZA", null, "HLT_0125", null, "HLGT_0081", null, "INFECTIONS AND INFESTATIONS", null, "INFECTIONS AND INFESTATIONS", null, "MILD", "N", "", "NONE", "RECOVERED/RESOLVED", "N", "N", "N", "N", "N", "N", "N", "TREATMENT", "2012-10-21", "2012-09-27", "2012-10-07", 33.0, 9.0, 19.0]
["CDISCPILOT01", "AE", "01-704-1164", 3.0, "E07", "OEDEMA PERIPHERAL", "SWELLING OF FEET", null, "OEDEMA PERIPHERAL", null, "HLT_0661", null, "HLGT_0137", null, "GENERAL DISORDERS AND ADMINISTRATION SITE CONDITIONS", null, "GENERAL DISORDERS AND ADMINISTRATION SITE CONDITIONS", null, "MILD", "N", "", "NONE", "RECOVERED/RESOLVED", "N", "N", "N", "N", "N", "N", "N", "TREATMENT", "2013-02-14", "2013-02-04", "2013-02-13", 149.0, 139.0, 148.0]
["CDISCPILOT01", "AE", "01-704-1218", 1.0, "E05", "BLOOD GLUCOSE INCREASED", "GLUCOSE INCREASED", null, "BLOOD GLUCOSE INCREASED", null, "HLT_0450", null, "HLGT_0188", null, "INVESTIGATIONS", null, "INVESTIGATIONS", null, "MILD", "N", "", "NONE", "NOT RECOVERED/NOT RESOLVED", "N", "N", "N", "N", "N", "N", "N", "TREATMENT", "2012-12-30", "2012-12-30", "", 42.0, 42.0, null]
["CDISCPILOT01", "AE", "01-704-1241", 2.0, "E03", "DYSPNOEA", "RESPIRATION LABORED", null, "DYSPNOEA", null, "HLT_0296", null, "HLGT_0255", null, "RESPIRATORY, THORACIC AND MEDIASTINAL DISORDERS", null, "RESPIRATORY, THORACIC AND MEDIASTINAL DISORDERS", null, "MILD", "N", "", "NONE", "NOT RECOVERED/NOT RESOLVED", "N", "N", "N", "N", "N", "N", "N", "TREATMENT", "2013-10-09", "2013-09-28", "", 46.0, 35.0, null]
["CDISCPILOT01", "AE", "01-704-1241", 1.0, "E04", "RASH", "RASH", null, "RASH", null, "HLT_0762", null, "HLGT_0198", null, "SKIN AND SUBCUTANEOUS TISSUE DISORDERS", null, "SKIN AND SUBCUTANEOUS TISSUE DISORDERS", null, "MODERATE", "N", "", "NONE", "NOT RECOVERED/NOT RESOLVED", "N", "N", "N", "N", "N", "N", "N", "SCREENING", "2013-10-09", "2013-08-14", "", 46.0, -11.0, null]
["CDISCPILOT01", "AE", "01-704-1266", 13.0, "E13", "ATRIAL FIBRILLATION", "ATRIAL FIBRILLATION", null, "ATRIAL FIBRILLATION", null, "HLT_0365", null, "HLGT_0012", null, "CARDIAC DISORDERS", null, "CARDIAC DISORDERS", null, "MILD", "N", "", "NONE", "RECOVERED/RESOLVED", "N", "N", "N", "N", "N", "N", "N", "TREATMENT", "2014-01-03", "2013-11-08", "2013-12-06", 83.0, 27.0, 55.0]
["CDISCPILOT01", "AE", "01-704-1266", 5.0, "E12", "ATRIAL FLUTTER", "ATRIAL FLUTTER", null, "ATRIAL FLUTTER", null, "HLT_0477", null, "HLGT_0627", null, "CARDIAC DISORDERS", null, "CARDIAC DISORDERS", null, "MILD", "N", "", "NONE", "RECOVERED/RESOLVED", "N", "N", "N", "N", "N", "N", "N", "TREATMENT", "2013-11-10", "2013-10-27", "2013-11-08", 29.0, 15.0, 27.0]
["CDISCPILOT01", "AE", "01-704-1266", 14.0, "E16", "BLISTER", "BLISTERING", null, "BLISTER", null, "HLT_0752", null, "HLGT_0267", null, "SKIN AND SUBCUTANEOUS TISSUE DISORDERS", null, "SKIN AND SUBCUTANEOUS TISSUE DISORDERS", null, "MILD", "N", "", "PROBABLE", "RECOVERED/RESOLVED", "N", "N", "N", "N", "N", "N", "N", "TREATMENT", "2014-01-03", "2013-11-15", "2013-12-14", 83.0, 34.0, 63.0]
["CDISCPILOT01", "AE", "01-704-1266", 2.0, "E10", "ERYTHEMA", "ERYTHEMA", null, "ERYTHEMA", null, "HLT_0284", null, "HLGT_0192", null, "SKIN AND SUBCUTANEOUS TISSUE DISORDERS", null, "SKIN AND SUBCUTANEOUS TISSUE DISORDERS", null, "MILD", "N", "", "PROBABLE", "NOT RECOVERED/NOT RESOLVED", "N", "N", "N", "N", "N", "N", "N", "TREATMENT", "2013-10-27", "2013-10-17", "2013-12-23", 15.0, 5.0, 72.0]
["CDISCPILOT01", "AE", "01-704-1266", 12.0, "E10", "ERYTHEMA", "ERYTHEMA", null, "ERYTHEMA", null, "HLT_0284", null, "HLGT_0192", null, "SKIN AND SUBCUTANEOUS TISSUE DISORDERS", null, "SKIN AND SUBCUTANEOUS TISSUE DISORDERS", null, "MODERATE", "N", "", "PROBABLE", "RECOVERED/RESOLVED", "N", "N", "N", "N", "N", "N", "N", "TREATMENT", "2014-01-03", "2013-10-17", "2013-12-23", 83.0, 5.0, 72.0]
["CDISCPILOT01", "AE", "01-704-1266", 16.0, "E18", "ERYTHEMA", "REDNESS", null, "ERYTHEMA", null, "HLT_0284", null, "HLGT_0192", null, "SKIN AND SUBCUTANEOUS TISSUE DISORDERS", null, "SKIN AND SUBCUTANEOUS TISSUE DISORDERS", null, "MILD", "N", "", "PROBABLE", "RECOVERED/RESOLVED", "N", "N", "N", "N", "N", "N", "N", "TREATMENT", "2014-01-03", "2013-12-06", "2013-12-23", 83.0, 55.0, 72.0]
["CDISCPILOT01", "AE", "01-704-1266", 10.0, "E15", "HYPERHIDROSIS", "PERSPIRATION EXCESSIVE", null, "HYPERHIDROSIS", null, "HLT_0587", null, "HLGT_0005", null, "SKIN AND SUBCUTANEOUS TISSUE DISORDERS", null, "SKIN AND SUBCUTANEOUS TISSUE DISORDERS", null, "MILD", "N", "", "POSSIBLE", "RECOVERED/RESOLVED", "N", "N", "N", "N", "N", "N", "N", "TREATMENT", "2013-12-06", "2013-11-09", "2013-12-04", 55.0, 28.0, 53.0]
["CDISCPILOT01", "AE", "01-704-1266", 15.0, "E17", "PRURITUS", "ITCHING", null, "PRURITUS", null, "HLT_0778", null, "HLGT_0695", null, "SKIN AND SUBCUTANEOUS TISSUE DISORDERS", null, "SKIN AND SUBCUTANEOUS TISSUE DISORDERS", null, "MILD", "N", "", "PROBABLE", "RECOVERED/RESOLVED", "N", "N", "N", "N", "N", "N", "N", "TREATMENT", "2014-01-03", "2013-11-15", "2013-12-23", 83.0, 34.0, 72.0]
["CDISCPILOT01", "AE", "01-704-1266", 1.0, "E11", "SEASONAL ALLERGY", "HAY FEVER", null, "SEASONAL ALLERGY", null, "HLT_0714", null, "HLGT_0782", null, "IMMUNE SYSTEM DISORDERS", null, "IMMUNE SYSTEM DISORDERS", null, "MILD", "N", "", "NONE", "NOT RECOVERED/NOT RESOLVED", "N", "N", "N", "N", "N", "N", "N", "SCREENING", "2013-10-11", "2013-10-06", "", -2.0, -7.0, null]
["CDISCPILOT01", "AE", "01-704-1323", 4.0, "E10", "OEDEMA", "EDEMA", null, "OEDEMA", null, "HLT_0656", null, "HLGT_0036", null, "GENERAL DISORDERS AND ADMINISTRATION SITE CONDITIONS", null, "GENERAL DISORDERS AND ADMINISTRATION SITE CONDITIONS", null, "MILD", "N", "", "PROBABLE", "NOT RECOVERED/NOT RESOLVED", "N", "N", "N", "N", "N", "N", "N", "TREATMENT", "2013-08-04", "2013-08-04", "", 28.0, 28.0, null]
["CDISCPILOT01", "AE", "01-704-1323", 3.0, "E09", "PRURITUS", "ITCHING", null, "PRURITUS", null, "HLT_0778", null, "HLGT_0695", null, "SKIN AND SUBCUTANEOUS TISSUE DISORDERS", null, "SKIN AND SUBCUTANEOUS TISSUE DISORDERS", null, "MILD", "N", "", "PROBABLE", "NOT RECOVERED/NOT RESOLVED", "N", "N", "N", "N", "N", "N", "N", "TREATMENT", "2013-08-04", "2013-08-04", "", 28.0, 28.0, null]
["CDISCPILOT01", "AE", "01-704-1323", 2.0, "E08", "RASH", "RASH", null, "RASH", null, "HLT_0762", null, "HLGT_0198", null, "SKIN AND SUBCUTANEOUS TISSUE DISORDERS", null, "SKIN AND SUBCUTANEOUS TISSUE DISORDERS", null, "MILD", "N", "", "PROBABLE", "NOT RECOVERED/NOT RESOLVED", "N", "N", "N", "N", "N", "N", "N", "TREATMENT", "2013-08-04", "2013-08-04", "", 28.0, 28.0, null]
["CDISCPILOT01", "AE", "01-704-1323", 1.0, "E07", "VIRAL INFECTION", "VIRAL INFECTION", null, "VIRAL INFECTION", null, "HLT_0733", null, "HLGT_0408", null, "INFECTIONS AND INFESTATIONS", null, "INFECTIONS AND INFESTATIONS", null, "MILD", "N", "", "NONE", "RECOVERED/RESOLVED", "N", "N", "N", "N", "N", "N", "N", "TREATMENT", "2013-08-04", "2013-07-30", "2013-08-03", 28.0, 23.0, 27.0]
["CDISCPILOT01", "AE", "01-704-1325", 2.0, "E05", "PRURITUS", "ITCHING", null, "PRURITUS", null, "HLT_0778", null, "HLGT_0695", null, "SKIN AND SUBCUTANEOUS TISSUE DISORDERS", null, "SKIN AND SUBCUTANEOUS TISSUE DISORDERS", null, "MILD", "N", "", "PROBABLE", "NOT RECOVERED/NOT RESOLVED", "N", "N", "N", "N", "N", "N", "N", "TREATMENT", "2014-07-16", "2014-07-04", "", 85.0, 73.0, null]
["CDISCPILOT01", "AE", "01-704-1325", 1.0, "E04", "RASH", "RASH", null, "RASH", null, "HLT_0762", null, "HLGT_0198", null, "SKIN AND SUBCUTANEOUS TISSUE DISORDERS", null, "SKIN AND SUBCUTANEOUS TISSUE DISORDERS", null, "MILD", "N", "", "PROBABLE", "NOT RECOVERED/NOT RESOLVED", "N", "N", "N", "N", "N", "N", "N", "TREATMENT", "2014-06-04", "2014-05-23", "", 43.0, 31.0, null]
["CDISCPILOT01", "AE", "01-704-1332", 4.0, "E05", "BURNING SENSATION", "BURNING SENSATION", null, "BURNING SENSATION", null, "HLT_0775", null, "HLGT_0456", null, "NERVOUS SYSTEM DISORDERS", null, "NERVOUS SYSTEM DISORDERS", null, "MILD", "N", "", "PROBABLE", "NOT RECOVERED/NOT RESOLVED", "N", "N", "N", "N", "N", "N", "N", "TREATMENT", "2014-02-03", "2014-02-03", "", 57.0, 57.0, null]
["CDISCPILOT01", "AE", "01-704-1332", 6.0, "E02", "PRURITUS", "ITCHING", null, "PRURITUS", null, "HLT_0778", null, "HLGT_0695", null, "SKIN AND SUBCUTANEOUS TISSUE DISORDERS", null, "SKIN AND SUBCUTANEOUS TISSUE DISORDERS", null, "MILD", "N", "", "PROBABLE", "RECOVERED/RESOLVED", "N", "N", "N", "N", "N", "N", "N", "TREATMENT", "2014-02-24", "2014-01-18", "2014-02-24", 78.0, 41.0, 78.0]
["CDISCPILOT01", "AE", "01-704-1332", 1.0, "E01", "RASH", "RASH", null, "RASH", null, "HLT_0762", null, "HLGT_0198", null, "SKIN AND SUBCUTANEOUS TISSUE DISORDERS", null, "SKIN AND SUBCUTANEOUS TISSUE DISORDERS", null, "MILD", "N", "", "NONE", "NOT RECOVERED/NOT RESOLVED", "N", "N", "N", "N", "N", "N", "N", "TREATMENT", "2013-12-23", "2013-12-10", "2014-02-24", 15.0, 2.0, 78.0]
["CDISCPILOT01", "AE", "01-704-1332", 5.0, "E01", "RASH", "RASH", null, "RASH", null, "HLT_0762", null, "HLGT_0198", null, "SKIN AND SUBCUTANEOUS TISSUE DISORDERS", null, "SKIN AND SUBCUTANEOUS TISSUE DISORDERS", null, "MODERATE", "N", "", "NONE", "RECOVERED/RESOLVED", "N", "N", "N", "N", "N", "N", "N", "TREATMENT", "2014-02-24", "2013-12-10", "2014-02-24", 78.0, 2.0, 78.0]
["CDISCPILOT01", "AE", "01-704-1351", 4.0, "E03", "FLATULENCE", "GAS", null, "FLATULENCE", null, "HLT_0356", null, "HLGT_0504", null, "GASTROINTESTINAL DISORDERS", null, "GASTROINTESTINAL DISORDERS", null, "MILD", "N", "", "NONE", "RECOVERED/RESOLVED", "N", "N", "N", "N", "N", "N", "N", "TREATMENT", "2014-04-18", "2013-10-27", "2014-04-04", 189.0, 16.0, 175.0]
["CDISCPILOT01", "AE", "01-704-1351", 3.0, "E02", "POLLAKIURIA", "URINARY FREQUENCY", null, "POLLAKIURIA", null, "HLT_0393", null, "HLGT_0560", null, "RENAL AND URINARY DISORDERS", null, "RENAL AND URINARY DISORDERS", null, "MILD", "N", "", "NONE", "RECOVERED/RESOLVED", "N", "N", "N", "N", "N", "N", "N", "TREATMENT", "2014-04-18", "2013-10-27", "2014-04-04", 189.0, 16.0, 175.0]
["CDISCPILOT01", "AE", "01-704-1388", 1.0, "E01", "HEADACHE", "HEADACHE", null, "HEADACHE", null, "HLT_0064", null, "HLGT_0344", null, "NERVOUS SYSTEM DISORDERS", null, "NERVOUS SYSTEM DISORDERS", null, "MODERATE", "N", "", "NONE", "NOT RECOVERED/NOT RESOLVED", "N", "N", "N", "N", "N", "N", "N", "SCREENING", "2013-03-27", "2012-08-23", "", 111.0, -106.0, null]
["CDISCPILOT01", "AE", "01-704-1435", 1.0, "E08", "PARKINSON'S DISEASE", "DISEASE PARKINSON'S", null, "PARKINSON'S DISEASE", null, "HLT_0279", null, "HLGT_0313", null, "NERVOUS SYSTEM DISORDERS", null, "NERVOUS SYSTEM DISORDERS", null, "MILD", "N", "", "NONE", "NOT RECOVERED/NOT RESOLVED", "N", "N", "N", "N", "N", "N", "N", "TREATMENT", "2013-01-12", "2013-01-06", "", 57.0, 51.0, null]
["CDISCPILOT01", "AE", "01-704-1445", 1.0, "E06", "COMPLETED SUICIDE", "SUICIDE", null, "COMPLETED SUICIDE", null, "HLT_0625", null, "HLGT_0013", null, "PSYCHIATRIC DISORDERS", null, "PSYCHIATRIC DISORDERS", null, "SEVERE", "N", "", "NONE", "FATAL", "N", "N", "N", "Y", "N", "N", "N", "TREATMENT", "2014-11-01", "2014-10-31", "2014-10-31", 175.0, 174.0, 174.0]
["CDISCPILOT01", "AE", "01-705-1031", 1.0, "E02", "RASH", "RASH", null, "RASH", null, "HLT_0762", null, "HLGT_0198", null, "SKIN AND SUBCUTANEOUS TISSUE DISORDERS", null, "SKIN AND SUBCUTANEOUS TISSUE DISORDERS", null, "MILD", "N", "", "POSSIBLE", "NOT RECOVERED/NOT RESOLVED", "N", "N", "N", "N", "N", "N", "N", "TREATMENT", "2013-12-25", "2013-12-25", "", 29.0, 29.0, null]
["CDISCPILOT01", "AE", "01-705-1059", 1.0, "E02", "ERYTHEMA", "ERYTHEMA", null, "ERYTHEMA", null, "HLT_0284", null, "HLGT_0192", null, "SKIN AND SUBCUTANEOUS TISSUE DISORDERS", null, "SKIN AND SUBCUTANEOUS TISSUE DISORDERS", null, "MODERATE", "N", "", "PROBABLE", "NOT RECOVERED/NOT RESOLVED", "N", "N", "N", "N", "N", "N", "N", "TREATMENT", "2013-11-07", "2013-11-02", "", 95.0, 90.0, null]
["CDISCPILOT01", "AE", "01-705-1186", 1.0, "E02", "HYPERBILIRUBINAEMIA", "HYPERBILIRUBINEMIA", null, "HYPERBILIRUBINAEMIA", null, "HLT_0478", null, "HLGT_0087", null, "HEPATOBILIARY DISORDERS", null, "HEPATOBILIARY DISORDERS", null, "MODERATE", "N", "", "REMOTE", "NOT RECOVERED/NOT RESOLVED", "N", "N", "N", "N", "N", "N", "N", "TREATMENT", "2014-02-07", "2014-01-26", "", 31.0, 19.0, null]
["CDISCPILOT01", "AE", "01-705-1199", 2.0, "E06", "DYSPEPSIA", "PYROSIS", null, "DYSPEPSIA", null, "HLT_0244", null, "HLGT_0716", null, "GASTROINTESTINAL DISORDERS", null, "GASTROINTESTINAL DISORDERS", null, "MODERATE", "N", "", "POSSIBLE", "RECOVERED/RESOLVED", "N", "N", "N", "N", "N", "N", "N", "TREATMENT", "2013-09-29", "2013-09-17", "2013-09-29", 14.0, 2.0, 14.0]
["CDISCPILOT01", "AE", "01-705-1280", 1.0, "E01", "PRURITUS", "PRURITUS", null, "PRURITUS", null, "HLT_0778", null, "HLGT_0695", null, "SKIN AND SUBCUTANEOUS TISSUE DISORDERS", null, "SKIN AND SUBCUTANEOUS TISSUE DISORDERS", null, "MILD", "N", "", "POSSIBLE", "NOT RECOVERED/NOT RESOLVED", "N", "N", "N", "N", "N", "N", "N", "TREATMENT", "2014-05-16", "2014-04-20", "", 120.0, 94.0, null]
["CDISCPILOT01", "AE", "01-705-1281", 2.0, "E05", "EXCORIATION", "ABRASIONS", null, "EXCORIATION", null, "HLT_0738", null, "HLGT_0511", null, "INJURY, POISONING AND PROCEDURAL COMPLICATIONS", null, "INJURY, POISONING AND PROCEDURAL COMPLICATIONS", null, "MODERATE", "N", "", "PROBABLE", "NOT RECOVERED/NOT RESOLVED", "N", "N", "N", "N", "N", "N", "N", "TREATMENT", "2014-02-18", "2014-01-30", "", 83.0, 64.0, null]
["CDISCPILOT01", "AE", "01-705-1281", 1.0, "E04", "PRURITUS", "PRURITUS", null, "PRURITUS", null, "HLT_0778", null, "HLGT_0695", null, "SKIN AND SUBCUTANEOUS TISSUE DISORDERS", null, "SKIN AND SUBCUTANEOUS TISSUE DISORDERS", null, "MILD", "N", "", "POSSIBLE", "NOT RECOVERED/NOT RESOLVED", "N", "N", "N", "N", "N", "N", "N", "TREATMENT", "2014-02-18", "2014-01-30", "", 83.0, 64.0, null]
["CDISCPILOT01", "AE", "01-705-1281", 3.0, "E04", "PRURITUS", "PRURITUS", null, "PRURITUS", null, "HLT_0778", null, "HLGT_0695", null, "SKIN AND SUBCUTANEOUS TISSUE DISORDERS", null, "SKIN AND SUBCUTANEOUS TISSUE DISORDERS", null, "MODERATE", "N", "", "POSSIBLE", "NOT RECOVERED/NOT RESOLVED", "N", "N", "N", "N", "N", "N", "N", "TREATMENT", "2014-03-17", "2014-01-30", "", 110.0, 64.0, null]
["CDISCPILOT01", "AE", "01-705-1292", 2.0, "E02", "ERYTHEMA", "ERYTHEMA", null, "ERYTHEMA", null, "HLT_0284", null, "HLGT_0192", null, "SKIN AND SUBCUTANEOUS TISSUE DISORDERS", null, "SKIN AND SUBCUTANEOUS TISSUE DISORDERS", null, "MODERATE", "N", "", "PROBABLE", "NOT RECOVERED/NOT RESOLVED", "N", "N", "N", "N", "N", "N", "N", "TREATMENT", "2014-03-03", "2014-02-13", "", 141.0, 123.0, null]
["CDISCPILOT01", "AE", "01-705-1292", 1.0, "E01", "PRURITUS", "ITCHY", null, "PRURITUS", null, "HLT_0778", null, "HLGT_0695", null, "SKIN AND SUBCUTANEOUS TISSUE DISORDERS", null, "SKIN AND SUBCUTANEOUS TISSUE DISORDERS", null, "MILD", "N", "", "PROBABLE", "NOT RECOVERED/NOT RESOLVED", "N", "N", "N", "N", "N", "N", "N", "TREATMENT", "2013-10-29", "2013-10-28", "", 16.0, 15.0, null]
["CDISCPILOT01", "AE", "01-705-1303", 3.0, "E02", "PRURITUS", "PRURITUS", null, "PRURITUS", null, "HLT_0778", null, "HLGT_0695", null, "SKIN AND SUBCUTANEOUS TISSUE DISORDERS", null, "SKIN AND SUBCUTANEOUS TISSUE DISORDERS", null, "MILD", "N", "", "POSSIBLE", "RECOVERED/RESOLVED", "N", "N", "N", "N", "N", "N", "N", "TREATMENT", "2014-04-07", "2014-02-05", "2014-03-03", 113.0, 52.0, 78.0]
["CDISCPILOT01", "AE", "01-705-1303", 2.0, "E03", "RASH", "RASH", null, "RASH", null, "HLT_0762", null, "HLGT_0198", null, "SKIN AND SUBCUTANEOUS TISSUE DISORDERS", null, "SKIN AND SUBCUTANEOUS TISSUE DISORDERS", null, "MILD", "N", "", "POSSIBLE", "NOT RECOVERED/NOT RESOLVED", "N", "N", "N", "N", "N", "N", "N", "TREATMENT", "2014-02-10", "2014-02-05", "2014-03-03", 57.0, 52.0, 78.0]
["CDISCPILOT01", "AE", "01-705-1303", 4.0, "E03", "RASH", "RASH", null, "RASH", null, "HLT_0762", null, "HLGT_0198", null, "SKIN AND SUBCUTANEOUS TISSUE DISORDERS", null, "SKIN AND SUBCUTANEOUS TISSUE DISORDERS", null, "MODERATE", "N", "", "POSSIBLE", "RECOVERED/RESOLVED", "N", "N", "N", "N", "N", "N", "N", "TREATMENT", "2014-04-07", "2014-02-05", "2014-03-03", 113.0, 52.0, 78.0]
["CDISCPILOT01", "AE", "01-705-1310", 1.0, "E02", "RASH PRURITIC", "PRURITIC RASH", null, "RASH PRURITIC", null, "HLT_0127", null, "HLGT_0753", null, "SKIN AND SUBCUTANEOUS TISSUE DISORDERS", null, "SKIN AND SUBCUTANEOUS TISSUE DISORDERS", null, "MODERATE", "N", "", "POSSIBLE", "NOT RECOVERED/NOT RESOLVED", "N", "N", "N", "N", "N", "N", "N", "TREATMENT", "2013-11-22", "2013-11-14", "", 21.0, 13.0, null]
["CDISCPILOT01", "AE", "01-705-1310", 2.0, "E03", "WOUND HAEMORRHAGE", "WOUND BLEEDING", null, "WOUND HAEMORRHAGE", null, "HLT_0154", null, "HLGT_0162", null, "VASCULAR DISORDERS", null, "VASCULAR DISORDERS", null, "MODERATE", "N", "", "POSSIBLE", "NOT RECOVERED/NOT RESOLVED", "N", "N", "N", "N", "N", "N", "N", "TREATMENT", "2014-01-23", "2014-01-09", "", 83.0, 69.0, null]
["CDISCPILOT01", "AE", "01-705-1349", 4.0, "E06", "ELECTROCARDIOGRAM ST SEGMENT DEPRESSION", "ST SEGMENT DEPRESSED", null, "ELECTROCARDIOGRAM ST SEGMENT DEPRESSION", null, "HLT_0610", null, "HLGT_0220", null, "INVESTIGATIONS", null, "INVESTIGATIONS", null, "MILD", "N", "", "REMOTE", "NOT RECOVERED/NOT RESOLVED", "N", "N", "N", "N", "N", "N", "N", "TREATMENT", "2013-08-25", "2013-08-25", "", 169.0, 169.0, null]
["CDISCPILOT01", "AE", "01-705-1349", 1.0, "E03", "NAUSEA", "NAUSEA", null, "NAUSEA", null, "HLT_0742", null, "HLGT_0326", null, "GASTROINTESTINAL DISORDERS", null, "GASTROINTESTINAL DISORDERS", null, "MILD", "N", "", "REMOTE", "RECOVERED/RESOLVED", "N", "N", "N", "N", "N", "N", "N", "TREATMENT", "2013-04-17", "2013-04-08", "2013-04-08", 39.0, 30.0, 30.0]
["CDISCPILOT01", "AE", "01-705-1349", 3.0, "E05", "VENTRICULAR HYPERTROPHY", "LEFT VENTRICULAR HYPERTROPHY", null, "VENTRICULAR HYPERTROPHY", null, "HLT_0104", null, "HLGT_0259", null, "CARDIAC DISORDERS", null, "CARDIAC DISORDERS", null, "MILD", "N", "", "REMOTE", "NOT RECOVERED/NOT RESOLVED", "N", "N", "N", "N", "N", "N", "N", "TREATMENT", "2013-08-25", "2013-08-25", "", 169.0, 169.0, null]
["CDISCPILOT01", "AE", "01-705-1349", 2.0, "E04", "VOMITING", "VOMITING", null, "VOMITING", null, "HLT_0016", null, "HLGT_0350", null, "GASTROINTESTINAL DISORDERS", null, "GASTROINTESTINAL DISORDERS", null, "MILD", "N", "", "REMOTE", "RECOVERED/RESOLVED", "N", "N", "N", "N", "N", "N", "N", "TREATMENT", "2013-04-17", "2013-04-11", "2013-04-11", 39.0, 33.0, 33.0]
["CDISCPILOT01", "AE", "01-705-1393", 1.0, "E01", "ABDOMINAL PAIN", "ABDOMINAL CRAMPS", null, "ABDOMINAL PAIN", null, "HLT_0217", null, "HLGT_0419", null, "GASTROINTESTINAL DISORDERS", null, "GASTROINTESTINAL DISORDERS", null, "MILD", "N", "", "REMOTE", "RECOVERED/RESOLVED", "N", "N", "N", "N", "N", "N", "N", "TREATMENT", "2012-09-27", "2012-09-19", "2012-09-24", 21.0, 13.0, 18.0]
["CDISCPILOT01", "AE", "01-705-1393", 3.0, "E05", "COLON CANCER", "COLON CANCER", null, "COLON CANCER", null, "HLT_0597", null, "HLGT_0339", null, "NEOPLASMS BENIGN, MALIGNANT AND UNSPECIFIED (INCL CYSTS AND POLYPS)", null, "NEOPLASMS BENIGN, MALIGNANT AND UNSPECIFIED (INCL CYSTS AND POLYPS)", null, "SEVERE", "N", "", "NONE", "RECOVERED/RESOLVED", "Y", "N", "N", "N", "Y", "N", "N", "TREATMENT", "2013-02-20", "2013-01-21", "2013-01-24", 167.0, 137.0, 140.0]
["CDISCPILOT01", "AE", "01-705-1393", 4.0, "E04", "PRURITUS", "PRURITUS", null, "PRURITUS", null, "HLT_0778", null, "HLGT_0695", null, "SKIN AND SUBCUTANEOUS TISSUE DISORDERS", null, "SKIN AND SUBCUTANEOUS TISSUE DISORDERS", null, "MILD", "N", "", "PROBABLE", "RECOVERED/RESOLVED", "N", "N", "N", "N", "N", "N", "N", "SCREENING", "2013-04-25", "2011-12-05", "2013-02-20", 231.0, -277.0, 167.0]
["CDISCPILOT01", "AE", "01-705-1431", 2.0, "E04", "ANXIETY", "FEELING ANXIOUS", null, "ANXIETY", null, "HLT_0559", null, "HLGT_0570", null, "PSYCHIATRIC DISORDERS", null, "PSYCHIATRIC DISORDERS", null, "MILD", "N", "", "POSSIBLE", "RECOVERED/RESOLVED", "N", "N", "N", "N", "N", "N", "N", "TREATMENT", "2013-07-07", "2013-07-04", "2013-07-06", 15.0, 12.0, 14.0]
["CDISCPILOT01", "AE", "01-705-1431", 1.0, "E05", "RASH ERYTHEMATOUS", "ERYTHEMATOUS RASH", null, "RASH ERYTHEMATOUS", null, "HLT_0336", null, "HLGT_0701", null, "SKIN AND SUBCUTANEOUS TISSUE DISORDERS", null, "SKIN AND SUBCUTANEOUS TISSUE DISORDERS", null, "MILD", "N", "", "PROBABLE", "NOT RECOVERED/NOT RESOLVED", "N", "N", "N", "N", "N", "N", "N", "SCREENING", "2013-06-23", "2013-06-22", "", 1.0, -1.0, null]
["CDISCPILOT01", "AE", "01-706-1041", 1.0, "E02", "ANXIETY", "ANXIETY ATTACK", null, "ANXIETY", null, "HLT_0559", null, "HLGT_0570", null, "PSYCHIATRIC DISORDERS", null, "PSYCHIATRIC DISORDERS", null, "MODERATE", "N", "", "REMOTE", "NOT RECOVERED/NOT RESOLVED", "N", "N", "N", "N", "N", "N", "N", "SCREENING", "2014-01-14", "2012-05", "", 15.0, null, null]
["CDISCPILOT01", "AE", "01-706-1041", 7.0, "E02", "ANXIETY", "ANXIETY ATTACK", null, "ANXIETY", null, "HLT_0559", null, "HLGT_0570", null, "PSYCHIATRIC DISORDERS", null, "PSYCHIATRIC DISORDERS", null, "MILD", "N", "", "REMOTE", "NOT RECOVERED/NOT RESOLVED", "N", "N", "N", "N", "N", "N", "N", "SCREENING", "2014-05-06", "2012-05", "", 127.0, null, null]
["CDISCPILOT01", "AE", "01-706-1041", 2.0, "E01", "DIARRHOEA", "DIARRHEA", null, "DIARRHOEA", null, "HLT_0148", null, "HLGT_0588", null, "GASTROINTESTINAL DISORDERS", null, "GASTROINTESTINAL DISORDERS", null, "MILD", "N", "", "REMOTE", "RECOVERED/RESOLVED", "N", "N", "N", "N", "N", "N", "N", "TREATMENT", "2014-01-14", "2014-01-07", "2014-01-08", 15.0, 8.0, 9.0]
["CDISCPILOT01", "AE", "01-706-1041", 5.0, "E07", "EXCORIATION", "ABRASIONS", null, "EXCORIATION", null, "HLT_0738", null, "HLGT_0511", null, "INJURY, POISONING AND PROCEDURAL COMPLICATIONS", null, "INJURY, POISONING AND PROCEDURAL COMPLICATIONS", null, "MILD", "N", "", "NONE", "RECOVERED/RESOLVED", "N", "N", "N", "N", "N", "N", "N", "TREATMENT", "2014-01-30", "2014-01-14", "2014-01-28", 31.0, 15.0, 29.0]
["CDISCPILOT01", "AE", "01-706-1041", 8.0, "E03", "IRRITABILITY", "IRRITABILITY", null, "IRRITABILITY", null, "HLT_0627", null, "HLGT_0461", null, "PSYCHIATRIC DISORDERS", null, "PSYCHIATRIC DISORDERS", null, "MODERATE", "N", "", "POSSIBLE", "RECOVERED/RESOLVED", "N", "N", "N", "N", "N", "N", "N", "TREATMENT", "2014-07-29", "2014-01-15", "2014-07-29", 211.0, 16.0, 211.0]
["CDISCPILOT01", "AE", "01-706-1041", 9.0, "E08", "PRURITUS", "ITCHING", null, "PRURITUS", null, "HLT_0778", null, "HLGT_0695", null, "SKIN AND SUBCUTANEOUS TISSUE DISORDERS", null, "SKIN AND SUBCUTANEOUS TISSUE DISORDERS", null, "MILD", "N", "", "POSSIBLE", "RECOVERED/RESOLVED", "N", "N", "N", "N", "N", "N", "N", "TREATMENT", "2014-07-29", "2014-03-04", "2014-07-29", 211.0, 64.0, 211.0]
["CDISCPILOT01", "AE", "01-706-1049", 1.0, "E01", "SYNCOPE", "FAINTING", null, "SYNCOPE", null, "HLT_0440", null, "HLGT_0310", null, "NERVOUS SYSTEM DISORDERS", null, "NERVOUS SYSTEM DISORDERS", null, "MODERATE", "N", "", "POSSIBLE", "RECOVERED/RESOLVED", "N", "N", "N", "N", "N", "N", "N", "TREATMENT", "2013-06-11", "2013-06-03", "2013-06-03", 29.0, 21.0, 21.0]
["CDISCPILOT01", "AE", "01-706-1049", 2.0, "E02", "SYNCOPE", "SYNCOPAL ATTACK", null, "SYNCOPE", null, "HLT_0440", null, "HLGT_0310", null, "NERVOUS SYSTEM DISORDERS", null, "NERVOUS SYSTEM DISORDERS", null, "SEVERE", "N", "", "PROBABLE", "RECOVERED/RESOLVED", "N", "N", "N", "N", "Y", "N", "N", "TREATMENT", "2013-06-25", "2013-06-18", "2013-06-18", 43.0, 36.0, 36.0]
["CDISCPILOT01", "AE", "01-706-1384", 6.0, "E03", "ERYTHEMA", "ERYTHEMA", null, "ERYTHEMA", null, "HLT_0284", null, "HLGT_0192", null, "SKIN AND SUBCUTANEOUS TISSUE DISORDERS", null, "SKIN AND SUBCUTANEOUS TISSUE DISORDERS", null, "MODERATE", "N", "", "NONE", "RECOVERED/RESOLVED", "N", "N", "N", "N", "N", "N", "N", "TREATMENT", "2013-06-22", "2012-09-15", "2012-09-29", 281.0, 1.0, 15.0]
["CDISCPILOT01", "AE", "01-706-1384", 9.0, "E01", "ERYTHEMA", "ERYTHEMA", null, "ERYTHEMA", null, "HLT_0284", null, "HLGT_0192", null, "SKIN AND SUBCUTANEOUS TISSUE DISORDERS", null, "SKIN AND SUBCUTANEOUS TISSUE DISORDERS", null, "MODERATE", "N", "", "PROBABLE", "RECOVERED/RESOLVED", "N", "N", "N", "N", "N", "N", "N", "TREATMENT", "2013-06-22", "2012-09-23", "2012-09-29", 281.0, 9.0, 15.0]
["CDISCPILOT01", "AE", "01-706-1384", 8.0, "E05", "EXCORIATION", "ABRASIONS", null, "EXCORIATION", null, "HLT_0738", null, "HLGT_0511", null, "INJURY, POISONING AND PROCEDURAL COMPLICATIONS", null, "INJURY, POISONING AND PROCEDURAL COMPLICATIONS", null, "MODERATE", "N", "", "NONE", "RECOVERED/RESOLVED", "N", "N", "N", "N", "N", "N", "N", "TREATMENT", "2013-06-22", "2012-09-15", "2012-09-29", 281.0, 1.0, 15.0]
["CDISCPILOT01", "AE", "01-706-1384", 7.0, "E04", "PRURITUS", "PRURITIS", null, "PRURITUS", null, "HLT_0778", null, "HLGT_0695", null, "SKIN AND SUBCUTANEOUS TISSUE DISORDERS", null, "SKIN AND SUBCUTANEOUS TISSUE DISORDERS", null, "MODERATE", "N", "", "NONE", "RECOVERED/RESOLVED", "N", "N", "N", "N", "N", "N", "N", "TREATMENT", "2013-06-22", "2012-09-15", "2012-09-29", 281.0, 1.0, 15.0]
["CDISCPILOT01", "AE", "01-706-1384", 10.0, "E06", "PRURITUS", "PRURITIS", null, "PRURITUS", null, "HLT_0778", null, "HLGT_0695", null, "SKIN AND SUBCUTANEOUS TISSUE DISORDERS", null, "SKIN AND SUBCUTANEOUS TISSUE DISORDERS", null, "MODERATE", "N", "", "PROBABLE", "RECOVERED/RESOLVED", "N", "N", "N", "N", "N", "N", "N", "TREATMENT", "2013-06-22", "2012-09-23", "2012-09-29", 281.0, 9.0, 15.0]
["CDISCPILOT01", "AE", "01-707-1206", 4.0, "E03", "BLOOD CREATINE PHOSPHOKINASE INCREASED", "CPK INCREASE", null, "BLOOD CREATINE PHOSPHOKINASE INCREASED", null, "HLT_0404", null, "HLGT_0008", null, "INVESTIGATIONS", null, "INVESTIGATIONS", null, "MODERATE", "N", "", "POSSIBLE", "RECOVERED/RESOLVED", "N", "N", "N", "N", "N", "N", "N", "TREATMENT", "2013-12-23", "2013-11-26", "2013-12-09", 57.0, 30.0, 43.0]
["CDISCPILOT01", "AE", "01-707-1206", 8.0, "E06", "CONJUNCTIVITIS", "CONJUNCTIVITIS", null, "CONJUNCTIVITIS", null, "HLT_0584", null, "HLGT_0335", null, "EYE DISORDERS", null, "EYE DISORDERS", null, "MODERATE", "N", "", "REMOTE", "RECOVERED/RESOLVED", "N", "N", "N", "N", "N", "N", "N", "TREATMENT", "2014-03-16", "2014-02-08", "2014-02-22", 140.0, 104.0, 118.0]
["CDISCPILOT01", "AE", "01-707-1206", 5.0, "E05", "POSTNASAL DRIP", "POSTNASAL DRIP", null, "POSTNASAL DRIP", null, "HLT_0172", null, "HLGT_0032", null, "RESPIRATORY, THORACIC AND MEDIASTINAL DISORDERS", null, "RESPIRATORY, THORACIC AND MEDIASTINAL DISORDERS", null, "MILD", "N", "", "NONE", "RECOVERED/RESOLVED", "N", "N", "N", "N", "N", "N", "N", "TREATMENT", "2013-12-23", "2013-12-03", "2013-12-10", 57.0, 37.0, 44.0]
["CDISCPILOT01", "AE", "01-707-1206", 6.0, "E04", "SINUS ARRHYTHMIA", "SINUS ARRHYTHMIA", null, "SINUS ARRHYTHMIA", null, "HLT_0094", null, "HLGT_0630", null, "CARDIAC DISORDERS", null, "CARDIAC DISORDERS", null, "MILD", "N", "", "POSSIBLE", "RECOVERED/RESOLVED", "N", "N", "N", "N", "N", "N", "N", "TREATMENT", "2014-01-19", "2013-11-25", "2013-12-23", 84.0, 29.0, 57.0]
["CDISCPILOT01", "AE", "01-708-1019", 5.0, "E06", "DIZZINESS", "DIZZINESS", null, "DIZZINESS", null, "HLT_0619", null, "HLGT_0751", null, "NERVOUS SYSTEM DISORDERS", null, "NERVOUS SYSTEM DISORDERS", null, "MILD", "N", "", "POSSIBLE", "RECOVERED/RESOLVED", "N", "N", "N", "N", "N", "N", "N", "TREATMENT", "2014-01-23", "2014-01-01", "2014-01-01", 35.0, 13.0, 13.0]
["CDISCPILOT01", "AE", "01-708-1019", 1.0, "E02", "HEADACHE", "FRONTAL HEADACHE", null, "HEADACHE", null, "HLT_0064", null, "HLGT_0344", null, "NERVOUS SYSTEM DISORDERS", null, "NERVOUS SYSTEM DISORDERS", null, "SEVERE", "N", "", "POSSIBLE", "RECOVERED/RESOLVED", "N", "N", "N", "N", "N", "N", "N", "TREATMENT", "2014-01-23", "2013-12-31", "2013-12-31", 35.0, 12.0, 12.0]
["CDISCPILOT01", "AE", "01-708-1019", 2.0, "E03", "STUPOR", "STUPOR", null, "STUPOR", null, "HLT_0595", null, "HLGT_0513", null, "NERVOUS SYSTEM DISORDERS", null, "NERVOUS SYSTEM DISORDERS", null, "SEVERE", "N", "", "POSSIBLE", "RECOVERED/RESOLVED", "N", "N", "N", "N", "N", "N", "N", "TREATMENT", "2014-01-23", "2014-01-01", "2014-01-01", 35.0, 13.0, 13.0]
["CDISCPILOT01", "AE", "01-708-1019", 3.0, "E04", "TRANSIENT ISCHAEMIC ATTACK", "TRANSIENT ISCHEMIC ATTACKS", null, "TRANSIENT ISCHAEMIC ATTACK", null, "HLT_0041", null, "HLGT_0433", null, "NERVOUS SYSTEM DISORDERS", null, "NERVOUS SYSTEM DISORDERS", null, "SEVERE", "N", "", "POSSIBLE", "RECOVERED/RESOLVED", "N", "N", "N", "N", "N", "N", "N", "TREATMENT", "2014-01-23", "2014-01-01", "2014-01-01", 35.0, 13.0, 13.0]
["CDISCPILOT01", "AE", "01-708-1019", 4.0, "E05", "VISION BLURRED", "BLURRED VISION", null, "VISION BLURRED", null, "HLT_0120", null, "HLGT_0598", null, "EYE DISORDERS", null, "EYE DISORDERS", null, "MILD", "N", "", "POSSIBLE", "RECOVERED/RESOLVED", "N", "N", "N", "N", "N", "N", "N", "TREATMENT", "2014-01-23", "2014-01-01", "2014-01-01", 35.0, 13.0, 13.0]
["CDISCPILOT01", "AE", "01-708-1032", 1.0, "E05", "APPLICATION SITE VESICLES", "APPLICATION SITE BLISTER", null, "APPLICATION SITE VESICLES", null, "HLT_0180", null, "HLGT_0576", null, "GENERAL DISORDERS AND ADMINISTRATION SITE CONDITIONS", null, "GENERAL DISORDERS AND ADMINISTRATION SITE CONDITIONS", null, "MODERATE", "N", "", "PROBABLE", "RECOVERED/RESOLVED", "N", "N", "N", "N", "N", "N", "N", "TREATMENT", "2013-03-09", "2013-02-26", "2013-03-09", 29.0, 18.0, 29.0]
["CDISCPILOT01", "AE", "01-708-1084", 2.0, "E02", "DIZZINESS", "DIZZINESS", null, "DIZZINESS", null, "HLT_0619", null, "HLGT_0751", null, "NERVOUS SYSTEM DISORDERS", null, "NERVOUS SYSTEM DISORDERS", null, "MILD", "N", "", "POSSIBLE", "RECOVERED/RESOLVED", "N", "N", "N", "N", "N", "N", "N", "TREATMENT", "2013-06-09", "2013-05-23", "2013-05-23", 32.0, 15.0, 15.0]
["CDISCPILOT01", "AE", "01-708-1084", 4.0, "E07", "MYOCARDIAL INFARCTION", "MYOCARDIAL INFARCTION", null, "MYOCARDIAL INFARCTION", null, "HLT_0649", null, "HLGT_0688", null, "CARDIAC DISORDERS", null, "CARDIAC DISORDERS", null, "MILD", "N", "", "REMOTE", "RECOVERED/RESOLVED", "N", "N", "N", "N", "N", "N", "N", "TREATMENT", "2013-06-11", "2013-06-09", "2013-06-09", 34.0, 32.0, 32.0]
["CDISCPILOT01", "AE", "01-708-1084", 6.0, "E06", "SINUS BRADYCARDIA", "SINUS BRADYCARDIA", null, "SINUS BRADYCARDIA", null, "HLT_0644", null, "HLGT_0500", null, "CARDIAC DISORDERS", null, "CARDIAC DISORDERS", null, "MILD", "N", "", "REMOTE", "RECOVERED/RESOLVED", "N", "N", "N", "N", "N", "N", "N", "TREATMENT", "2013-07-07", "2013-06-23", "2013-06-23", 60.0, 46.0, 46.0]
["CDISCPILOT01", "AE", "01-708-1087", 3.0, "E03", "DIZZINESS", "DIZZINESS", null, "DIZZINESS", null, "HLT_0619", null, "HLGT_0751", null, "NERVOUS SYSTEM DISORDERS", null, "NERVOUS SYSTEM DISORDERS", null, "MILD", "N", "", "POSSIBLE", "RECOVERED/RESOLVED", "N", "N", "N", "N", "N", "N", "N", "TREATMENT", "2013-02-16", "2013-02-04", "2013-02-08", 118.0, 106.0, 110.0]
["CDISCPILOT01", "AE", "01-708-1087", 4.0, "E02", "HEADACHE", "HEADACHE", null, "HEADACHE", null, "HLT_0064", null, "HLGT_0344", null, "NERVOUS SYSTEM DISORDERS", null, "NERVOUS SYSTEM DISORDERS", null, "MILD", "N", "", "NONE", "NOT RECOVERED/NOT RESOLVED", "N", "N", "N", "N", "N", "N", "N", "TREATMENT", "2013-02-16", "2013-02-16", "", 118.0, 118.0, null]
["CDISCPILOT01", "AE", "01-708-1087", 2.0, "E05", "HEART RATE IRREGULAR", "HEARTBEATS IRREGULAR", null, "HEART RATE IRREGULAR", null, "HLT_0765", null, "HLGT_0140", null, "INVESTIGATIONS", null, "INVESTIGATIONS", null, "MILD", "N", "", "POSSIBLE", "RECOVERED/RESOLVED", "N", "N", "N", "N", "N", "N", "N", "TREATMENT", "2013-02-16", "2013-01-19", "2013-01-19", 118.0, 90.0, 90.0]
["CDISCPILOT01", "AE", "01-708-1087", 6.0, "E06", "HEART RATE IRREGULAR", "HEARTBEATS IRREGULAR", null, "HEART RATE IRREGULAR", null, "HLT_0765", null, "HLGT_0140", null, "INVESTIGATIONS", null, "INVESTIGATIONS", null, "MILD", "N", "", "POSSIBLE", "RECOVERED/RESOLVED", "N", "N", "N", "N", "N", "N", "N", "TREATMENT", "2013-04-10", "2013-03-16", "2013-03-16", 171.0, 146.0, 146.0]
["CDISCPILOT01", "AE", "01-708-1158", 1.0, "E05", "AGITATION", "AGITATION", null, "AGITATION", null, "HLT_0140", null, "HLGT_0170", null, "PSYCHIATRIC DISORDERS", null, "PSYCHIATRIC DISORDERS", null, "MILD", "N", "", "REMOTE", "NOT RECOVERED/NOT RESOLVED", "N", "N", "N", "N", "N", "N", "N", "TREATMENT", "2014-02-26", "2014-02-25", "", 19.0, 18.0, null]
["CDISCPILOT01", "AE", "01-708-1158", 2.0, "E07", "ERYTHEMA", "ERYTHEMA", null, "ERYTHEMA", null, "HLT_0284", null, "HLGT_0192", null, "SKIN AND SUBCUTANEOUS TISSUE DISORDERS", null, "SKIN AND SUBCUTANEOUS TISSUE DISORDERS", null, "MILD", "N", "", "PROBABLE", "RECOVERED/RESOLVED", "N", "N", "N", "N", "N", "N", "N", "TREATMENT", "2014-03-22", "2014-03-22", "2014-03-22", 43.0, 43.0, 43.0]
["CDISCPILOT01", "AE", "01-708-1178", 9.0, "E13", "ALCOHOL USE", "ALCOHOL USE", null, "ALCOHOL USE", null, "HLT_0138", null, "HLGT_0182", null, "SOCIAL CIRCUMSTANCES", null, "SOCIAL CIRCUMSTANCES", null, "MILD", "N", "", "NONE", "RECOVERED/RESOLVED", "N", "N", "N", "N", "N", "N", "N", "TREATMENT", "2014-04-06", "2014-03-24", "2014-03-24", 99.0, 86.0, 86.0]
["CDISCPILOT01", "AE", "01-708-1178", 5.0, "E06", "APPLICATION SITE PRURITUS", "APPLICATION SITE ITCHING", null, "APPLICATION SITE PRURITUS", null, "HLT_0317", null, "HLGT_0338", null, "GENERAL DISORDERS AND ADMINISTRATION SITE CONDITIONS", null, "GENERAL DISORDERS AND ADMINISTRATION SITE CONDITIONS", null, "MILD", "N", "", "PROBABLE", "RECOVERED/RESOLVED", "N", "N", "N", "N", "N", "N", "N", "TREATMENT", "2014-04-06", "2014-03-09", "2014-04-06", 99.0, 71.0, 99.0]
["CDISCPILOT01", "AE", "01-708-1178", 7.0, "E10", "ATRIAL FIBRILLATION", "ATRIAL FIBRILLATION", null, "ATRIAL FIBRILLATION", null, "HLT_0365", null, "HLGT_0012", null, "CARDIAC DISORDERS", null, "CARDIAC DISORDERS", null, "SEVERE", "N", "", "POSSIBLE", "RECOVERED/RESOLVED", "N", "N", "N", "N", "Y", "N", "N", "TREATMENT", "2014-04-06", "2014-03-24", "2014-03-26", 99.0, 86.0, 88.0]
["CDISCPILOT01", "AE", "01-708-1178", 8.0, "E11", "CYSTITIS", "BLADDER INFECTION", null, "CYSTITIS", null, "HLT_0739", null, "HLGT_0129", null, "INFECTIONS AND INFESTATIONS", null, "INFECTIONS AND INFESTATIONS", null, "MILD", "N", "", "REMOTE", "RECOVERED/RESOLVED", "N", "N", "N", "N", "N", "N", "N", "TREATMENT", "2014-04-06", "2014-03-24", "2014-03-28", 99.0, 86.0, 90.0]
["CDISCPILOT01", "AE", "01-708-1178", 6.0, "E09", "DIZZINESS", "LIGHT-HEADED", null, "DIZZINESS", null, "HLT_0619", null, "HLGT_0751", null, "NERVOUS SYSTEM DISORDERS", null, "NERVOUS SYSTEM DISORDERS", null, "SEVERE", "N", "", "POSSIBLE", "RECOVERED/RESOLVED", "N", "N", "N", "N", "Y", "N", "N", "TREATMENT", "2014-04-06", "2014-03-24", "2014-03-26", 99.0, 86.0, 88.0]
["CDISCPILOT01", "AE", "01-708-1178", 1.0, "E03", "FLANK PAIN", "FLANK PAIN", null, "FLANK PAIN", null, "HLT_0484", null, "HLGT_0543", null, "MUSCULOSKELETAL AND CONNECTIVE TISSUE DISORDERS", null, "MUSCULOSKELETAL AND CONNECTIVE TISSUE DISORDERS", null, "MILD", "N", "", "NONE", "NOT RECOVERED/NOT RESOLVED", "N", "N", "N", "N", "N", "N", "N", "SCREENING", "2013-12-19", "2013-12-19", "", -10.0, -10.0, null]
["CDISCPILOT01", "AE", "01-708-1178", 2.0, "E05", "NASOPHARYNGITIS", "COLD", null, "NASOPHARYNGITIS", null, "HLT_0036", null, "HLGT_0709", null, "INFECTIONS AND INFESTATIONS", null, "INFECTIONS AND INFESTATIONS", null, "MILD", "N", "", "NONE", "RECOVERED/RESOLVED", "N", "N", "N", "N", "N", "N", "N", "TREATMENT", "2014-03-09", "2014-03-01", "2014-03-08", 71.0, 63.0, 70.0]
["CDISCPILOT01", "AE", "01-708-1178", 4.0, "E08", "VENTRICULAR SEPTAL DEFECT", "VENTRICULAR SEPTAL DEFECT", null, "VENTRICULAR SEPTAL DEFECT", null, "HLT_0589", null, "HLGT_0747", null, "CONGENITAL, FAMILIAL AND GENETIC DISORDERS", null, "CONGENITAL, FAMILIAL AND GENETIC DISORDERS", null, "MILD", "N", "", "NONE", "NOT RECOVERED/NOT RESOLVED", "N", "N", "N", "N", "N", "N", "N", "TREATMENT", "2014-03-09", "2014-03-09", "", 71.0, 71.0, null]
["CDISCPILOT01", "AE", "01-708-1213", 2.0, "E03", "ATRIAL FIBRILLATION", "ATRIAL FIBRILLATION", null, "ATRIAL FIBRILLATION", null, "HLT_0365", null, "HLGT_0012", null, "CARDIAC DISORDERS", null, "CARDIAC DISORDERS", null, "MILD", "N", "", "POSSIBLE", "RECOVERED/RESOLVED", "N", "N", "N", "N", "N", "N", "N", "TREATMENT", "2013-02-26", "2013-02-22", "2013-02-22", 18.0, 14.0, 14.0]
["CDISCPILOT01", "AE", "01-708-1216", 4.0, "E05", "APPLICATION SITE ERYTHEMA", "APPLICATION SITE REDNESS", null, "APPLICATION SITE ERYTHEMA", null, "HLT_0617", null, "HLGT_0152", null, "GENERAL DISORDERS AND ADMINISTRATION SITE CONDITIONS", null, "GENERAL DISORDERS AND ADMINISTRATION SITE CONDITIONS", null, "MILD", "N", "", "PROBABLE", "RECOVERED/RESOLVED", "N", "N", "N", "N", "N", "N", "N", "TREATMENT", "2013-01-09", "2012-11-06", "2012-12-13", 78.0, 14.0, 51.0]
["CDISCPILOT01", "AE", "01-708-1216", 1.0, "E01", "APPLICATION SITE PRURITUS", "APPLICATION SITE ITCHING", null, "APPLICATION SITE PRURITUS", null, "HLT_0317", null, "HLGT_0338", null, "GENERAL DISORDERS AND ADMINISTRATION SITE CONDITIONS", null, "GENERAL DISORDERS AND ADMINISTRATION SITE CONDITIONS", null, "MILD", "N", "", "PROBABLE", "NOT RECOVERED/NOT RESOLVED", "N", "N", "N", "N", "N", "N", "N", "TREATMENT", "2012-11-08", "2012-11-06", "", 16.0, 14.0, null]
["CDISCPILOT01", "AE", "01-708-1216", 3.0, "E02", "APPLICATION SITE SWELLING", "APPLICATION SITE SWELLING", null, "APPLICATION SITE SWELLING", null, "HLT_0105", null, "HLGT_0236", null, "GENERAL DISORDERS AND ADMINISTRATION SITE CONDITIONS", null, "GENERAL DISORDERS AND ADMINISTRATION SITE CONDITIONS", null, "MILD", "N", "", "PROBABLE", "NOT RECOVERED/NOT RESOLVED", "N", "N", "N", "N", "N", "N", "N", "TREATMENT", "2012-11-22", "2012-11-22", "", 30.0, 30.0, null]
["CDISCPILOT01", "AE", "01-708-1253", 5.0, "E04", "CONJUNCTIVITIS", "CONJUNCTIVITIS", null, "CONJUNCTIVITIS", null, "HLT_0584", null, "HLGT_0335", null, "EYE DISORDERS", null, "EYE DISORDERS", null, "MILD", "N", "", "NONE", "RECOVERED/RESOLVED", "N", "N", "N", "N", "N", "N", "N", "SCREENING", "2013-05-21", "2013-05-06", "2013-05-16", 15.0, -1.0, 10.0]
["CDISCPILOT01", "AE", "01-708-1253", 4.0, "E03", "COUGH", "COUGH", null, "COUGH", null, "HLT_0701", null, "HLGT_0280", null, "RESPIRATORY, THORACIC AND MEDIASTINAL DISORDERS", null, "RESPIRATORY, THORACIC AND MEDIASTINAL DISORDERS", null, "MILD", "N", "", "NONE", "RECOVERED/RESOLVED", "N", "N", "N", "N", "N", "N", "N", "SCREENING", "2013-05-21", "2013-05-06", "2013-05-16", 15.0, -1.0, 10.0]
["CDISCPILOT01", "AE", "01-708-1253", 8.0, "E05", "DIZZINESS", "DIZZINESS", null, "DIZZINESS", null, "HLT_0619", null, "HLGT_0751", null, "NERVOUS SYSTEM DISORDERS", null, "NERVOUS SYSTEM DISORDERS", null, "MILD", "N", "", "POSSIBLE", "RECOVERED/RESOLVED", "N", "N", "N", "N", "N", "N", "N", "TREATMENT", "2013-06-09", "2013-06-07", "2013-06-07", 34.0, 32.0, 32.0]
["CDISCPILOT01", "AE", "01-708-1253", 6.0, "E02", "HEART RATE INCREASED", "HEART RATE INCREASED", null, "HEART RATE INCREASED", null, "HLT_0646", null, "HLGT_0673", null, "INVESTIGATIONS", null, "INVESTIGATIONS", null, "MILD", "N", "", "POSSIBLE", "RECOVERED/RESOLVED", "N", "N", "N", "N", "N", "N", "N", "TREATMENT", "2013-05-21", "2013-05-07", "2013-05-10", 15.0, 1.0, 4.0]
["CDISCPILOT01", "AE", "01-708-1272", 4.0, "E11", "APPLICATION SITE DERMATITIS", "APPLICATION SITE RASH", null, "APPLICATION SITE DERMATITIS", null, "HLT_0343", null, "HLGT_0241", null, "GENERAL DISORDERS AND ADMINISTRATION SITE CONDITIONS", null, "GENERAL DISORDERS AND ADMINISTRATION SITE CONDITIONS", null, "MILD", "N", "", "PROBABLE", "RECOVERED/RESOLVED", "N", "N", "N", "N", "N", "N", "N", "TREATMENT", "2013-03-07", "2013-02-27", "2013-02-27", 30.0, 22.0, 22.0]
["CDISCPILOT01", "AE", "01-708-1272", 8.0, "E08", "COUGH", "COUGH", null, "COUGH", null, "HLT_0701", null, "HLGT_0280", null, "RESPIRATORY, THORACIC AND MEDIASTINAL DISORDERS", null, "RESPIRATORY, THORACIC AND MEDIASTINAL DISORDERS", null, "MILD", "N", "", "NONE", "RECOVERED/RESOLVED", "N", "N", "N", "N", "N", "N", "N", "TREATMENT", "2013-03-09", "2013-03-01", "2013-03-07", 32.0, 24.0, 30.0]
["CDISCPILOT01", "AE", "01-708-1272", 1.0, "E12", "DIARRHOEA", "DIARRHEA", null, "DIARRHOEA", null, "HLT_0148", null, "HLGT_0588", null, "GASTROINTESTINAL DISORDERS", null, "GASTROINTESTINAL DISORDERS", null, "MILD", "N", "", "NONE", "RECOVERED/RESOLVED", "N", "N", "N", "N", "N", "N", "N", "TREATMENT", "2013-02-21", "2013-02-11", "2013-02-11", 16.0, 6.0, 6.0]
["CDISCPILOT01", "AE", "01-708-1272", 10.0, "E10", "HEADACHE", "HEADACHE", null, "HEADACHE", null, "HLT_0064", null, "HLGT_0344", null, "NERVOUS SYSTEM DISORDERS", null, "NERVOUS SYSTEM DISORDERS", null, "MILD", "N", "", "NONE", "RECOVERED/RESOLVED", "N", "N", "N", "N", "N", "N", "N", "TREATMENT", "2013-03-09", "2013-03-07", "2013-03-07", 32.0, 30.0, 30.0]
["CDISCPILOT01", "AE", "01-708-1272", 11.0, "E14", "HOT FLUSH", "HOT FLASHES", null, "HOT FLUSH", null, "HLT_0737", null, "HLGT_0773", null, "VASCULAR DISORDERS", null, "VASCULAR DISORDERS", null, "MILD", "N", "", "NONE", "RECOVERED/RESOLVED", "N", "N", "N", "N", "N", "N", "N", "TREATMENT", "2013-03-20", "2013-03-19", "2013-03-19", 43.0, 42.0, 42.0]
["CDISCPILOT01", "AE", "01-708-1272", 2.0, "E13", "MUSCLE SPASMS", "LEG CRAMPS", null, "MUSCLE SPASMS", null, "HLT_0078", null, "HLGT_0750", null, "MUSCULOSKELETAL AND CONNECTIVE TISSUE DISORDERS", null, "MUSCULOSKELETAL AND CONNECTIVE TISSUE DISORDERS", null, "SEVERE", "N", "", "NONE", "RECOVERED/RESOLVED", "N", "N", "N", "N", "N", "N", "N", "TREATMENT", "2013-02-21", "2013-02-18", "2013-02-18", 16.0, 13.0, 13.0]
["CDISCPILOT01", "AE", "01-708-1272", 9.0, "E09", "NASOPHARYNGITIS", "COLD", null, "NASOPHARYNGITIS", null, "HLT_0036", null, "HLGT_0709", null, "INFECTIONS AND INFESTATIONS", null, "INFECTIONS AND INFESTATIONS", null, "MILD", "N", "", "NONE", "RECOVERED/RESOLVED", "N", "N", "N", "N", "N", "N", "N", "TREATMENT", "2013-03-09", "2013-03-01", "2013-03-07", 32.0, 24.0, 30.0]
["CDISCPILOT01", "AE", "01-708-1272", 12.0, "E05", "VENTRICULAR EXTRASYSTOLES", "VENTRICULAR BIGEMINY", null, "VENTRICULAR EXTRASYSTOLES", null, "HLT_0050", null, "HLGT_0594", null, "CARDIAC DISORDERS", null, "CARDIAC DISORDERS", null, "MILD", "N", "", "REMOTE", "RECOVERED/RESOLVED", "N", "N", "N", "N", "N", "N", "N", "TREATMENT", "2013-04-04", "2013-02-21", "2013-03-20", 58.0, 16.0, 43.0]
["CDISCPILOT01", "AE", "01-708-1286", 3.0, "E08", "ABDOMINAL PAIN", "ABDOMINAL PAIN", null, "ABDOMINAL PAIN", null, "HLT_0217", null, "HLGT_0419", null, "GASTROINTESTINAL DISORDERS", null, "GASTROINTESTINAL DISORDERS", null, "MILD", "N", "", "REMOTE", "RECOVERED/RESOLVED", "N", "N", "N", "N", "N", "N", "N", "TREATMENT", "2014-02-23", "2014-02-18", "2014-02-18", 167.0, 162.0, 162.0]
["CDISCPILOT01", "AE", "01-708-1286", 1.0, "E06", "APPLICATION SITE PRURITUS", "APPLICATION SITE ITCHING", null, "APPLICATION SITE PRURITUS", null, "HLT_0317", null, "HLGT_0338", null, "GENERAL DISORDERS AND ADMINISTRATION SITE CONDITIONS", null, "GENERAL DISORDERS AND ADMINISTRATION SITE CONDITIONS", null, "MILD", "N", "", "PROBABLE", "NOT RECOVERED/NOT RESOLVED", "N", "N", "N", "N", "N", "N", "N", "TREATMENT", "2013-09-23", "2013-09-12", "", 14.0, 3.0, null]
["CDISCPILOT01", "AE", "01-708-1286", 4.0, "E09", "CONSTIPATION", "CONSTIPATION", null, "CONSTIPATION", null, "HLT_0402", null, "HLGT_0635", null, "GASTROINTESTINAL DISORDERS", null, "GASTROINTESTINAL DISORDERS", null, "MILD", "N", "", "REMOTE", "RECOVERED/RESOLVED", "N", "N", "N", "N", "N", "N", "N", "TREATMENT", "2014-02-23", "2014-02-18", "2014-02-18", 167.0, 162.0, 162.0]
["CDISCPILOT01", "AE", "01-708-1286", 2.0, "E04", "MYOCARDIAL INFARCTION", "INFERIOR MYOCARDIAL INFARCTION", null, "MYOCARDIAL INFARCTION", null, "HLT_0649", null, "HLGT_0688", null, "CARDIAC DISORDERS", null, "CARDIAC DISORDERS", null, "MILD", "N", "", "REMOTE", "NOT RECOVERED/NOT RESOLVED", "N", "N", "N", "N", "N", "N", "N", "TREATMENT", "2013-09-23", "2013-09-23", "", 14.0, 14.0, null]
["CDISCPILOT01", "AE", "01-708-1296", 4.0, "E04", "APPLICATION SITE PRURITUS", "APPLICATION SITE ITCHING", null, "APPLICATION SITE PRURITUS", null, "HLT_0317", null, "HLGT_0338", null, "GENERAL DISORDERS AND ADMINISTRATION SITE CONDITIONS", null, "GENERAL DISORDERS AND ADMINISTRATION SITE CONDITIONS", null, "MILD", "N", "", "PROBABLE", "RECOVERED/RESOLVED", "N", "N", "N", "N", "N", "N", "N", "TREATMENT", "2013-10-02", "2013-09-04", "2013-09-18", 111.0, 83.0, 97.0]
["CDISCPILOT01", "AE", "01-708-1296", 6.0, "E05", "APPLICATION SITE VESICLES", "APPLICATION SITE BLISTER", null, "APPLICATION SITE VESICLES", null, "HLT_0180", null, "HLGT_0576", null, "GENERAL DISORDERS AND ADMINISTRATION SITE CONDITIONS", null, "GENERAL DISORDERS AND ADMINISTRATION SITE CONDITIONS", null, "MILD", "N", "", "PROBABLE", "RECOVERED/RESOLVED", "N", "N", "N", "N", "N", "N", "N", "TREATMENT", "2013-11-27", "2013-10-04", "2013-10-30", 167.0, 113.0, 139.0]
["CDISCPILOT01", "AE", "01-708-1296", 2.0, "E03", "ATRIAL HYPERTROPHY", "LEFT ATRIAL HYPERTROPHY", null, "ATRIAL HYPERTROPHY", null, "HLT_0271", null, "HLGT_0067", null, "CARDIAC DISORDERS", null, "CARDIAC DISORDERS", null, "MILD", "N", "", "REMOTE", "RECOVERED/RESOLVED", "N", "N", "N", "N", "N", "N", "N", "TREATMENT", "2013-07-10", "2013-06-27", "2013-06-27", 27.0, 14.0, 14.0]
["CDISCPILOT01", "AE", "01-708-1296", 7.0, "E07", "PAIN IN EXTREMITY", "PAIN IN THIGH", null, "PAIN IN EXTREMITY", null, "HLT_0213", null, "HLGT_0764", null, "MUSCULOSKELETAL AND CONNECTIVE TISSUE DISORDERS", null, "MUSCULOSKELETAL AND CONNECTIVE TISSUE DISORDERS", null, "MILD", "N", "", "REMOTE", "RECOVERED/RESOLVED", "N", "N", "N", "N", "N", "N", "N", "TREATMENT", "2013-12-12", "2013-12-07", "2013-12-07", 182.0, 177.0, 177.0]
["CDISCPILOT01", "AE", "01-708-1297", 1.0, "E02", "APPLICATION SITE PRURITUS", "APPLICATION SITE ITCHING", null, "APPLICATION SITE PRURITUS", null, "HLT_0317", null, "HLGT_0338", null, "GENERAL DISORDERS AND ADMINISTRATION SITE CONDITIONS", null, "GENERAL DISORDERS AND ADMINISTRATION SITE CONDITIONS", null, "MILD", "N", "", "PROBABLE", "NOT RECOVERED/NOT RESOLVED", "N", "N", "N", "N", "N", "N", "N", "TREATMENT", "2013-04-16", "2013-04-02", "", 82.0, 68.0, null]
["CDISCPILOT01", "AE", "01-708-1297", 2.0, "E03", "APPLICATION SITE SWELLING", "APPLICATION SITE SWELLING", null, "APPLICATION SITE SWELLING", null, "HLT_0105", null, "HLGT_0236", null, "GENERAL DISORDERS AND ADMINISTRATION SITE CONDITIONS", null, "GENERAL DISORDERS AND ADMINISTRATION SITE CONDITIONS", null, "MILD", "N", "", "PROBABLE", "NOT RECOVERED/NOT RESOLVED", "N", "N", "N", "N", "N", "N", "N", "TREATMENT", "2013-04-16", "2013-04-02", "", 82.0, 68.0, null]
["CDISCPILOT01", "AE", "01-708-1297", 3.0, "E04", "SINUS BRADYCARDIA", "SINUS BRADYCARDIA", null, "SINUS BRADYCARDIA", null, "HLT_0644", null, "HLGT_0500", null, "CARDIAC DISORDERS", null, "CARDIAC DISORDERS", null, "MILD", "N", "", "REMOTE", "NOT RECOVERED/NOT RESOLVED", "N", "N", "N", "N", "N", "N", "N", "TREATMENT", "2013-05-08", "2013-05-08", "", 104.0, 104.0, null]
["CDISCPILOT01", "AE", "01-708-1316", 2.0, "E04", "APPLICATION SITE ERYTHEMA", "APPLICATION SITE REDNESS", null, "APPLICATION SITE ERYTHEMA", null, "HLT_0617", null, "HLGT_0152", null, "GENERAL DISORDERS AND ADMINISTRATION SITE CONDITIONS", null, "GENERAL DISORDERS AND ADMINISTRATION SITE CONDITIONS", null, "MILD", "N", "", "PROBABLE", "NOT RECOVERED/NOT RESOLVED", "N", "N", "N", "N", "N", "N", "N", "TREATMENT", "2014-02-15", "2014-02-15", "", 177.0, 177.0, null]
["CDISCPILOT01", "AE", "01-708-1316", 1.0, "E05", "HEADACHE", "HEADACHE", null, "HEADACHE", null, "HLT_0064", null, "HLGT_0344", null, "NERVOUS SYSTEM DISORDERS", null, "NERVOUS SYSTEM DISORDERS", null, "MILD", "N", "", "POSSIBLE", "NOT RECOVERED/NOT RESOLVED", "N", "N", "N", "N", "N", "N", "N", "TREATMENT", "2014-02-15", "2014-01-29", "", 177.0, 160.0, null]
["CDISCPILOT01", "AE", "01-708-1336", 7.0, "E11", "APPLICATION SITE ERYTHEMA", "APPLICATION SITE REDNESS", null, "APPLICATION SITE ERYTHEMA", null, "HLT_0617", null, "HLGT_0152", null, "GENERAL DISORDERS AND ADMINISTRATION SITE CONDITIONS", null, "GENERAL DISORDERS AND ADMINISTRATION SITE CONDITIONS", null, "MILD", "N", "", "PROBABLE", "RECOVERED/RESOLVED", "N", "N", "N", "N", "N", "N", "N", "TREATMENT", "2013-07-05", "2013-04-10", "2013-06-05", 211.0, 125.0, 181.0]
["CDISCPILOT01", "AE", "01-708-1336", 2.0, "E08", "APPLICATION SITE PRURITUS", "APPLICATION SITE ITCHING", null, "APPLICATION SITE PRURITUS", null, "HLT_0317", null, "HLGT_0338", null, "GENERAL DISORDERS AND ADMINISTRATION SITE CONDITIONS", null, "GENERAL DISORDERS AND ADMINISTRATION SITE CONDITIONS", null, "MILD", "N", "", "PROBABLE", "RECOVERED/RESOLVED", "N", "N", "N", "N", "N", "N", "N", "TREATMENT", "2013-01-15", "2013-01-12", "2013-01-12", 40.0, 37.0, 37.0]
["CDISCPILOT01", "AE", "01-708-1336", 6.0, "E10", "APPLICATION SITE PRURITUS", "APPLICATION SITE ITCHING", null, "APPLICATION SITE PRURITUS", null, "HLT_0317", null, "HLGT_0338", null, "GENERAL DISORDERS AND ADMINISTRATION SITE CONDITIONS", null, "GENERAL DISORDERS AND ADMINISTRATION SITE CONDITIONS", null, "MILD", "N", "", "PROBABLE", "RECOVERED/RESOLVED", "N", "N", "N", "N", "N", "N", "N", "TREATMENT", "2013-07-05", "2013-04-10", "2013-06-05", 211.0, 125.0, 181.0]
["CDISCPILOT01", "AE", "01-708-1336", 1.0, "E06", "DIZZINESS", "LIGHTHEADEDNESS", null, "DIZZINESS", null, "HLT_0619", null, "HLGT_0751", null, "NERVOUS SYSTEM DISORDERS", null, "NERVOUS SYSTEM DISORDERS", null, "MILD", "N", "", "POSSIBLE", "RECOVERED/RESOLVED", "N", "N", "N", "N", "N", "N", "N", "TREATMENT", "2012-12-21", "2012-12-18", "2012-12-18", 15.0, 12.0, 12.0]
["CDISCPILOT01", "AE", "01-708-1336", 3.0, "E09", "DIZZINESS", "LIGHT HEADEDNESS", null, "DIZZINESS", null, "HLT_0619", null, "HLGT_0751", null, "NERVOUS SYSTEM DISORDERS", null, "NERVOUS SYSTEM DISORDERS", null, "MILD", "N", "", "POSSIBLE", "RECOVERED/RESOLVED", "N", "N", "N", "N", "N", "N", "N", "TREATMENT", "2013-02-27", "2013-02-02", "2013-02-02", 83.0, 58.0, 58.0]
["CDISCPILOT01", "AE", "01-708-1347", 7.0, "E04", "APPLICATION SITE ERYTHEMA", "APPLICATION SITE REDNESS", null, "APPLICATION SITE ERYTHEMA", null, "HLT_0617", null, "HLGT_0152", null, "GENERAL DISORDERS AND ADMINISTRATION SITE CONDITIONS", null, "GENERAL DISORDERS AND ADMINISTRATION SITE CONDITIONS", null, "MODERATE", "N", "", "PROBABLE", "RECOVERED/RESOLVED", "N", "N", "N", "N", "N", "N", "N", "TREATMENT", "2013-08-02", "2013-06-13", "2013-06-25", 105.0, 55.0, 67.0]
["CDISCPILOT01", "AE", "01-708-1347", 8.0, "E05", "APPLICATION SITE SWELLING", "APPLICATION SITE SWELLING", null, "APPLICATION SITE SWELLING", null, "HLT_0105", null, "HLGT_0236", null, "GENERAL DISORDERS AND ADMINISTRATION SITE CONDITIONS", null, "GENERAL DISORDERS AND ADMINISTRATION SITE CONDITIONS", null, "MODERATE", "N", "", "PROBABLE", "RECOVERED/RESOLVED", "N", "N", "N", "N", "N", "N", "N", "TREATMENT", "2013-08-02", "2013-06-13", "2013-06-25", 105.0, 55.0, 67.0]
["CDISCPILOT01", "AE", "01-708-1347", 6.0, "E03", "ERYTHEMA", "ERYTHEMA", null, "ERYTHEMA", null, "HLT_0284", null, "HLGT_0192", null, "SKIN AND SUBCUTANEOUS TISSUE DISORDERS", null, "SKIN AND SUBCUTANEOUS TISSUE DISORDERS", null, "MODERATE", "N", "", "PROBABLE", "RECOVERED/RESOLVED", "N", "N", "N", "N", "N", "N", "N", "TREATMENT", "2013-08-02", "2013-06-13", "2013-06-25", 105.0, 55.0, 67.0]
["CDISCPILOT01", "AE", "01-708-1347", 5.0, "E02", "PRURITUS", "ITCHING", null, "PRURITUS", null, "HLT_0778", null, "HLGT_0695", null, "SKIN AND SUBCUTANEOUS TISSUE DISORDERS", null, "SKIN AND SUBCUTANEOUS TISSUE DISORDERS", null, "MILD", "N", "", "PROBABLE", "RECOVERED/RESOLVED", "N", "N", "N", "N", "N", "N", "N", "TREATMENT", "2013-08-02", "2013-06-13", "2013-06-25", 105.0, 55.0, 67.0]
["CDISCPILOT01", "AE", "01-708-1348", 3.0, "E05", "APPLICATION SITE PRURITUS", "APPLICATION SITE ITCHING", null, "APPLICATION SITE PRURITUS", null, "HLT_0317", null, "HLGT_0338", null, "GENERAL DISORDERS AND ADMINISTRATION SITE CONDITIONS", null, "GENERAL DISORDERS AND ADMINISTRATION SITE CONDITIONS", null, "MILD", "N", "", "PROBABLE", "NOT RECOVERED/NOT RESOLVED", "N", "N", "N", "N", "N", "N", "N", "TREATMENT", "2013-12-01", "2013-12-01", "", 119.0, 119.0, null]
["CDISCPILOT01", "AE", "01-708-1348", 2.0, "E04", "MYOCARDIAL INFARCTION", "ANTEROSEPTAL INFARCTION", null, "MYOCARDIAL INFARCTION", null, "HLT_0649", null, "HLGT_0688", null, "CARDIAC DISORDERS", null, "CARDIAC DISORDERS", null, "MILD", "N", "", "POSSIBLE", "RECOVERED/RESOLVED", "N", "N", "N", "N", "N", "N", "N", "TREATMENT", "2013-09-02", "2013-08-18", "2013-08-31", 29.0, 14.0, 27.0]
["CDISCPILOT01", "AE", "01-708-1353", 2.0, "E09", "DIZZINESS", "DIZZINESS", null, "DIZZINESS", null, "HLT_0619", null, "HLGT_0751", null, "NERVOUS SYSTEM DISORDERS", null, "NERVOUS SYSTEM DISORDERS", null, "MILD", "N", "", "REMOTE", "RECOVERED/RESOLVED", "N", "N", "N", "N", "N", "N", "N", "TREATMENT", "2013-09-10", "2013-08-18", "2013-09-10", 69.0, 46.0, 69.0]
["CDISCPILOT01", "AE", "01-708-1353", 3.0, "E10", "HYPOTENSION", "LOW BLOOD PRESSURE", null, "HYPOTENSION", null, "HLT_0761", null, "HLGT_0412", null, "VASCULAR DISORDERS", null, "VASCULAR DISORDERS", null, "MILD", "N", "", "POSSIBLE", "RECOVERED/RESOLVED", "N", "N", "N", "N", "N", "N", "N", "TREATMENT", "2013-09-10", "2013-08-28", "2013-09-10", 69.0, 56.0, 69.0]
["CDISCPILOT01", "AE", "01-708-1372", 1.0, "E03", "ATRIOVENTRICULAR BLOCK SECOND DEGREE", "AV BLOCK SECOND DEGREE", null, "ATRIOVENTRICULAR BLOCK SECOND DEGREE", null, "HLT_0415", null, "HLGT_0086", null, "CARDIAC DISORDERS", null, "CARDIAC DISORDERS", null, "MODERATE", "N", "", "NONE", "NOT RECOVERED/NOT RESOLVED", "N", "N", "N", "N", "N", "N", "N", "SCREENING", "2013-04-10", "2013-04-10", "", -2.0, -2.0, null]
["CDISCPILOT01", "AE", "01-708-1406", 2.0, "E04", "OEDEMA PERIPHERAL", "SWELLING OF LEGS", null, "OEDEMA PERIPHERAL", null, "HLT_0661", null, "HLGT_0137", null, "GENERAL DISORDERS AND ADMINISTRATION SITE CONDITIONS", null, "GENERAL DISORDERS AND ADMINISTRATION SITE CONDITIONS", null, "MILD", "N", "", "NONE", "NOT RECOVERED/NOT RESOLVED", "N", "N", "N", "N", "N", "N", "N", "TREATMENT", "2014-06-16", "2014-06-16", "", 173.0, 173.0, null]
["CDISCPILOT01", "AE", "01-708-1428", 3.0, "E02", "APPLICATION SITE ERYTHEMA", "APPLICATION SITE REDNESS", null, "APPLICATION SITE ERYTHEMA", null, "HLT_0617", null, "HLGT_0152", null, "GENERAL DISORDERS AND ADMINISTRATION SITE CONDITIONS", null, "GENERAL DISORDERS AND ADMINISTRATION SITE CONDITIONS", null, "MODERATE", "N", "", "PROBABLE", "NOT RECOVERED/NOT RESOLVED", "N", "N", "N", "N", "N", "N", "N", "TREATMENT", "2013-12-10", "2013-12-10", "2013-12-21", 32.0, 32.0, 43.0]
["CDISCPILOT01", "AE", "01-708-1428", 6.0, "E02", "APPLICATION SITE ERYTHEMA", "APPLICATION SITE REDNESS", null, "APPLICATION SITE ERYTHEMA", null, "HLT_0617", null, "HLGT_0152", null, "GENERAL DISORDERS AND ADMINISTRATION SITE CONDITIONS", null, "GENERAL DISORDERS AND ADMINISTRATION SITE CONDITIONS", null, "SEVERE", "N", "", "PROBABLE", "RECOVERED/RESOLVED", "N", "N", "N", "N", "N", "N", "N", "TREATMENT", "2013-12-26", "2013-12-10", "2013-12-21", 48.0, 32.0, 43.0]
["CDISCPILOT01", "AE", "01-708-1428", 2.0, "E01", "APPLICATION SITE PRURITUS", "APPLICATION SITE ITCHING", null, "APPLICATION SITE PRURITUS", null, "HLT_0317", null, "HLGT_0338", null, "GENERAL DISORDERS AND ADMINISTRATION SITE CONDITIONS", null, "GENERAL DISORDERS AND ADMINISTRATION SITE CONDITIONS", null, "MODERATE", "N", "", "PROBABLE", "NOT RECOVERED/NOT RESOLVED", "N", "N", "N", "N", "N", "N", "N", "TREATMENT", "2013-12-10", "2013-12-10", "2013-12-21", 32.0, 32.0, 43.0]
["CDISCPILOT01", "AE", "01-708-1428", 5.0, "E01", "APPLICATION SITE PRURITUS", "APPLICATION SITE ITCHING", null, "APPLICATION SITE PRURITUS", null, "HLT_0317", null, "HLGT_0338", null, "GENERAL DISORDERS AND ADMINISTRATION SITE CONDITIONS", null, "GENERAL DISORDERS AND ADMINISTRATION SITE CONDITIONS", null, "SEVERE", "N", "", "PROBABLE", "RECOVERED/RESOLVED", "N", "N", "N", "N", "N", "N", "N", "TREATMENT", "2013-12-26", "2013-12-10", "2013-12-21", 48.0, 32.0, 43.0]
["CDISCPILOT01", "AE", "01-708-1428", 4.0, "E03", "APPLICATION SITE WARMTH", "APPLICATION SITE WARMTH", null, "APPLICATION SITE WARMTH", null, "HLT_0260", null, "HLGT_0301", null, "GENERAL DISORDERS AND ADMINISTRATION SITE CONDITIONS", null, "GENERAL DISORDERS AND ADMINISTRATION SITE CONDITIONS", null, "MODERATE", "N", "", "PROBABLE", "NOT RECOVERED/NOT RESOLVED", "N", "N", "N", "N", "N", "N", "N", "TREATMENT", "2013-12-10", "2013-12-10", "2013-12-21", 32.0, 32.0, 43.0]
["CDISCPILOT01", "AE", "01-708-1428", 7.0, "E03", "APPLICATION SITE WARMTH", "APPLICATION SITE WARMTH", null, "APPLICATION SITE WARMTH", null, "HLT_0260", null, "HLGT_0301", null, "GENERAL DISORDERS AND ADMINISTRATION SITE CONDITIONS", null, "GENERAL DISORDERS AND ADMINISTRATION SITE CONDITIONS", null, "SEVERE", "N", "", "PROBABLE", "RECOVERED/RESOLVED", "N", "N", "N", "N", "N", "N", "N", "TREATMENT", "2013-12-26", "2013-12-10", "2013-12-21", 48.0, 32.0, 43.0]
["CDISCPILOT01", "AE", "01-708-1428", 1.0, "E04", "EPISTAXIS", "NOSE BLEED", null, "EPISTAXIS", null, "HLT_0386", null, "HLGT_0577", null, "RESPIRATORY, THORACIC AND MEDIASTINAL DISORDERS", null, "RESPIRATORY, THORACIC AND MEDIASTINAL DISORDERS", null, "MILD", "N", "", "REMOTE", "RECOVERED/RESOLVED", "N", "N", "N", "N", "N", "N", "N", "TREATMENT", "2013-11-23", "2013-11-22", "2013-11-22", 15.0, 14.0, 14.0]
["CDISCPILOT01", "AE", "01-709-1007", 2.0, "E02", "APPLICATION SITE DERMATITIS", "APPLICATION SITE RASH", null, "APPLICATION SITE DERMATITIS", null, "HLT_0343", null, "HLGT_0241", null, "GENERAL DISORDERS AND ADMINISTRATION SITE CONDITIONS", null, "GENERAL DISORDERS AND ADMINISTRATION SITE CONDITIONS", null, "MILD", "N", "", "PROBABLE", "RECOVERED/RESOLVED", "N", "N", "N", "N", "N", "N", "N", "TREATMENT", "2012-09-01", "2012-08-16", "2012-08-19", 33.0, 17.0, 20.0]
["CDISCPILOT01", "AE", "01-709-1007", 3.0, "E03", "APPLICATION SITE DERMATITIS", "APPLICATION SITE RASH", null, "APPLICATION SITE DERMATITIS", null, "HLT_0343", null, "HLGT_0241", null, "GENERAL DISORDERS AND ADMINISTRATION SITE CONDITIONS", null, "GENERAL DISORDERS AND ADMINISTRATION SITE CONDITIONS", null, "SEVERE", "N", "", "PROBABLE", "NOT RECOVERED/NOT RESOLVED", "N", "N", "N", "N", "N", "N", "N", "TREATMENT", "2012-09-01", "2012-08-21", "", 33.0, 22.0, null]
["CDISCPILOT01", "AE", "01-709-1007", 4.0, "E04", "DIARRHOEA", "DIARRHEA", null, "DIARRHOEA", null, "HLT_0148", null, "HLGT_0588", null, "GASTROINTESTINAL DISORDERS", null, "GASTROINTESTINAL DISORDERS", null, "MILD", "N", "", "POSSIBLE", "RECOVERED/RESOLVED", "N", "N", "N", "N", "N", "N", "N", "TREATMENT", "2012-09-01", "2012-08-30", "2012-08-30", 33.0, 31.0, 31.0]
["CDISCPILOT01", "AE", "01-709-1020", 3.0, "E03", "ABDOMINAL PAIN", "ABDOMINAL PAIN", null, "ABDOMINAL PAIN", null, "HLT_0217", null, "HLGT_0419", null, "GASTROINTESTINAL DISORDERS", null, "GASTROINTESTINAL DISORDERS", null, "MILD", "N", "", "POSSIBLE", "RECOVERED/RESOLVED", "N", "N", "N", "N", "N", "N", "N", "TREATMENT", "2013-01-12", "2013-01-03", "2013-01-11", 43.0, 34.0, 42.0]
["CDISCPILOT01", "AE", "01-709-1020", 1.0, "E01", "APPLICATION SITE DERMATITIS", "APPLICATION SITE RASH", null, "APPLICATION SITE DERMATITIS", null, "HLT_0343", null, "HLGT_0241", null, "GENERAL DISORDERS AND ADMINISTRATION SITE CONDITIONS", null, "GENERAL DISORDERS AND ADMINISTRATION SITE CONDITIONS", null, "MILD", "N", "", "PROBABLE", "NOT RECOVERED/NOT RESOLVED", "N", "N", "N", "N", "N", "N", "N", "TREATMENT", "2012-12-27", "2012-12-27", "", 27.0, 27.0, null]
["CDISCPILOT01", "AE", "01-709-1020", 4.0, "E04", "APPLICATION SITE PRURITUS", "APPLICATION SITE ITCHING", null, "APPLICATION SITE PRURITUS", null, "HLT_0317", null, "HLGT_0338", null, "GENERAL DISORDERS AND ADMINISTRATION SITE CONDITIONS", null, "GENERAL DISORDERS AND ADMINISTRATION SITE CONDITIONS", null, "MILD", "N", "", "PROBABLE", "NOT RECOVERED/NOT RESOLVED", "N", "N", "N", "N", "N", "N", "N", "TREATMENT", "2013-01-26", "2013-01-15", "", 57.0, 46.0, null]
["CDISCPILOT01", "AE", "01-709-1020", 2.0, "E02", "DIARRHOEA", "DIARRHEA", null, "DIARRHOEA", null, "HLT_0148", null, "HLGT_0588", null, "GASTROINTESTINAL DISORDERS", null, "GASTROINTESTINAL DISORDERS", null, "MILD", "N", "", "POSSIBLE", "RECOVERED/RESOLVED", "N", "N", "N", "N", "N", "N", "N", "TREATMENT", "2013-01-12", "2013-01-03", "2013-01-11", 43.0, 34.0, 42.0]
["CDISCPILOT01", "AE", "01-709-1029", 2.0, "E08", "APPLICATION SITE ERYTHEMA", "APPLICATION SITE REDNESS", null, "APPLICATION SITE ERYTHEMA", null, "HLT_0617", null, "HLGT_0152", null, "GENERAL DISORDERS AND ADMINISTRATION SITE CONDITIONS", null, "GENERAL DISORDERS AND ADMINISTRATION SITE CONDITIONS", null, "MILD", "N", "", "PROBABLE", "NOT RECOVERED/NOT RESOLVED", "N", "N", "N", "N", "N", "N", "N", "TREATMENT", "2013-01-21", "2013-01-17", "", 28.0, 24.0, null]
["CDISCPILOT01", "AE", "01-709-1029", 13.0, "E11", "COUGH", "COUGH", null, "COUGH", null, "HLT_0701", null, "HLGT_0280", null, "RESPIRATORY, THORACIC AND MEDIASTINAL DISORDERS", null, "RESPIRATORY, THORACIC AND MEDIASTINAL DISORDERS", null, "MILD", "N", "", "NONE", "RECOVERED/RESOLVED", "N", "N", "N", "N", "N", "N", "N", "TREATMENT", "2013-06-12", "2013-05-12", "2013-05-19", 170.0, 139.0, 146.0]
["CDISCPILOT01", "AE", "01-709-1029", 5.0, "E07", "MUSCLE SPASMS", "CRAMP", null, "MUSCLE SPASMS", null, "HLT_0078", null, "HLGT_0750", null, "MUSCULOSKELETAL AND CONNECTIVE TISSUE DISORDERS", null, "MUSCULOSKELETAL AND CONNECTIVE TISSUE DISORDERS", null, "MILD", "N", "", "REMOTE", "RECOVERED/RESOLVED", "N", "N", "N", "N", "N", "N", "N", "TREATMENT", "2013-03-20", "2013-01-24", "2013-02-27", 86.0, 31.0, 65.0]
["CDISCPILOT01", "AE", "01-709-1029", 4.0, "E09", "MYOCARDIAL INFARCTION", "SEPTAL MYOCARDIAL INFARCTION", null, "MYOCARDIAL INFARCTION", null, "HLT_0649", null, "HLGT_0688", null, "CARDIAC DISORDERS", null, "CARDIAC DISORDERS", null, "MILD", "N", "", "NONE", "RECOVERED/RESOLVED", "N", "N", "N", "N", "N", "N", "N", "TREATMENT", "2013-03-20", "2013-01-09", "2013-02-19", 86.0, 16.0, 57.0]
["CDISCPILOT01", "AE", "01-709-1029", 8.0, "E10", "MYOCARDIAL INFARCTION", "SEPTAL MYOCARDIAL INFARCTION", null, "MYOCARDIAL INFARCTION", null, "HLT_0649", null, "HLGT_0688", null, "CARDIAC DISORDERS", null, "CARDIAC DISORDERS", null, "MILD", "N", "", "NONE", "RECOVERED/RESOLVED", "N", "N", "N", "N", "N", "N", "N", "TREATMENT", "2013-05-15", "2013-03-20", "2013-04-16", 142.0, 86.0, 113.0]
["CDISCPILOT01", "AE", "01-709-1029", 12.0, "E13", "MYOCARDIAL INFARCTION", "SEPTAL MYOCARDIAL INFARCTION", null, "MYOCARDIAL INFARCTION", null, "HLT_0649", null, "HLGT_0688", null, "CARDIAC DISORDERS", null, "CARDIAC DISORDERS", null, "MILD", "N", "", "REMOTE", "NOT RECOVERED/NOT RESOLVED", "N", "N", "N", "N", "N", "N", "N", "TREATMENT", "2013-05-15", "2013-05-15", "", 142.0, 142.0, null]
["CDISCPILOT01", "AE", "01-709-1029", 14.0, "E12", "PHARYNGEAL ERYTHEMA", "RED THROAT", null, "PHARYNGEAL ERYTHEMA", null, "HLT_0591", null, "HLGT_0398", null, "RESPIRATORY, THORACIC AND MEDIASTINAL DISORDERS", null, "RESPIRATORY, THORACIC AND MEDIASTINAL DISORDERS", null, "MILD", "N", "", "NONE", "RECOVERED/RESOLVED", "N", "N", "N", "N", "N", "N", "N", "TREATMENT", "2013-06-12", "2013-05-12", "2013-05-19", 170.0, 139.0, 146.0]
["CDISCPILOT01", "AE", "01-709-1029", 16.0, "E14", "PRURITUS", "ITCHING", null, "PRURITUS", null, "HLT_0778", null, "HLGT_0695", null, "SKIN AND SUBCUTANEOUS TISSUE DISORDERS", null, "SKIN AND SUBCUTANEOUS TISSUE DISORDERS", null, "MILD", "N", "", "PROBABLE", "NOT RECOVERED/NOT RESOLVED", "N", "N", "N", "N", "N", "N", "N", "TREATMENT", "2013-06-26", "2013-06-19", "", 184.0, 177.0, null]
["CDISCPILOT01", "AE", "01-709-1029", 9.0, "E15", "SINUS BRADYCARDIA", "SINUS BRADYCARDIA", null, "SINUS BRADYCARDIA", null, "HLT_0644", null, "HLGT_0500", null, "CARDIAC DISORDERS", null, "CARDIAC DISORDERS", null, "MILD", "N", "", "REMOTE", "RECOVERED/RESOLVED", "N", "N", "N", "N", "N", "N", "N", "TREATMENT", "2013-05-15", "2013-03-20", "2013-04-16", 142.0, 86.0, 113.0]
["CDISCPILOT01", "AE", "01-709-1029", 15.0, "E16", "SINUS BRADYCARDIA", "SINUS BRADYCARDIA", null, "SINUS BRADYCARDIA", null, "HLT_0644", null, "HLGT_0500", null, "CARDIAC DISORDERS", null, "CARDIAC DISORDERS", null, "MILD", "N", "", "REMOTE", "NOT RECOVERED/NOT RESOLVED", "N", "N", "N", "N", "N", "N", "N", "TREATMENT", "2013-06-12", "2013-06-12", "", 170.0, 170.0, null]
