{"datasetJSONCreationDateTime": "2025-10-13T16:15:12", "datasetJSONVersion": "1.1.0", "itemGroupOID": "{CM", "records": 7510, "name": "CM", "label": "CM", "columns": [{"itemOID": "IT.STUDYID", "name": "STUDYID", "label": "Study Identifier", "dataType": "string"}, {"itemOID": "IT.DOMAIN", "name": "DOMAIN", "label": "Domain Abbreviation", "dataType": "string"}, {"itemOID": "IT.USUBJID", "name": "USUBJID", "label": "Unique Subject Identifier", "dataType": "string"}, {"itemOID": "IT.CMSEQ", "name": "CMSEQ", "label": "Sequence Number", "dataType": "double"}, {"itemOID": "IT.CMSPID", "name": "CMSPID", "label": "Sponsor-Defined Identifier", "dataType": "string"}, {"itemOID": "IT.CMTRT", "name": "CMTRT", "label": "Reported Name of Drug, Med, or Therapy", "dataType": "string"}, {"itemOID": "IT.CMDECOD", "name": "CMDECOD", "label": "Standardized Medication Name", "dataType": "string"}, {"itemOID": "IT.CMINDC", "name": "CMINDC", "label": "Indication", "dataType": "string"}, {"itemOID": "IT.CMCLAS", "name": "CMCLAS", "label": "Medication Class", "dataType": "string"}, {"itemOID": "IT.CMDOSE", "name": "CMDOSE", "label": "Dose per Administration", "dataType": "double"}, {"itemOID": "IT.CMDOSU", "name": "CMDOSU", "label": "Dose Units", "dataType": "string"}, {"itemOID": "IT.CMDOSFRQ", "name": "CMDOSFRQ", "label": "Dosing Frequency per Interval", "dataType": "string"}, {"itemOID": "IT.CMROUTE", "name": "CMROUTE", "label": "Route of Administration", "dataType": "string"}, {"itemOID": "IT.VISITNUM", "name": "VISITNUM", "label": "Visit Number", "dataType": "double"}, {"itemOID": "IT.VISIT", "name": "VISIT", "label": "Visit Name", "dataType": "string"}, {"itemOID": "IT.VISITDY", "name": "VISITDY", "label": "Planned Study Day of Visit", "dataType": "double"}, {"itemOID": "IT.EPOCH", "name": "EPOCH", "label": "Epoch", "dataType": "string"}, {"itemOID": "IT.CMDTC", "name": "CMDTC", "label": "Date/Time of Collection", "dataType": "string"}, {"itemOID": "IT.CMSTDTC", "name": "CMSTDTC", "label": "Start Date/Time of Medication", "dataType": "string"}, {"itemOID": "IT.CMENDTC", "name": "CMENDTC", "label": "End Date/Time of Medication", "dataType": "string"}, {"itemOID": "IT.CMDY", "name": "CMDY", "label": "Study Day of Visit/Collection/Exam", "dataType": "double"}, {"itemOID": "IT.CMSTDY", "name": "CMSTDY", "label": "Study Day of Start of Medication", "dataType": "double"}, {"itemOID": "IT.CMENDY", "name": "CMENDY", "label": "Study Day of End of Medication", "dataType": "double"}]}
["CDISCPILOT01", "CM", "01-701-1015", 1.0, "1", "ASPIRIN", "ACETYLSALICYLIC ACID", "", "NERVOUS SYSTEM", 1.0, "TABLET", "PRN", "ORAL", 1.0, "SCREENING 1", -7.0, "SCREENING", "2013-12-26", "2003", "", -7.0, null, null]
["CDISCPILOT01", "CM", "01-701-1015", 2.0, "4", "TYLENOL", "UNCODED", "", "UNCODED", 1.0, "TABLET", "PRN", "ORAL", 1.0, "SCREENING 1", -7.0, "SCREENING", "2013-12-26", "2003", "", -7.0, null, null]
["CDISCPILOT01", "CM", "01-701-1015", 3.0, "3", "PREMARIN", "ESTROGENS CONJUGATED", "PROPHYLAXIS OR NON-THERAPEUTIC USE", "GENITO URINARY SYSTEM AND SEX HORMONES", 0.625, "mg", "QD", "ORAL", 1.0, "SCREENING 1", -7.0, "SCREENING", "2013-12-26", "2006", "", -7.0, null, null]
["CDISCPILOT01", "CM", "01-701-1015", 4.0, "2", "CALCIUM", "CALCIUM", "PROPHYLAXIS OR NON-THERAPEUTIC USE", "ALIMENTARY TRACT AND METABOLISM", 1.0, "TABLET", "QD", "ORAL", 1.0, "SCREENING 1", -7.0, "SCREENING", "2013-12-26", "2013", "", -7.0, null, null]
["CDISCPILOT01", "CM", "01-701-1015", 5.0, "1", "ASPIRIN", "ACETYLSALICYLIC ACID", "", "NERVOUS SYSTEM", 1.0, "TABLET", "PRN", "ORAL", 2.0, "SCREENING 2", -1.0, "SCREENING", "2013-12-31", "2003", "", -2.0, null, null]
["CDISCPILOT01", "CM", "01-701-1015", 6.0, "4", "TYLENOL", "UNCODED", "", "UNCODED", 1.0, "TABLET", "PRN", "ORAL", 2.0, "SCREENING 2", -1.0, "SCREENING", "2013-12-31", "2003", "", -2.0, null, null]
["CDISCPILOT01", "CM", "01-701-1015", 7.0, "3", "PREMARIN", "ESTROGENS CONJUGATED", "PROPHYLAXIS OR NON-THERAPEUTIC USE", "GENITO URINARY SYSTEM AND SEX HORMONES", 0.625, "mg", "QD", "ORAL", 2.0, "SCREENING 2", -1.0, "SCREENING", "2013-12-31", "2006", "", -2.0, null, null]
["CDISCPILOT01", "CM", "01-701-1015", 8.0, "2", "CALCIUM", "CALCIUM", "PROPHYLAXIS OR NON-THERAPEUTIC USE", "ALIMENTARY TRACT AND METABOLISM", 1.0, "TABLET", "QD", "ORAL", 2.0, "SCREENING 2", -1.0, "SCREENING", "2013-12-31", "2013", "", -2.0, null, null]
["CDISCPILOT01", "CM", "01-701-1015", 9.0, "1", "ASPIRIN", "ACETYLSALICYLIC ACID", "", "NERVOUS SYSTEM", 1.0, "TABLET", "PRN", "ORAL", 3.0, "BASELINE", 1.0, "TREATMENT", "2014-01-02", "2003", "", 1.0, null, null]
["CDISCPILOT01", "CM", "01-701-1015", 10.0, "4", "TYLENOL", "UNCODED", "", "UNCODED", 1.0, "TABLET", "PRN", "ORAL", 3.0, "BASELINE", 1.0, "TREATMENT", "2014-01-02", "2003", "", 1.0, null, null]
["CDISCPILOT01", "CM", "01-701-1015", 11.0, "3", "PREMARIN", "ESTROGENS CONJUGATED", "PROPHYLAXIS OR NON-THERAPEUTIC USE", "GENITO URINARY SYSTEM AND SEX HORMONES", 0.625, "mg", "QD", "ORAL", 3.0, "BASELINE", 1.0, "TREATMENT", "2014-01-02", "2006", "", 1.0, null, null]
["CDISCPILOT01", "CM", "01-701-1015", 12.0, "2", "CALCIUM", "CALCIUM", "PROPHYLAXIS OR NON-THERAPEUTIC USE", "ALIMENTARY TRACT AND METABOLISM", 1.0, "TABLET", "QD", "ORAL", 3.0, "BASELINE", 1.0, "TREATMENT", "2014-01-02", "2013", "", 1.0, null, null]
["CDISCPILOT01", "CM", "01-701-1015", 13.0, "1", "ASPIRIN", "ACETYLSALICYLIC ACID", "", "NERVOUS SYSTEM", 1.0, "TABLET", "PRN", "ORAL", 4.0, "WEEK 2", 14.0, "TREATMENT", "2014-01-16", "2003", "", 15.0, null, null]
["CDISCPILOT01", "CM", "01-701-1015", 14.0, "4", "TYLENOL", "UNCODED", "", "UNCODED", 1.0, "TABLET", "PRN", "ORAL", 4.0, "WEEK 2", 14.0, "TREATMENT", "2014-01-16", "2003", "", 15.0, null, null]
["CDISCPILOT01", "CM", "01-701-1015", 15.0, "3", "PREMARIN", "ESTROGENS CONJUGATED", "PROPHYLAXIS OR NON-THERAPEUTIC USE", "GENITO URINARY SYSTEM AND SEX HORMONES", 0.625, "mg", "QD", "ORAL", 4.0, "WEEK 2", 14.0, "TREATMENT", "2014-01-16", "2006", "", 15.0, null, null]
["CDISCPILOT01", "CM", "01-701-1015", 16.0, "2", "CALCIUM", "CALCIUM", "PROPHYLAXIS OR NON-THERAPEUTIC USE", "ALIMENTARY TRACT AND METABOLISM", 1.0, "TABLET", "QD", "ORAL", 4.0, "WEEK 2", 14.0, "TREATMENT", "2014-01-16", "2013", "", 15.0, null, null]
["CDISCPILOT01", "CM", "01-701-1015", 17.0, "5", "NEOSPORIN /USA/", "UNCODED", "", "UNCODED", 1.0, "TABLET", "PRN", "TOPICAL", 4.0, "WEEK 2", 14.0, "TREATMENT", "2014-01-16", "2014-01-03", "", 15.0, 2.0, null]
["CDISCPILOT01", "CM", "01-701-1015", 18.0, "1", "ASPIRIN", "ACETYLSALICYLIC ACID", "", "NERVOUS SYSTEM", 1.0, "TABLET", "PRN", "ORAL", 5.0, "WEEK 4", 28.0, "TREATMENT", "2014-01-30", "2003", "", 29.0, null, null]
["CDISCPILOT01", "CM", "01-701-1015", 19.0, "4", "TYLENOL", "UNCODED", "", "UNCODED", 1.0, "TABLET", "PRN", "ORAL", 5.0, "WEEK 4", 28.0, "TREATMENT", "2014-01-30", "2003", "", 29.0, null, null]
["CDISCPILOT01", "CM", "01-701-1015", 20.0, "3", "PREMARIN", "ESTROGENS CONJUGATED", "PROPHYLAXIS OR NON-THERAPEUTIC USE", "GENITO URINARY SYSTEM AND SEX HORMONES", 0.625, "mg", "QD", "ORAL", 5.0, "WEEK 4", 28.0, "TREATMENT", "2014-01-30", "2006", "", 29.0, null, null]
["CDISCPILOT01", "CM", "01-701-1015", 21.0, "2", "CALCIUM", "CALCIUM", "PROPHYLAXIS OR NON-THERAPEUTIC USE", "ALIMENTARY TRACT AND METABOLISM", 1.0, "TABLET", "QD", "ORAL", 5.0, "WEEK 4", 28.0, "TREATMENT", "2014-01-30", "2013", "", 29.0, null, null]
["CDISCPILOT01", "CM", "01-701-1015", 22.0, "5", "NEOSPORIN /USA/", "UNCODED", "", "UNCODED", 1.0, "TABLET", "PRN", "TOPICAL", 5.0, "WEEK 4", 28.0, "TREATMENT", "2014-01-30", "2014-01-03", "", 29.0, 2.0, null]
["CDISCPILOT01", "CM", "01-701-1015", 23.0, "1", "ASPIRIN", "ACETYLSALICYLIC ACID", "", "NERVOUS SYSTEM", 1.0, "TABLET", "PRN", "ORAL", 6.0, "AMBUL ECG REMOVAL", 30.0, "TREATMENT", "2014-02-01", "2003", "", 31.0, null, null]
["CDISCPILOT01", "CM", "01-701-1015", 24.0, "4", "TYLENOL", "UNCODED", "", "UNCODED", 1.0, "TABLET", "PRN", "ORAL", 6.0, "AMBUL ECG REMOVAL", 30.0, "TREATMENT", "2014-02-01", "2003", "", 31.0, null, null]
["CDISCPILOT01", "CM", "01-701-1015", 25.0, "3", "PREMARIN", "ESTROGENS CONJUGATED", "PROPHYLAXIS OR NON-THERAPEUTIC USE", "GENITO URINARY SYSTEM AND SEX HORMONES", 0.625, "mg", "QD", "ORAL", 6.0, "AMBUL ECG REMOVAL", 30.0, "TREATMENT", "2014-02-01", "2006", "", 31.0, null, null]
["CDISCPILOT01", "CM", "01-701-1015", 26.0, "2", "CALCIUM", "CALCIUM", "PROPHYLAXIS OR NON-THERAPEUTIC USE", "ALIMENTARY TRACT AND METABOLISM", 1.0, "TABLET", "QD", "ORAL", 6.0, "AMBUL ECG REMOVAL", 30.0, "TREATMENT", "2014-02-01", "2013", "", 31.0, null, null]
["CDISCPILOT01", "CM", "01-701-1015", 27.0, "5", "NEOSPORIN /USA/", "UNCODED", "", "UNCODED", 1.0, "TABLET", "PRN", "TOPICAL", 6.0, "AMBUL ECG REMOVAL", 30.0, "TREATMENT", "2014-02-01", "2014-01-03", "", 31.0, 2.0, null]
["CDISCPILOT01", "CM", "01-701-1015", 28.0, "1", "ASPIRIN", "ACETYLSALICYLIC ACID", "", "NERVOUS SYSTEM", 1.0, "TABLET", "PRN", "ORAL", 7.0, "WEEK 6", 42.0, "TREATMENT", "2014-02-12", "2003", "", 42.0, null, null]
["CDISCPILOT01", "CM", "01-701-1015", 29.0, "4", "TYLENOL", "UNCODED", "", "UNCODED", 1.0, "TABLET", "PRN", "ORAL", 7.0, "WEEK 6", 42.0, "TREATMENT", "2014-02-12", "2003", "", 42.0, null, null]
["CDISCPILOT01", "CM", "01-701-1015", 30.0, "3", "PREMARIN", "ESTROGENS CONJUGATED", "PROPHYLAXIS OR NON-THERAPEUTIC USE", "GENITO URINARY SYSTEM AND SEX HORMONES", 0.625, "mg", "QD", "ORAL", 7.0, "WEEK 6", 42.0, "TREATMENT", "2014-02-12", "2006", "", 42.0, null, null]
["CDISCPILOT01", "CM", "01-701-1015", 31.0, "2", "CALCIUM", "CALCIUM", "PROPHYLAXIS OR NON-THERAPEUTIC USE", "ALIMENTARY TRACT AND METABOLISM", 1.0, "TABLET", "QD", "ORAL", 7.0, "WEEK 6", 42.0, "TREATMENT", "2014-02-12", "2013", "", 42.0, null, null]
["CDISCPILOT01", "CM", "01-701-1015", 32.0, "5", "NEOSPORIN /USA/", "UNCODED", "", "UNCODED", 1.0, "TABLET", "PRN", "TOPICAL", 7.0, "WEEK 6", 42.0, "TREATMENT", "2014-02-12", "2014-01-03", "", 42.0, 2.0, null]
["CDISCPILOT01", "CM", "01-701-1015", 33.0, "1", "ASPIRIN", "ACETYLSALICYLIC ACID", "", "NERVOUS SYSTEM", 1.0, "TABLET", "PRN", "ORAL", 8.0, "WEEK 8", 56.0, "TREATMENT", "2014-03-05", "2003", "", 63.0, null, null]
["CDISCPILOT01", "CM", "01-701-1015", 34.0, "4", "TYLENOL", "UNCODED", "", "UNCODED", 1.0, "TABLET", "PRN", "ORAL", 8.0, "WEEK 8", 56.0, "TREATMENT", "2014-03-05", "2003", "", 63.0, null, null]
["CDISCPILOT01", "CM", "01-701-1015", 35.0, "3", "PREMARIN", "ESTROGENS CONJUGATED", "PROPHYLAXIS OR NON-THERAPEUTIC USE", "GENITO URINARY SYSTEM AND SEX HORMONES", 0.625, "mg", "QD", "ORAL", 8.0, "WEEK 8", 56.0, "TREATMENT", "2014-03-05", "2006", "", 63.0, null, null]
["CDISCPILOT01", "CM", "01-701-1015", 36.0, "2", "CALCIUM", "CALCIUM", "PROPHYLAXIS OR NON-THERAPEUTIC USE", "ALIMENTARY TRACT AND METABOLISM", 1.0, "TABLET", "QD", "ORAL", 8.0, "WEEK 8", 56.0, "TREATMENT", "2014-03-05", "2013", "", 63.0, null, null]
["CDISCPILOT01", "CM", "01-701-1015", 37.0, "5", "NEOSPORIN /USA/", "UNCODED", "", "UNCODED", 1.0, "TABLET", "PRN", "TOPICAL", 8.0, "WEEK 8", 56.0, "TREATMENT", "2014-03-05", "2014-01-03", "", 63.0, 2.0, null]
["CDISCPILOT01", "CM", "01-701-1015", 38.0, "1", "ASPIRIN", "ACETYLSALICYLIC ACID", "", "NERVOUS SYSTEM", 1.0, "TABLET", "PRN", "ORAL", 9.0, "WEEK 12", 84.0, "TREATMENT", "2014-03-26", "2003", "", 84.0, null, null]
["CDISCPILOT01", "CM", "01-701-1015", 39.0, "4", "TYLENOL", "UNCODED", "", "UNCODED", 1.0, "TABLET", "PRN", "ORAL", 9.0, "WEEK 12", 84.0, "TREATMENT", "2014-03-26", "2003", "", 84.0, null, null]
["CDISCPILOT01", "CM", "01-701-1015", 40.0, "3", "PREMARIN", "ESTROGENS CONJUGATED", "PROPHYLAXIS OR NON-THERAPEUTIC USE", "GENITO URINARY SYSTEM AND SEX HORMONES", 0.625, "mg", "QD", "ORAL", 9.0, "WEEK 12", 84.0, "TREATMENT", "2014-03-26", "2006", "", 84.0, null, null]
["CDISCPILOT01", "CM", "01-701-1015", 41.0, "2", "CALCIUM", "CALCIUM", "PROPHYLAXIS OR NON-THERAPEUTIC USE", "ALIMENTARY TRACT AND METABOLISM", 1.0, "TABLET", "QD", "ORAL", 9.0, "WEEK 12", 84.0, "TREATMENT", "2014-03-26", "2013", "", 84.0, null, null]
["CDISCPILOT01", "CM", "01-701-1015", 42.0, "5", "NEOSPORIN /USA/", "UNCODED", "", "UNCODED", 1.0, "TABLET", "PRN", "TOPICAL", 9.0, "WEEK 12", 84.0, "TREATMENT", "2014-03-26", "2014-01-03", "", 84.0, 2.0, null]
["CDISCPILOT01", "CM", "01-701-1015", 43.0, "1", "ASPIRIN", "ACETYLSALICYLIC ACID", "", "NERVOUS SYSTEM", 1.0, "TABLET", "PRN", "ORAL", 10.0, "WEEK 16", 112.0, "TREATMENT", "2014-05-07", "2003", "", 126.0, null, null]
["CDISCPILOT01", "CM", "01-701-1015", 44.0, "4", "TYLENOL", "UNCODED", "", "UNCODED", 1.0, "TABLET", "PRN", "ORAL", 10.0, "WEEK 16", 112.0, "TREATMENT", "2014-05-07", "2003", "", 126.0, null, null]
["CDISCPILOT01", "CM", "01-701-1015", 45.0, "3", "PREMARIN", "ESTROGENS CONJUGATED", "PROPHYLAXIS OR NON-THERAPEUTIC USE", "GENITO URINARY SYSTEM AND SEX HORMONES", 0.625, "mg", "QD", "ORAL", 10.0, "WEEK 16", 112.0, "TREATMENT", "2014-05-07", "2006", "", 126.0, null, null]
["CDISCPILOT01", "CM", "01-701-1015", 46.0, "2", "CALCIUM", "CALCIUM", "PROPHYLAXIS OR NON-THERAPEUTIC USE", "ALIMENTARY TRACT AND METABOLISM", 1.0, "TABLET", "QD", "ORAL", 10.0, "WEEK 16", 112.0, "TREATMENT", "2014-05-07", "2013", "", 126.0, null, null]
["CDISCPILOT01", "CM", "01-701-1015", 47.0, "5", "NEOSPORIN /USA/", "UNCODED", "", "UNCODED", 1.0, "TABLET", "PRN", "TOPICAL", 10.0, "WEEK 16", 112.0, "TREATMENT", "2014-05-07", "2014-01-03", "", 126.0, 2.0, null]
["CDISCPILOT01", "CM", "01-701-1015", 48.0, "6", "HYDROCORTISONE", "HYDROCORTISONE", "", "SYSTEMIC HORMONAL PREPARATIONS, EXCL.", 1.0, "TABLET", "PRN", "TOPICAL", 10.0, "WEEK 16", 112.0, "TREATMENT", "2014-05-07", "2014-03-27", "", 126.0, 85.0, null]
["CDISCPILOT01", "CM", "01-701-1015", 49.0, "1", "ASPIRIN", "ACETYLSALICYLIC ACID", "", "NERVOUS SYSTEM", 1.0, "TABLET", "PRN", "ORAL", 11.0, "WEEK 20", 140.0, "TREATMENT", "2014-05-21", "2003", "", 140.0, null, null]
["CDISCPILOT01", "CM", "01-701-1015", 50.0, "4", "TYLENOL", "UNCODED", "", "UNCODED", 1.0, "TABLET", "PRN", "ORAL", 11.0, "WEEK 20", 140.0, "TREATMENT", "2014-05-21", "2003", "", 140.0, null, null]
["CDISCPILOT01", "CM", "01-701-1015", 51.0, "3", "PREMARIN", "ESTROGENS CONJUGATED", "PROPHYLAXIS OR NON-THERAPEUTIC USE", "GENITO URINARY SYSTEM AND SEX HORMONES", 0.625, "mg", "QD", "ORAL", 11.0, "WEEK 20", 140.0, "TREATMENT", "2014-05-21", "2006", "", 140.0, null, null]
["CDISCPILOT01", "CM", "01-701-1015", 52.0, "2", "CALCIUM", "CALCIUM", "PROPHYLAXIS OR NON-THERAPEUTIC USE", "ALIMENTARY TRACT AND METABOLISM", 1.0, "TABLET", "QD", "ORAL", 11.0, "WEEK 20", 140.0, "TREATMENT", "2014-05-21", "2013", "", 140.0, null, null]
["CDISCPILOT01", "CM", "01-701-1015", 53.0, "5", "NEOSPORIN /USA/", "UNCODED", "", "UNCODED", 1.0, "TABLET", "PRN", "TOPICAL", 11.0, "WEEK 20", 140.0, "TREATMENT", "2014-05-21", "2014-01-03", "", 140.0, 2.0, null]
["CDISCPILOT01", "CM", "01-701-1015", 54.0, "6", "HYDROCORTISONE", "HYDROCORTISONE", "", "SYSTEMIC HORMONAL PREPARATIONS, EXCL.", 1.0, "TABLET", "PRN", "TOPICAL", 11.0, "WEEK 20", 140.0, "TREATMENT", "2014-05-21", "2014-03-27", "", 140.0, 85.0, null]
["CDISCPILOT01", "CM", "01-701-1015", 55.0, "1", "ASPIRIN", "ACETYLSALICYLIC ACID", "", "NERVOUS SYSTEM", 1.0, "TABLET", "PRN", "ORAL", 12.0, "WEEK 24", 168.0, "TREATMENT", "2014-06-18", "2003", "", 168.0, null, null]
["CDISCPILOT01", "CM", "01-701-1015", 56.0, "4", "TYLENOL", "UNCODED", "", "UNCODED", 1.0, "TABLET", "PRN", "ORAL", 12.0, "WEEK 24", 168.0, "TREATMENT", "2014-06-18", "2003", "", 168.0, null, null]
["CDISCPILOT01", "CM", "01-701-1015", 57.0, "3", "PREMARIN", "ESTROGENS CONJUGATED", "PROPHYLAXIS OR NON-THERAPEUTIC USE", "GENITO URINARY SYSTEM AND SEX HORMONES", 0.625, "mg", "QD", "ORAL", 12.0, "WEEK 24", 168.0, "TREATMENT", "2014-06-18", "2006", "", 168.0, null, null]
["CDISCPILOT01", "CM", "01-701-1015", 58.0, "2", "CALCIUM", "CALCIUM", "PROPHYLAXIS OR NON-THERAPEUTIC USE", "ALIMENTARY TRACT AND METABOLISM", 1.0, "TABLET", "QD", "ORAL", 12.0, "WEEK 24", 168.0, "TREATMENT", "2014-06-18", "2013", "", 168.0, null, null]
["CDISCPILOT01", "CM", "01-701-1015", 59.0, "5", "NEOSPORIN /USA/", "UNCODED", "", "UNCODED", 1.0, "TABLET", "PRN", "TOPICAL", 12.0, "WEEK 24", 168.0, "TREATMENT", "2014-06-18", "2014-01-03", "", 168.0, 2.0, null]
["CDISCPILOT01", "CM", "01-701-1015", 60.0, "6", "HYDROCORTISONE", "HYDROCORTISONE", "", "SYSTEMIC HORMONAL PREPARATIONS, EXCL.", 1.0, "TABLET", "PRN", "TOPICAL", 12.0, "WEEK 24", 168.0, "TREATMENT", "2014-06-18", "2014-03-27", "", 168.0, 85.0, null]
["CDISCPILOT01", "CM", "01-701-1015", 61.0, "1", "ASPIRIN", "ACETYLSALICYLIC ACID", "", "NERVOUS SYSTEM", 1.0, "TABLET", "PRN", "ORAL", 13.0, "WEEK 26", 182.0, "TREATMENT", "2014-07-02", "2003", "", 182.0, null, null]
["CDISCPILOT01", "CM", "01-701-1015", 62.0, "4", "TYLENOL", "UNCODED", "", "UNCODED", 1.0, "TABLET", "PRN", "ORAL", 13.0, "WEEK 26", 182.0, "TREATMENT", "2014-07-02", "2003", "", 182.0, null, null]
["CDISCPILOT01", "CM", "01-701-1015", 63.0, "3", "PREMARIN", "ESTROGENS CONJUGATED", "PROPHYLAXIS OR NON-THERAPEUTIC USE", "GENITO URINARY SYSTEM AND SEX HORMONES", 0.625, "mg", "QD", "ORAL", 13.0, "WEEK 26", 182.0, "TREATMENT", "2014-07-02", "2006", "", 182.0, null, null]
["CDISCPILOT01", "CM", "01-701-1015", 64.0, "2", "CALCIUM", "CALCIUM", "PROPHYLAXIS OR NON-THERAPEUTIC USE", "ALIMENTARY TRACT AND METABOLISM", 1.0, "TABLET", "QD", "ORAL", 13.0, "WEEK 26", 182.0, "TREATMENT", "2014-07-02", "2013", "", 182.0, null, null]
["CDISCPILOT01", "CM", "01-701-1015", 65.0, "5", "NEOSPORIN /USA/", "UNCODED", "", "UNCODED", 1.0, "TABLET", "PRN", "TOPICAL", 13.0, "WEEK 26", 182.0, "TREATMENT", "2014-07-02", "2014-01-03", "", 182.0, 2.0, null]
["CDISCPILOT01", "CM", "01-701-1015", 66.0, "6", "HYDROCORTISONE", "HYDROCORTISONE", "", "SYSTEMIC HORMONAL PREPARATIONS, EXCL.", 1.0, "TABLET", "PRN", "TOPICAL", 13.0, "WEEK 26", 182.0, "TREATMENT", "2014-07-02", "2014-03-27", "", 182.0, 85.0, null]
["CDISCPILOT01", "CM", "01-701-1023", 1.0, "2", "MYLANTA", "UNCODED", "", "UNCODED", 1.0, "TABLET", "PRN", "ORAL", 1.0, "SCREENING 1", -7.0, "SCREENING", "2012-07-22", "2002", "", -14.0, null, null]
["CDISCPILOT01", "CM", "01-701-1023", 2.0, "3", "TUMS", "UNCODED", "", "UNCODED", 1.0, "TABLET", "PRN", "ORAL", 1.0, "SCREENING 1", -7.0, "SCREENING", "2012-07-22", "2002", "", -14.0, null, null]
["CDISCPILOT01", "CM", "01-701-1023", 3.0, "1", "ASPIRIN", "ACETYLSALICYLIC ACID", "", "NERVOUS SYSTEM", 325.0, "mg", "PRN", "ORAL", 1.0, "SCREENING 1", -7.0, "SCREENING", "2012-07-22", "2006", "", -14.0, null, null]
["CDISCPILOT01", "CM", "01-701-1023", 4.0, "2", "MYLANTA", "UNCODED", "", "UNCODED", 1.0, "TABLET", "PRN", "ORAL", 2.0, "SCREENING 2", -1.0, "SCREENING", "2012-08-03", "2002", "", -2.0, null, null]
["CDISCPILOT01", "CM", "01-701-1023", 5.0, "3", "TUMS", "UNCODED", "", "UNCODED", 1.0, "TABLET", "PRN", "ORAL", 2.0, "SCREENING 2", -1.0, "SCREENING", "2012-08-03", "2002", "", -2.0, null, null]
["CDISCPILOT01", "CM", "01-701-1023", 6.0, "1", "ASPIRIN", "ACETYLSALICYLIC ACID", "", "NERVOUS SYSTEM", 325.0, "mg", "PRN", "ORAL", 2.0, "SCREENING 2", -1.0, "SCREENING", "2012-08-03", "2006", "", -2.0, null, null]
["CDISCPILOT01", "CM", "01-701-1023", 7.0, "2", "MYLANTA", "UNCODED", "", "UNCODED", 1.0, "TABLET", "PRN", "ORAL", 3.0, "BASELINE", 1.0, "TREATMENT", "2012-08-05", "2002", "", 1.0, null, null]
["CDISCPILOT01", "CM", "01-701-1023", 8.0, "3", "TUMS", "UNCODED", "", "UNCODED", 1.0, "TABLET", "PRN", "ORAL", 3.0, "BASELINE", 1.0, "TREATMENT", "2012-08-05", "2002", "", 1.0, null, null]
["CDISCPILOT01", "CM", "01-701-1023", 9.0, "1", "ASPIRIN", "ACETYLSALICYLIC ACID", "", "NERVOUS SYSTEM", 325.0, "mg", "PRN", "ORAL", 3.0, "BASELINE", 1.0, "TREATMENT", "2012-08-05", "2006", "", 1.0, null, null]
["CDISCPILOT01", "CM", "01-701-1023", 10.0, "2", "MYLANTA", "UNCODED", "", "UNCODED", 1.0, "TABLET", "PRN", "ORAL", 4.0, "WEEK 2", 14.0, "TREATMENT", "2012-08-27", "2002", "", 23.0, null, null]
["CDISCPILOT01", "CM", "01-701-1023", 11.0, "3", "TUMS", "UNCODED", "", "UNCODED", 1.0, "TABLET", "PRN", "ORAL", 4.0, "WEEK 2", 14.0, "TREATMENT", "2012-08-27", "2002", "", 23.0, null, null]
["CDISCPILOT01", "CM", "01-701-1023", 12.0, "1", "ASPIRIN", "ACETYLSALICYLIC ACID", "", "NERVOUS SYSTEM", 325.0, "mg", "PRN", "ORAL", 4.0, "WEEK 2", 14.0, "TREATMENT", "2012-08-27", "2006", "", 23.0, null, null]
["CDISCPILOT01", "CM", "01-701-1023", 13.0, "2", "MYLANTA", "UNCODED", "", "UNCODED", 1.0, "TABLET", "PRN", "ORAL", 5.0, "WEEK 4", 28.0, "TREATMENT", "2012-09-02", "2002", "", 29.0, null, null]
["CDISCPILOT01", "CM", "01-701-1023", 14.0, "3", "TUMS", "UNCODED", "", "UNCODED", 1.0, "TABLET", "PRN", "ORAL", 5.0, "WEEK 4", 28.0, "TREATMENT", "2012-09-02", "2002", "", 29.0, null, null]
["CDISCPILOT01", "CM", "01-701-1023", 15.0, "1", "ASPIRIN", "ACETYLSALICYLIC ACID", "", "NERVOUS SYSTEM", 325.0, "mg", "PRN", "ORAL", 5.0, "WEEK 4", 28.0, "TREATMENT", "2012-09-02", "2006", "", 29.0, null, null]
["CDISCPILOT01", "CM", "01-701-1023", 16.0, "2", "MYLANTA", "UNCODED", "", "UNCODED", 1.0, "TABLET", "PRN", "ORAL", 101.0, "AE FOLLOW-UP", null, "SCREENING", "2013-02-18", "2002", "", 198.0, null, null]
["CDISCPILOT01", "CM", "01-701-1023", 17.0, "3", "TUMS", "UNCODED", "", "UNCODED", 1.0, "TABLET", "PRN", "ORAL", 101.0, "AE FOLLOW-UP", null, "SCREENING", "2013-02-18", "2002", "", 198.0, null, null]
["CDISCPILOT01", "CM", "01-701-1023", 18.0, "1", "ASPIRIN", "ACETYLSALICYLIC ACID", "", "NERVOUS SYSTEM", 325.0, "mg", "PRN", "ORAL", 101.0, "AE FOLLOW-UP", null, "SCREENING", "2013-02-18", "2006", "", 198.0, null, null]
["CDISCPILOT01", "CM", "01-701-1023", 19.0, "2", "MYLANTA", "UNCODED", "", "UNCODED", 1.0, "TABLET", "PRN", "ORAL", 201.0, "RETRIEVAL", 168.0, "TREATMENT", "2013-02-18", "2002", "", 198.0, null, null]
["CDISCPILOT01", "CM", "01-701-1023", 20.0, "3", "TUMS", "UNCODED", "", "UNCODED", 1.0, "TABLET", "PRN", "ORAL", 201.0, "RETRIEVAL", 168.0, "TREATMENT", "2013-02-18", "2002", "", 198.0, null, null]
["CDISCPILOT01", "CM", "01-701-1023", 21.0, "1", "ASPIRIN", "ACETYLSALICYLIC ACID", "", "NERVOUS SYSTEM", 325.0, "mg", "PRN", "ORAL", 201.0, "RETRIEVAL", 168.0, "TREATMENT", "2013-02-18", "2006", "", 198.0, null, null]
["CDISCPILOT01", "CM", "01-701-1028", 1.0, "1", "CENTRUM", "UNCODED", "PROPHYLAXIS OR NON-THERAPEUTIC USE", "UNCODED", 1.0, "TABLET", "QD", "ORAL", 1.0, "SCREENING 1", -7.0, "SCREENING", "2013-07-11", "2013-04", "", -8.0, null, null]
["CDISCPILOT01", "CM", "01-701-1028", 2.0, "1", "CENTRUM", "UNCODED", "PROPHYLAXIS OR NON-THERAPEUTIC USE", "UNCODED", 1.0, "TABLET", "QD", "ORAL", 2.0, "SCREENING 2", -1.0, "SCREENING", "2013-07-17", "2013-04", "", -2.0, null, null]
["CDISCPILOT01", "CM", "01-701-1028", 3.0, "1", "CENTRUM", "UNCODED", "PROPHYLAXIS OR NON-THERAPEUTIC USE", "UNCODED", 1.0, "TABLET", "QD", "ORAL", 3.0, "BASELINE", 1.0, "TREATMENT", "2013-07-19", "2013-04", "", 1.0, null, null]
["CDISCPILOT01", "CM", "01-701-1028", 4.0, "1", "CENTRUM", "UNCODED", "PROPHYLAXIS OR NON-THERAPEUTIC USE", "UNCODED", 1.0, "TABLET", "QD", "ORAL", 4.0, "WEEK 2", 14.0, "TREATMENT", "2013-08-01", "2013-04", "", 14.0, null, null]
["CDISCPILOT01", "CM", "01-701-1028", 5.0, "1", "CENTRUM", "UNCODED", "PROPHYLAXIS OR NON-THERAPEUTIC USE", "UNCODED", 1.0, "TABLET", "QD", "ORAL", 5.0, "WEEK 4", 28.0, "TREATMENT", "2013-08-14", "2013-04", "", 27.0, null, null]
["CDISCPILOT01", "CM", "01-701-1028", 6.0, "2", "HYDROCORTISONE", "HYDROCORTISONE", "", "SYSTEMIC HORMONAL PREPARATIONS, EXCL.", 1.0, "TABLET", "PRN", "TOPICAL", 5.0, "WEEK 4", 28.0, "TREATMENT", "2013-08-14", "2013-08-08", "", 27.0, 21.0, null]
["CDISCPILOT01", "CM", "01-701-1028", 7.0, "1", "CENTRUM", "UNCODED", "PROPHYLAXIS OR NON-THERAPEUTIC USE", "UNCODED", 1.0, "TABLET", "QD", "ORAL", 6.0, "AMBUL ECG REMOVAL", 30.0, "TREATMENT", "2013-08-16", "2013-04", "", 29.0, null, null]
["CDISCPILOT01", "CM", "01-701-1028", 8.0, "2", "HYDROCORTISONE", "HYDROCORTISONE", "", "SYSTEMIC HORMONAL PREPARATIONS, EXCL.", 1.0, "TABLET", "PRN", "TOPICAL", 6.0, "AMBUL ECG REMOVAL", 30.0, "TREATMENT", "2013-08-16", "2013-08-08", "", 29.0, 21.0, null]
["CDISCPILOT01", "CM", "01-701-1028", 9.0, "1", "CENTRUM", "UNCODED", "PROPHYLAXIS OR NON-THERAPEUTIC USE", "UNCODED", 1.0, "TABLET", "QD", "ORAL", 7.0, "WEEK 6", 42.0, "TREATMENT", "2013-08-29", "2013-04", "", 42.0, null, null]
["CDISCPILOT01", "CM", "01-701-1028", 10.0, "2", "HYDROCORTISONE", "HYDROCORTISONE", "", "SYSTEMIC HORMONAL PREPARATIONS, EXCL.", 1.0, "TABLET", "PRN", "TOPICAL", 7.0, "WEEK 6", 42.0, "TREATMENT", "2013-08-29", "2013-08-08", "", 42.0, 21.0, null]
["CDISCPILOT01", "CM", "01-701-1028", 11.0, "1", "CENTRUM", "UNCODED", "PROPHYLAXIS OR NON-THERAPEUTIC USE", "UNCODED", 1.0, "TABLET", "QD", "ORAL", 8.0, "WEEK 8", 56.0, "TREATMENT", "2013-09-10", "2013-04", "", 54.0, null, null]
["CDISCPILOT01", "CM", "01-701-1028", 12.0, "2", "HYDROCORTISONE", "HYDROCORTISONE", "", "SYSTEMIC HORMONAL PREPARATIONS, EXCL.", 1.0, "TABLET", "PRN", "TOPICAL", 8.0, "WEEK 8", 56.0, "TREATMENT", "2013-09-10", "2013-08-08", "", 54.0, 21.0, null]
["CDISCPILOT01", "CM", "01-701-1028", 13.0, "1", "CENTRUM", "UNCODED", "PROPHYLAXIS OR NON-THERAPEUTIC USE", "UNCODED", 1.0, "TABLET", "QD", "ORAL", 9.0, "WEEK 12", 84.0, "TREATMENT", "2013-10-09", "2013-04", "", 83.0, null, null]
["CDISCPILOT01", "CM", "01-701-1028", 14.0, "2", "HYDROCORTISONE", "HYDROCORTISONE", "", "SYSTEMIC HORMONAL PREPARATIONS, EXCL.", 1.0, "TABLET", "PRN", "TOPICAL", 9.0, "WEEK 12", 84.0, "TREATMENT", "2013-10-09", "2013-08-08", "", 83.0, 21.0, null]
["CDISCPILOT01", "CM", "01-701-1028", 15.0, "1", "CENTRUM", "UNCODED", "PROPHYLAXIS OR NON-THERAPEUTIC USE", "UNCODED", 1.0, "TABLET", "QD", "ORAL", 10.0, "WEEK 16", 112.0, "TREATMENT", "2013-11-06", "2013-04", "", 111.0, null, null]
["CDISCPILOT01", "CM", "01-701-1028", 16.0, "2", "HYDROCORTISONE", "HYDROCORTISONE", "", "SYSTEMIC HORMONAL PREPARATIONS, EXCL.", 1.0, "TABLET", "PRN", "TOPICAL", 10.0, "WEEK 16", 112.0, "TREATMENT", "2013-11-06", "2013-08-08", "", 111.0, 21.0, null]
["CDISCPILOT01", "CM", "01-701-1028", 17.0, "1", "CENTRUM", "UNCODED", "PROPHYLAXIS OR NON-THERAPEUTIC USE", "UNCODED", 1.0, "TABLET", "QD", "ORAL", 11.0, "WEEK 20", 140.0, "TREATMENT", "2013-12-04", "2013-04", "", 139.0, null, null]
["CDISCPILOT01", "CM", "01-701-1028", 18.0, "2", "HYDROCORTISONE", "HYDROCORTISONE", "", "SYSTEMIC HORMONAL PREPARATIONS, EXCL.", 1.0, "TABLET", "PRN", "TOPICAL", 11.0, "WEEK 20", 140.0, "TREATMENT", "2013-12-04", "2013-08-08", "", 139.0, 21.0, null]
["CDISCPILOT01", "CM", "01-701-1028", 19.0, "1", "CENTRUM", "UNCODED", "PROPHYLAXIS OR NON-THERAPEUTIC USE", "UNCODED", 1.0, "TABLET", "QD", "ORAL", 12.0, "WEEK 24", 168.0, "TREATMENT", "2014-01-06", "2013-04", "", 172.0, null, null]
["CDISCPILOT01", "CM", "01-701-1028", 20.0, "2", "HYDROCORTISONE", "HYDROCORTISONE", "", "SYSTEMIC HORMONAL PREPARATIONS, EXCL.", 1.0, "TABLET", "PRN", "TOPICAL", 12.0, "WEEK 24", 168.0, "TREATMENT", "2014-01-06", "2013-08-08", "", 172.0, 21.0, null]
["CDISCPILOT01", "CM", "01-701-1028", 21.0, "1", "CENTRUM", "UNCODED", "PROPHYLAXIS OR NON-THERAPEUTIC USE", "UNCODED", 1.0, "TABLET", "QD", "ORAL", 13.0, "WEEK 26", 182.0, "TREATMENT", "2014-01-14", "2013-04", "", 180.0, null, null]
["CDISCPILOT01", "CM", "01-701-1028", 22.0, "2", "HYDROCORTISONE", "HYDROCORTISONE", "", "SYSTEMIC HORMONAL PREPARATIONS, EXCL.", 1.0, "TABLET", "PRN", "TOPICAL", 13.0, "WEEK 26", 182.0, "TREATMENT", "2014-01-14", "2013-08-08", "", 180.0, 21.0, null]
["CDISCPILOT01", "CM", "01-701-1033", 1.0, "1", "CALCIUM", "CALCIUM", "PROPHYLAXIS OR NON-THERAPEUTIC USE", "ALIMENTARY TRACT AND METABOLISM", 1.0, "TABLET", "PRN", "ORAL", 1.0, "SCREENING 1", -7.0, "SCREENING", "2014-03-10", "2011", "", -8.0, null, null]
["CDISCPILOT01", "CM", "01-701-1033", 2.0, "2", "COD-LIVER OIL", "UNCODED", "PROPHYLAXIS OR NON-THERAPEUTIC USE", "UNCODED", 1.0, "TABLET", "PRN", "ORAL", 1.0, "SCREENING 1", -7.0, "SCREENING", "2014-03-10", "2011", "", -8.0, null, null]
["CDISCPILOT01", "CM", "01-701-1033", 3.0, "4", "ZINC", "UNCODED", "PROPHYLAXIS OR NON-THERAPEUTIC USE", "UNCODED", 1.0, "TABLET", "PRN", "ORAL", 1.0, "SCREENING 1", -7.0, "SCREENING", "2014-03-10", "2011", "", -8.0, null, null]
["CDISCPILOT01", "CM", "01-701-1033", 4.0, "3", "NITROGLYCERIN", "UNCODED", "", "UNCODED", 0.39999999999999997, "mg", "PRN", "SUBLINGUAL", 1.0, "SCREENING 1", -7.0, "SCREENING", "2014-03-10", "2014-02", "", -8.0, null, null]
["CDISCPILOT01", "CM", "01-701-1033", 5.0, "1", "CALCIUM", "CALCIUM", "PROPHYLAXIS OR NON-THERAPEUTIC USE", "ALIMENTARY TRACT AND METABOLISM", 1.0, "TABLET", "PRN", "ORAL", 2.0, "SCREENING 2", -1.0, "SCREENING", "2014-03-16", "2011", "", -2.0, null, null]
["CDISCPILOT01", "CM", "01-701-1033", 6.0, "2", "COD-LIVER OIL", "UNCODED", "PROPHYLAXIS OR NON-THERAPEUTIC USE", "UNCODED", 1.0, "TABLET", "PRN", "ORAL", 2.0, "SCREENING 2", -1.0, "SCREENING", "2014-03-16", "2011", "", -2.0, null, null]
["CDISCPILOT01", "CM", "01-701-1033", 7.0, "4", "ZINC", "UNCODED", "PROPHYLAXIS OR NON-THERAPEUTIC USE", "UNCODED", 1.0, "TABLET", "PRN", "ORAL", 2.0, "SCREENING 2", -1.0, "SCREENING", "2014-03-16", "2011", "", -2.0, null, null]
["CDISCPILOT01", "CM", "01-701-1033", 8.0, "3", "NITROGLYCERIN", "UNCODED", "", "UNCODED", 0.39999999999999997, "mg", "PRN", "SUBLINGUAL", 2.0, "SCREENING 2", -1.0, "SCREENING", "2014-03-16", "2014-02", "", -2.0, null, null]
["CDISCPILOT01", "CM", "01-701-1033", 9.0, "1", "CALCIUM", "CALCIUM", "PROPHYLAXIS OR NON-THERAPEUTIC USE", "ALIMENTARY TRACT AND METABOLISM", 1.0, "TABLET", "PRN", "ORAL", 3.0, "BASELINE", 1.0, "TREATMENT", "2014-03-18", "2011", "", 1.0, null, null]
["CDISCPILOT01", "CM", "01-701-1033", 10.0, "2", "COD-LIVER OIL", "UNCODED", "PROPHYLAXIS OR NON-THERAPEUTIC USE", "UNCODED", 1.0, "TABLET", "PRN", "ORAL", 3.0, "BASELINE", 1.0, "TREATMENT", "2014-03-18", "2011", "", 1.0, null, null]
["CDISCPILOT01", "CM", "01-701-1033", 11.0, "4", "ZINC", "UNCODED", "PROPHYLAXIS OR NON-THERAPEUTIC USE", "UNCODED", 1.0, "TABLET", "PRN", "ORAL", 3.0, "BASELINE", 1.0, "TREATMENT", "2014-03-18", "2011", "", 1.0, null, null]
["CDISCPILOT01", "CM", "01-701-1033", 12.0, "3", "NITROGLYCERIN", "UNCODED", "", "UNCODED", 0.39999999999999997, "mg", "PRN", "SUBLINGUAL", 3.0, "BASELINE", 1.0, "TREATMENT", "2014-03-18", "2014-02", "", 1.0, null, null]
["CDISCPILOT01", "CM", "01-701-1033", 13.0, "1", "CALCIUM", "CALCIUM", "PROPHYLAXIS OR NON-THERAPEUTIC USE", "ALIMENTARY TRACT AND METABOLISM", 1.0, "TABLET", "PRN", "ORAL", 4.0, "WEEK 2", 14.0, "TREATMENT", "2014-04-01", "2011", "", 15.0, null, null]
["CDISCPILOT01", "CM", "01-701-1033", 14.0, "2", "COD-LIVER OIL", "UNCODED", "PROPHYLAXIS OR NON-THERAPEUTIC USE", "UNCODED", 1.0, "TABLET", "PRN", "ORAL", 4.0, "WEEK 2", 14.0, "TREATMENT", "2014-04-01", "2011", "", 15.0, null, null]
["CDISCPILOT01", "CM", "01-701-1033", 15.0, "4", "ZINC", "UNCODED", "PROPHYLAXIS OR NON-THERAPEUTIC USE", "UNCODED", 1.0, "TABLET", "PRN", "ORAL", 4.0, "WEEK 2", 14.0, "TREATMENT", "2014-04-01", "2011", "", 15.0, null, null]
["CDISCPILOT01", "CM", "01-701-1033", 16.0, "3", "NITROGLYCERIN", "UNCODED", "", "UNCODED", 0.39999999999999997, "mg", "PRN", "SUBLINGUAL", 4.0, "WEEK 2", 14.0, "TREATMENT", "2014-04-01", "2014-02", "", 15.0, null, null]
["CDISCPILOT01", "CM", "01-701-1033", 17.0, "1", "CALCIUM", "CALCIUM", "PROPHYLAXIS OR NON-THERAPEUTIC USE", "ALIMENTARY TRACT AND METABOLISM", 1.0, "TABLET", "PRN", "ORAL", 5.0, "WEEK 4", 28.0, "TREATMENT", "2014-04-14", "2011", "", 28.0, null, null]
["CDISCPILOT01", "CM", "01-701-1033", 18.0, "2", "COD-LIVER OIL", "UNCODED", "PROPHYLAXIS OR NON-THERAPEUTIC USE", "UNCODED", 1.0, "TABLET", "PRN", "ORAL", 5.0, "WEEK 4", 28.0, "TREATMENT", "2014-04-14", "2011", "", 28.0, null, null]
["CDISCPILOT01", "CM", "01-701-1033", 19.0, "4", "ZINC", "UNCODED", "PROPHYLAXIS OR NON-THERAPEUTIC USE", "UNCODED", 1.0, "TABLET", "PRN", "ORAL", 5.0, "WEEK 4", 28.0, "TREATMENT", "2014-04-14", "2011", "", 28.0, null, null]
["CDISCPILOT01", "CM", "01-701-1033", 20.0, "3", "NITROGLYCERIN", "UNCODED", "", "UNCODED", 0.39999999999999997, "mg", "PRN", "SUBLINGUAL", 5.0, "WEEK 4", 28.0, "TREATMENT", "2014-04-14", "2014-02", "", 28.0, null, null]
["CDISCPILOT01", "CM", "01-701-1033", 21.0, "1", "CALCIUM", "CALCIUM", "PROPHYLAXIS OR NON-THERAPEUTIC USE", "ALIMENTARY TRACT AND METABOLISM", 1.0, "TABLET", "PRN", "ORAL", 201.0, "RETRIEVAL", 168.0, "TREATMENT", "2014-09-15", "2011", "", 182.0, null, null]
["CDISCPILOT01", "CM", "01-701-1033", 22.0, "2", "COD-LIVER OIL", "UNCODED", "PROPHYLAXIS OR NON-THERAPEUTIC USE", "UNCODED", 1.0, "TABLET", "PRN", "ORAL", 201.0, "RETRIEVAL", 168.0, "TREATMENT", "2014-09-15", "2011", "", 182.0, null, null]
["CDISCPILOT01", "CM", "01-701-1033", 23.0, "4", "ZINC", "UNCODED", "PROPHYLAXIS OR NON-THERAPEUTIC USE", "UNCODED", 1.0, "TABLET", "PRN", "ORAL", 201.0, "RETRIEVAL", 168.0, "TREATMENT", "2014-09-15", "2011", "", 182.0, null, null]
["CDISCPILOT01", "CM", "01-701-1033", 24.0, "3", "NITROGLYCERIN", "UNCODED", "", "UNCODED", 0.39999999999999997, "mg", "PRN", "SUBLINGUAL", 201.0, "RETRIEVAL", 168.0, "TREATMENT", "2014-09-15", "2014-02", "", 182.0, null, null]
["CDISCPILOT01", "CM", "01-701-1034", 1.0, "2", "ESTROGEN NOS", "UNCODED", "PROPHYLAXIS OR NON-THERAPEUTIC USE", "UNCODED", 3.0, "mg", "QD", "INTRAMUSCULAR", 1.0, "SCREENING 1", -7.0, "SCREENING", "2014-06-24", "1960", "", -7.0, null, null]
["CDISCPILOT01", "CM", "01-701-1034", 2.0, "5", "LEVOTHROID", "UNCODED", "", "UNCODED", 0.15, "mg", "QD", "ORAL", 1.0, "SCREENING 1", -7.0, "SCREENING", "2014-06-24", "1977", "", -7.0, null, null]
["CDISCPILOT01", "CM", "01-701-1034", 3.0, "6", "VITAMIN C", "UNCODED", "PROPHYLAXIS OR NON-THERAPEUTIC USE", "UNCODED", 1.0, "TABLET", "QD", "ORAL", 1.0, "SCREENING 1", -7.0, "SCREENING", "2014-06-24", "1986", "", -7.0, null, null]
["CDISCPILOT01", "CM", "01-701-1034", 4.0, "7", "VITAMIN E", "UNCODED", "PROPHYLAXIS OR NON-THERAPEUTIC USE", "UNCODED", 1.0, "TABLET", "QD", "ORAL", 1.0, "SCREENING 1", -7.0, "SCREENING", "2014-06-24", "1986", "", -7.0, null, null]
["CDISCPILOT01", "CM", "01-701-1034", 5.0, "3", "EX-LAX", "UNCODED", "", "UNCODED", 1.0, "TABLET", "QD", "ORAL", 1.0, "SCREENING 1", -7.0, "SCREENING", "2014-06-24", "2001", "", -7.0, null, null]
["CDISCPILOT01", "CM", "01-701-1034", 6.0, "1", "CALCIUM", "CALCIUM", "PROPHYLAXIS OR NON-THERAPEUTIC USE", "ALIMENTARY TRACT AND METABOLISM", 1.0, "TABLET", "QD", "ORAL", 1.0, "SCREENING 1", -7.0, "SCREENING", "2014-06-24", "2012", "", -7.0, null, null]
["CDISCPILOT01", "CM", "01-701-1034", 7.0, "4", "IRON", "UNCODED", "PROPHYLAXIS OR NON-THERAPEUTIC USE", "UNCODED", 1.0, "TABLET", "QD", "ORAL", 1.0, "SCREENING 1", -7.0, "SCREENING", "2014-06-24", "2012", "", -7.0, null, null]
["CDISCPILOT01", "CM", "01-701-1034", 8.0, "2", "ESTROGEN NOS", "UNCODED", "PROPHYLAXIS OR NON-THERAPEUTIC USE", "UNCODED", 3.0, "mg", "QD", "INTRAMUSCULAR", 2.0, "SCREENING 2", -1.0, "SCREENING", "2014-06-29", "1960", "", -2.0, null, null]
["CDISCPILOT01", "CM", "01-701-1034", 9.0, "5", "LEVOTHROID", "UNCODED", "", "UNCODED", 0.15, "mg", "QD", "ORAL", 2.0, "SCREENING 2", -1.0, "SCREENING", "2014-06-29", "1977", "", -2.0, null, null]
["CDISCPILOT01", "CM", "01-701-1034", 10.0, "6", "VITAMIN C", "UNCODED", "PROPHYLAXIS OR NON-THERAPEUTIC USE", "UNCODED", 1.0, "TABLET", "QD", "ORAL", 2.0, "SCREENING 2", -1.0, "SCREENING", "2014-06-29", "1986", "", -2.0, null, null]
["CDISCPILOT01", "CM", "01-701-1034", 11.0, "7", "VITAMIN E", "UNCODED", "PROPHYLAXIS OR NON-THERAPEUTIC USE", "UNCODED", 1.0, "TABLET", "QD", "ORAL", 2.0, "SCREENING 2", -1.0, "SCREENING", "2014-06-29", "1986", "", -2.0, null, null]
["CDISCPILOT01", "CM", "01-701-1034", 12.0, "3", "EX-LAX", "UNCODED", "", "UNCODED", 1.0, "TABLET", "QD", "ORAL", 2.0, "SCREENING 2", -1.0, "SCREENING", "2014-06-29", "2001", "", -2.0, null, null]
["CDISCPILOT01", "CM", "01-701-1034", 13.0, "1", "CALCIUM", "CALCIUM", "PROPHYLAXIS OR NON-THERAPEUTIC USE", "ALIMENTARY TRACT AND METABOLISM", 1.0, "TABLET", "QD", "ORAL", 2.0, "SCREENING 2", -1.0, "SCREENING", "2014-06-29", "2012", "", -2.0, null, null]
["CDISCPILOT01", "CM", "01-701-1034", 14.0, "4", "IRON", "UNCODED", "PROPHYLAXIS OR NON-THERAPEUTIC USE", "UNCODED", 1.0, "TABLET", "QD", "ORAL", 2.0, "SCREENING 2", -1.0, "SCREENING", "2014-06-29", "2012", "", -2.0, null, null]
["CDISCPILOT01", "CM", "01-701-1034", 15.0, "2", "ESTROGEN NOS", "UNCODED", "PROPHYLAXIS OR NON-THERAPEUTIC USE", "UNCODED", 3.0, "mg", "QD", "INTRAMUSCULAR", 3.0, "BASELINE", 1.0, "TREATMENT", "2014-07-01", "1960", "", 1.0, null, null]
["CDISCPILOT01", "CM", "01-701-1034", 16.0, "5", "LEVOTHROID", "UNCODED", "", "UNCODED", 0.15, "mg", "QD", "ORAL", 3.0, "BASELINE", 1.0, "TREATMENT", "2014-07-01", "1977", "", 1.0, null, null]
["CDISCPILOT01", "CM", "01-701-1034", 17.0, "6", "VITAMIN C", "UNCODED", "PROPHYLAXIS OR NON-THERAPEUTIC USE", "UNCODED", 1.0, "TABLET", "QD", "ORAL", 3.0, "BASELINE", 1.0, "TREATMENT", "2014-07-01", "1986", "", 1.0, null, null]
["CDISCPILOT01", "CM", "01-701-1034", 18.0, "7", "VITAMIN E", "UNCODED", "PROPHYLAXIS OR NON-THERAPEUTIC USE", "UNCODED", 1.0, "TABLET", "QD", "ORAL", 3.0, "BASELINE", 1.0, "TREATMENT", "2014-07-01", "1986", "", 1.0, null, null]
["CDISCPILOT01", "CM", "01-701-1034", 19.0, "3", "EX-LAX", "UNCODED", "", "UNCODED", 1.0, "TABLET", "QD", "ORAL", 3.0, "BASELINE", 1.0, "TREATMENT", "2014-07-01", "2001", "", 1.0, null, null]
["CDISCPILOT01", "CM", "01-701-1034", 20.0, "1", "CALCIUM", "CALCIUM", "PROPHYLAXIS OR NON-THERAPEUTIC USE", "ALIMENTARY TRACT AND METABOLISM", 1.0, "TABLET", "QD", "ORAL", 3.0, "BASELINE", 1.0, "TREATMENT", "2014-07-01", "2012", "", 1.0, null, null]
["CDISCPILOT01", "CM", "01-701-1034", 21.0, "4", "IRON", "UNCODED", "PROPHYLAXIS OR NON-THERAPEUTIC USE", "UNCODED", 1.0, "TABLET", "QD", "ORAL", 3.0, "BASELINE", 1.0, "TREATMENT", "2014-07-01", "2012", "", 1.0, null, null]
["CDISCPILOT01", "CM", "01-701-1034", 22.0, "2", "ESTROGEN NOS", "UNCODED", "PROPHYLAXIS OR NON-THERAPEUTIC USE", "UNCODED", 3.0, "mg", "QD", "INTRAMUSCULAR", 4.0, "WEEK 2", 14.0, "TREATMENT", "2014-07-15", "1960", "", 15.0, null, null]
["CDISCPILOT01", "CM", "01-701-1034", 23.0, "5", "LEVOTHROID", "UNCODED", "", "UNCODED", 0.15, "mg", "QD", "ORAL", 4.0, "WEEK 2", 14.0, "TREATMENT", "2014-07-15", "1977", "", 15.0, null, null]
["CDISCPILOT01", "CM", "01-701-1034", 24.0, "6", "VITAMIN C", "UNCODED", "PROPHYLAXIS OR NON-THERAPEUTIC USE", "UNCODED", 1.0, "TABLET", "QD", "ORAL", 4.0, "WEEK 2", 14.0, "TREATMENT", "2014-07-15", "1986", "", 15.0, null, null]
["CDISCPILOT01", "CM", "01-701-1034", 25.0, "7", "VITAMIN E", "UNCODED", "PROPHYLAXIS OR NON-THERAPEUTIC USE", "UNCODED", 1.0, "TABLET", "QD", "ORAL", 4.0, "WEEK 2", 14.0, "TREATMENT", "2014-07-15", "1986", "", 15.0, null, null]
["CDISCPILOT01", "CM", "01-701-1034", 26.0, "3", "EX-LAX", "UNCODED", "", "UNCODED", 1.0, "TABLET", "QD", "ORAL", 4.0, "WEEK 2", 14.0, "TREATMENT", "2014-07-15", "2001", "", 15.0, null, null]
["CDISCPILOT01", "CM", "01-701-1034", 27.0, "1", "CALCIUM", "CALCIUM", "PROPHYLAXIS OR NON-THERAPEUTIC USE", "ALIMENTARY TRACT AND METABOLISM", 1.0, "TABLET", "QD", "ORAL", 4.0, "WEEK 2", 14.0, "TREATMENT", "2014-07-15", "2012", "", 15.0, null, null]
["CDISCPILOT01", "CM", "01-701-1034", 28.0, "4", "IRON", "UNCODED", "PROPHYLAXIS OR NON-THERAPEUTIC USE", "UNCODED", 1.0, "TABLET", "QD", "ORAL", 4.0, "WEEK 2", 14.0, "TREATMENT", "2014-07-15", "2012", "", 15.0, null, null]
["CDISCPILOT01", "CM", "01-701-1034", 29.0, "2", "ESTROGEN NOS", "UNCODED", "PROPHYLAXIS OR NON-THERAPEUTIC USE", "UNCODED", 3.0, "mg", "QD", "INTRAMUSCULAR", 5.0, "WEEK 4", 28.0, "TREATMENT", "2014-07-29", "1960", "", 29.0, null, null]
["CDISCPILOT01", "CM", "01-701-1034", 30.0, "5", "LEVOTHROID", "UNCODED", "", "UNCODED", 0.15, "mg", "QD", "ORAL", 5.0, "WEEK 4", 28.0, "TREATMENT", "2014-07-29", "1977", "", 29.0, null, null]
["CDISCPILOT01", "CM", "01-701-1034", 31.0, "6", "VITAMIN C", "UNCODED", "PROPHYLAXIS OR NON-THERAPEUTIC USE", "UNCODED", 1.0, "TABLET", "QD", "ORAL", 5.0, "WEEK 4", 28.0, "TREATMENT", "2014-07-29", "1986", "", 29.0, null, null]
["CDISCPILOT01", "CM", "01-701-1034", 32.0, "7", "VITAMIN E", "UNCODED", "PROPHYLAXIS OR NON-THERAPEUTIC USE", "UNCODED", 1.0, "TABLET", "QD", "ORAL", 5.0, "WEEK 4", 28.0, "TREATMENT", "2014-07-29", "1986", "", 29.0, null, null]
["CDISCPILOT01", "CM", "01-701-1034", 33.0, "3", "EX-LAX", "UNCODED", "", "UNCODED", 1.0, "TABLET", "QD", "ORAL", 5.0, "WEEK 4", 28.0, "TREATMENT", "2014-07-29", "2001", "", 29.0, null, null]
["CDISCPILOT01", "CM", "01-701-1034", 34.0, "1", "CALCIUM", "CALCIUM", "PROPHYLAXIS OR NON-THERAPEUTIC USE", "ALIMENTARY TRACT AND METABOLISM", 1.0, "TABLET", "QD", "ORAL", 5.0, "WEEK 4", 28.0, "TREATMENT", "2014-07-29", "2012", "", 29.0, null, null]
["CDISCPILOT01", "CM", "01-701-1034", 35.0, "4", "IRON", "UNCODED", "PROPHYLAXIS OR NON-THERAPEUTIC USE", "UNCODED", 1.0, "TABLET", "QD", "ORAL", 5.0, "WEEK 4", 28.0, "TREATMENT", "2014-07-29", "2012", "", 29.0, null, null]
["CDISCPILOT01", "CM", "01-701-1034", 36.0, "2", "ESTROGEN NOS", "UNCODED", "PROPHYLAXIS OR NON-THERAPEUTIC USE", "UNCODED", 3.0, "mg", "QD", "INTRAMUSCULAR", 6.0, "AMBUL ECG REMOVAL", 30.0, "TREATMENT", "2014-07-31", "1960", "", 31.0, null, null]
["CDISCPILOT01", "CM", "01-701-1034", 37.0, "5", "LEVOTHROID", "UNCODED", "", "UNCODED", 0.15, "mg", "QD", "ORAL", 6.0, "AMBUL ECG REMOVAL", 30.0, "TREATMENT", "2014-07-31", "1977", "", 31.0, null, null]
["CDISCPILOT01", "CM", "01-701-1034", 38.0, "6", "VITAMIN C", "UNCODED", "PROPHYLAXIS OR NON-THERAPEUTIC USE", "UNCODED", 1.0, "TABLET", "QD", "ORAL", 6.0, "AMBUL ECG REMOVAL", 30.0, "TREATMENT", "2014-07-31", "1986", "", 31.0, null, null]
["CDISCPILOT01", "CM", "01-701-1034", 39.0, "7", "VITAMIN E", "UNCODED", "PROPHYLAXIS OR NON-THERAPEUTIC USE", "UNCODED", 1.0, "TABLET", "QD", "ORAL", 6.0, "AMBUL ECG REMOVAL", 30.0, "TREATMENT", "2014-07-31", "1986", "", 31.0, null, null]
["CDISCPILOT01", "CM", "01-701-1034", 40.0, "3", "EX-LAX", "UNCODED", "", "UNCODED", 1.0, "TABLET", "QD", "ORAL", 6.0, "AMBUL ECG REMOVAL", 30.0, "TREATMENT", "2014-07-31", "2001", "", 31.0, null, null]
["CDISCPILOT01", "CM", "01-701-1034", 41.0, "1", "CALCIUM", "CALCIUM", "PROPHYLAXIS OR NON-THERAPEUTIC USE", "ALIMENTARY TRACT AND METABOLISM", 1.0, "TABLET", "QD", "ORAL", 6.0, "AMBUL ECG REMOVAL", 30.0, "TREATMENT", "2014-07-31", "2012", "", 31.0, null, null]
["CDISCPILOT01", "CM", "01-701-1034", 42.0, "4", "IRON", "UNCODED", "PROPHYLAXIS OR NON-THERAPEUTIC USE", "UNCODED", 1.0, "TABLET", "QD", "ORAL", 6.0, "AMBUL ECG REMOVAL", 30.0, "TREATMENT", "2014-07-31", "2012", "", 31.0, null, null]
["CDISCPILOT01", "CM", "01-701-1034", 43.0, "2", "ESTROGEN NOS", "UNCODED", "PROPHYLAXIS OR NON-THERAPEUTIC USE", "UNCODED", 3.0, "mg", "QD", "INTRAMUSCULAR", 7.0, "WEEK 6", 42.0, "TREATMENT", "2014-08-11", "1960", "", 42.0, null, null]
["CDISCPILOT01", "CM", "01-701-1034", 44.0, "5", "LEVOTHROID", "UNCODED", "", "UNCODED", 0.15, "mg", "QD", "ORAL", 7.0, "WEEK 6", 42.0, "TREATMENT", "2014-08-11", "1977", "", 42.0, null, null]
["CDISCPILOT01", "CM", "01-701-1034", 45.0, "6", "VITAMIN C", "UNCODED", "PROPHYLAXIS OR NON-THERAPEUTIC USE", "UNCODED", 1.0, "TABLET", "QD", "ORAL", 7.0, "WEEK 6", 42.0, "TREATMENT", "2014-08-11", "1986", "", 42.0, null, null]
["CDISCPILOT01", "CM", "01-701-1034", 46.0, "7", "VITAMIN E", "UNCODED", "PROPHYLAXIS OR NON-THERAPEUTIC USE", "UNCODED", 1.0, "TABLET", "QD", "ORAL", 7.0, "WEEK 6", 42.0, "TREATMENT", "2014-08-11", "1986", "", 42.0, null, null]
["CDISCPILOT01", "CM", "01-701-1034", 47.0, "3", "EX-LAX", "UNCODED", "", "UNCODED", 1.0, "TABLET", "QD", "ORAL", 7.0, "WEEK 6", 42.0, "TREATMENT", "2014-08-11", "2001", "", 42.0, null, null]
["CDISCPILOT01", "CM", "01-701-1034", 48.0, "1", "CALCIUM", "CALCIUM", "PROPHYLAXIS OR NON-THERAPEUTIC USE", "ALIMENTARY TRACT AND METABOLISM", 1.0, "TABLET", "QD", "ORAL", 7.0, "WEEK 6", 42.0, "TREATMENT", "2014-08-11", "2012", "", 42.0, null, null]
["CDISCPILOT01", "CM", "01-701-1034", 49.0, "4", "IRON", "UNCODED", "PROPHYLAXIS OR NON-THERAPEUTIC USE", "UNCODED", 1.0, "TABLET", "QD", "ORAL", 7.0, "WEEK 6", 42.0, "TREATMENT", "2014-08-11", "2012", "", 42.0, null, null]
["CDISCPILOT01", "CM", "01-701-1034", 50.0, "2", "ESTROGEN NOS", "UNCODED", "PROPHYLAXIS OR NON-THERAPEUTIC USE", "UNCODED", 3.0, "mg", "QD", "INTRAMUSCULAR", 8.0, "WEEK 8", 56.0, "TREATMENT", "2014-08-26", "1960", "", 57.0, null, null]
["CDISCPILOT01", "CM", "01-701-1034", 51.0, "5", "LEVOTHROID", "UNCODED", "", "UNCODED", 0.15, "mg", "QD", "ORAL", 8.0, "WEEK 8", 56.0, "TREATMENT", "2014-08-26", "1977", "", 57.0, null, null]
["CDISCPILOT01", "CM", "01-701-1034", 52.0, "6", "VITAMIN C", "UNCODED", "PROPHYLAXIS OR NON-THERAPEUTIC USE", "UNCODED", 1.0, "TABLET", "QD", "ORAL", 8.0, "WEEK 8", 56.0, "TREATMENT", "2014-08-26", "1986", "", 57.0, null, null]
["CDISCPILOT01", "CM", "01-701-1034", 53.0, "7", "VITAMIN E", "UNCODED", "PROPHYLAXIS OR NON-THERAPEUTIC USE", "UNCODED", 1.0, "TABLET", "QD", "ORAL", 8.0, "WEEK 8", 56.0, "TREATMENT", "2014-08-26", "1986", "", 57.0, null, null]
["CDISCPILOT01", "CM", "01-701-1034", 54.0, "3", "EX-LAX", "UNCODED", "", "UNCODED", 1.0, "TABLET", "QD", "ORAL", 8.0, "WEEK 8", 56.0, "TREATMENT", "2014-08-26", "2001", "", 57.0, null, null]
["CDISCPILOT01", "CM", "01-701-1034", 55.0, "1", "CALCIUM", "CALCIUM", "PROPHYLAXIS OR NON-THERAPEUTIC USE", "ALIMENTARY TRACT AND METABOLISM", 1.0, "TABLET", "QD", "ORAL", 8.0, "WEEK 8", 56.0, "TREATMENT", "2014-08-26", "2012", "", 57.0, null, null]
["CDISCPILOT01", "CM", "01-701-1034", 56.0, "4", "IRON", "UNCODED", "PROPHYLAXIS OR NON-THERAPEUTIC USE", "UNCODED", 1.0, "TABLET", "QD", "ORAL", 8.0, "WEEK 8", 56.0, "TREATMENT", "2014-08-26", "2012", "", 57.0, null, null]
["CDISCPILOT01", "CM", "01-701-1034", 57.0, "2", "ESTROGEN NOS", "UNCODED", "PROPHYLAXIS OR NON-THERAPEUTIC USE", "UNCODED", 3.0, "mg", "QD", "INTRAMUSCULAR", 9.0, "WEEK 12", 84.0, "TREATMENT", "2014-09-25", "1960", "", 87.0, null, null]
["CDISCPILOT01", "CM", "01-701-1034", 58.0, "5", "LEVOTHROID", "UNCODED", "", "UNCODED", 0.15, "mg", "QD", "ORAL", 9.0, "WEEK 12", 84.0, "TREATMENT", "2014-09-25", "1977", "", 87.0, null, null]
["CDISCPILOT01", "CM", "01-701-1034", 59.0, "6", "VITAMIN C", "UNCODED", "PROPHYLAXIS OR NON-THERAPEUTIC USE", "UNCODED", 1.0, "TABLET", "QD", "ORAL", 9.0, "WEEK 12", 84.0, "TREATMENT", "2014-09-25", "1986", "", 87.0, null, null]
["CDISCPILOT01", "CM", "01-701-1034", 60.0, "7", "VITAMIN E", "UNCODED", "PROPHYLAXIS OR NON-THERAPEUTIC USE", "UNCODED", 1.0, "TABLET", "QD", "ORAL", 9.0, "WEEK 12", 84.0, "TREATMENT", "2014-09-25", "1986", "", 87.0, null, null]
["CDISCPILOT01", "CM", "01-701-1034", 61.0, "3", "EX-LAX", "UNCODED", "", "UNCODED", 1.0, "TABLET", "QD", "ORAL", 9.0, "WEEK 12", 84.0, "TREATMENT", "2014-09-25", "2001", "", 87.0, null, null]
["CDISCPILOT01", "CM", "01-701-1034", 62.0, "1", "CALCIUM", "CALCIUM", "PROPHYLAXIS OR NON-THERAPEUTIC USE", "ALIMENTARY TRACT AND METABOLISM", 1.0, "TABLET", "QD", "ORAL", 9.0, "WEEK 12", 84.0, "TREATMENT", "2014-09-25", "2012", "", 87.0, null, null]
["CDISCPILOT01", "CM", "01-701-1034", 63.0, "4", "IRON", "UNCODED", "PROPHYLAXIS OR NON-THERAPEUTIC USE", "UNCODED", 1.0, "TABLET", "QD", "ORAL", 9.0, "WEEK 12", 84.0, "TREATMENT", "2014-09-25", "2012", "", 87.0, null, null]
["CDISCPILOT01", "CM", "01-701-1034", 64.0, "8", "HYDROCORTISONE", "HYDROCORTISONE", "", "SYSTEMIC HORMONAL PREPARATIONS, EXCL.", 1.0, "TABLET", "BID", "TOPICAL", 9.0, "WEEK 12", 84.0, "TREATMENT", "2014-09-25", "2014-08-27", "", 87.0, 58.0, null]
["CDISCPILOT01", "CM", "01-701-1034", 65.0, "2", "ESTROGEN NOS", "UNCODED", "PROPHYLAXIS OR NON-THERAPEUTIC USE", "UNCODED", 3.0, "mg", "QD", "INTRAMUSCULAR", 10.0, "WEEK 16", 112.0, "TREATMENT", "2014-10-21", "1960", "", 113.0, null, null]
["CDISCPILOT01", "CM", "01-701-1034", 66.0, "5", "LEVOTHROID", "UNCODED", "", "UNCODED", 0.15, "mg", "QD", "ORAL", 10.0, "WEEK 16", 112.0, "TREATMENT", "2014-10-21", "1977", "", 113.0, null, null]
["CDISCPILOT01", "CM", "01-701-1034", 67.0, "6", "VITAMIN C", "UNCODED", "PROPHYLAXIS OR NON-THERAPEUTIC USE", "UNCODED", 1.0, "TABLET", "QD", "ORAL", 10.0, "WEEK 16", 112.0, "TREATMENT", "2014-10-21", "1986", "", 113.0, null, null]
["CDISCPILOT01", "CM", "01-701-1034", 68.0, "7", "VITAMIN E", "UNCODED", "PROPHYLAXIS OR NON-THERAPEUTIC USE", "UNCODED", 1.0, "TABLET", "QD", "ORAL", 10.0, "WEEK 16", 112.0, "TREATMENT", "2014-10-21", "1986", "", 113.0, null, null]
["CDISCPILOT01", "CM", "01-701-1034", 69.0, "3", "EX-LAX", "UNCODED", "", "UNCODED", 1.0, "TABLET", "QD", "ORAL", 10.0, "WEEK 16", 112.0, "TREATMENT", "2014-10-21", "2001", "", 113.0, null, null]
["CDISCPILOT01", "CM", "01-701-1034", 70.0, "1", "CALCIUM", "CALCIUM", "PROPHYLAXIS OR NON-THERAPEUTIC USE", "ALIMENTARY TRACT AND METABOLISM", 1.0, "TABLET", "QD", "ORAL", 10.0, "WEEK 16", 112.0, "TREATMENT", "2014-10-21", "2012", "", 113.0, null, null]
["CDISCPILOT01", "CM", "01-701-1034", 71.0, "4", "IRON", "UNCODED", "PROPHYLAXIS OR NON-THERAPEUTIC USE", "UNCODED", 1.0, "TABLET", "QD", "ORAL", 10.0, "WEEK 16", 112.0, "TREATMENT", "2014-10-21", "2012", "", 113.0, null, null]
["CDISCPILOT01", "CM", "01-701-1034", 72.0, "8", "HYDROCORTISONE", "HYDROCORTISONE", "", "SYSTEMIC HORMONAL PREPARATIONS, EXCL.", 1.0, "TABLET", "BID", "TOPICAL", 10.0, "WEEK 16", 112.0, "TREATMENT", "2014-10-21", "2014-08-27", "", 113.0, 58.0, null]
["CDISCPILOT01", "CM", "01-701-1034", 73.0, "2", "ESTROGEN NOS", "UNCODED", "PROPHYLAXIS OR NON-THERAPEUTIC USE", "UNCODED", 3.0, "mg", "QD", "INTRAMUSCULAR", 11.0, "WEEK 20", 140.0, "TREATMENT", "2014-11-18", "1960", "", 141.0, null, null]
["CDISCPILOT01", "CM", "01-701-1034", 74.0, "5", "LEVOTHROID", "UNCODED", "", "UNCODED", 0.15, "mg", "QD", "ORAL", 11.0, "WEEK 20", 140.0, "TREATMENT", "2014-11-18", "1977", "", 141.0, null, null]
["CDISCPILOT01", "CM", "01-701-1034", 75.0, "6", "VITAMIN C", "UNCODED", "PROPHYLAXIS OR NON-THERAPEUTIC USE", "UNCODED", 1.0, "TABLET", "QD", "ORAL", 11.0, "WEEK 20", 140.0, "TREATMENT", "2014-11-18", "1986", "", 141.0, null, null]
["CDISCPILOT01", "CM", "01-701-1034", 76.0, "7", "VITAMIN E", "UNCODED", "PROPHYLAXIS OR NON-THERAPEUTIC USE", "UNCODED", 1.0, "TABLET", "QD", "ORAL", 11.0, "WEEK 20", 140.0, "TREATMENT", "2014-11-18", "1986", "", 141.0, null, null]
["CDISCPILOT01", "CM", "01-701-1034", 77.0, "3", "EX-LAX", "UNCODED", "", "UNCODED", 1.0, "TABLET", "QD", "ORAL", 11.0, "WEEK 20", 140.0, "TREATMENT", "2014-11-18", "2001", "", 141.0, null, null]
["CDISCPILOT01", "CM", "01-701-1034", 78.0, "1", "CALCIUM", "CALCIUM", "PROPHYLAXIS OR NON-THERAPEUTIC USE", "ALIMENTARY TRACT AND METABOLISM", 1.0, "TABLET", "QD", "ORAL", 11.0, "WEEK 20", 140.0, "TREATMENT", "2014-11-18", "2012", "", 141.0, null, null]
["CDISCPILOT01", "CM", "01-701-1034", 79.0, "4", "IRON", "UNCODED", "PROPHYLAXIS OR NON-THERAPEUTIC USE", "UNCODED", 1.0, "TABLET", "QD", "ORAL", 11.0, "WEEK 20", 140.0, "TREATMENT", "2014-11-18", "2012", "", 141.0, null, null]
["CDISCPILOT01", "CM", "01-701-1034", 80.0, "8", "HYDROCORTISONE", "HYDROCORTISONE", "", "SYSTEMIC HORMONAL PREPARATIONS, EXCL.", 1.0, "TABLET", "BID", "TOPICAL", 11.0, "WEEK 20", 140.0, "TREATMENT", "2014-11-18", "2014-08-27", "", 141.0, 58.0, null]
["CDISCPILOT01", "CM", "01-701-1034", 81.0, "2", "ESTROGEN NOS", "UNCODED", "PROPHYLAXIS OR NON-THERAPEUTIC USE", "UNCODED", 3.0, "mg", "QD", "INTRAMUSCULAR", 12.0, "WEEK 24", 168.0, "TREATMENT", "2014-12-17", "1960", "", 170.0, null, null]
["CDISCPILOT01", "CM", "01-701-1034", 82.0, "5", "LEVOTHROID", "UNCODED", "", "UNCODED", 0.15, "mg", "QD", "ORAL", 12.0, "WEEK 24", 168.0, "TREATMENT", "2014-12-17", "1977", "", 170.0, null, null]
["CDISCPILOT01", "CM", "01-701-1034", 83.0, "6", "VITAMIN C", "UNCODED", "PROPHYLAXIS OR NON-THERAPEUTIC USE", "UNCODED", 1.0, "TABLET", "QD", "ORAL", 12.0, "WEEK 24", 168.0, "TREATMENT", "2014-12-17", "1986", "", 170.0, null, null]
["CDISCPILOT01", "CM", "01-701-1034", 84.0, "7", "VITAMIN E", "UNCODED", "PROPHYLAXIS OR NON-THERAPEUTIC USE", "UNCODED", 1.0, "TABLET", "QD", "ORAL", 12.0, "WEEK 24", 168.0, "TREATMENT", "2014-12-17", "1986", "", 170.0, null, null]
["CDISCPILOT01", "CM", "01-701-1034", 85.0, "3", "EX-LAX", "UNCODED", "", "UNCODED", 1.0, "TABLET", "QD", "ORAL", 12.0, "WEEK 24", 168.0, "TREATMENT", "2014-12-17", "2001", "", 170.0, null, null]
["CDISCPILOT01", "CM", "01-701-1034", 86.0, "1", "CALCIUM", "CALCIUM", "PROPHYLAXIS OR NON-THERAPEUTIC USE", "ALIMENTARY TRACT AND METABOLISM", 1.0, "TABLET", "QD", "ORAL", 12.0, "WEEK 24", 168.0, "TREATMENT", "2014-12-17", "2012", "", 170.0, null, null]
["CDISCPILOT01", "CM", "01-701-1034", 87.0, "4", "IRON", "UNCODED", "PROPHYLAXIS OR NON-THERAPEUTIC USE", "UNCODED", 1.0, "TABLET", "QD", "ORAL", 12.0, "WEEK 24", 168.0, "TREATMENT", "2014-12-17", "2012", "", 170.0, null, null]
["CDISCPILOT01", "CM", "01-701-1034", 88.0, "8", "HYDROCORTISONE", "HYDROCORTISONE", "", "SYSTEMIC HORMONAL PREPARATIONS, EXCL.", 1.0, "TABLET", "BID", "TOPICAL", 12.0, "WEEK 24", 168.0, "TREATMENT", "2014-12-17", "2014-08-27", "", 170.0, 58.0, null]
["CDISCPILOT01", "CM", "01-701-1034", 89.0, "2", "ESTROGEN NOS", "UNCODED", "PROPHYLAXIS OR NON-THERAPEUTIC USE", "UNCODED", 3.0, "mg", "QD", "INTRAMUSCULAR", 13.0, "WEEK 26", 182.0, "TREATMENT", "2014-12-30", "1960", "", 183.0, null, null]
["CDISCPILOT01", "CM", "01-701-1034", 90.0, "5", "LEVOTHROID", "UNCODED", "", "UNCODED", 0.15, "mg", "QD", "ORAL", 13.0, "WEEK 26", 182.0, "TREATMENT", "2014-12-30", "1977", "", 183.0, null, null]
["CDISCPILOT01", "CM", "01-701-1034", 91.0, "6", "VITAMIN C", "UNCODED", "PROPHYLAXIS OR NON-THERAPEUTIC USE", "UNCODED", 1.0, "TABLET", "QD", "ORAL", 13.0, "WEEK 26", 182.0, "TREATMENT", "2014-12-30", "1986", "", 183.0, null, null]
["CDISCPILOT01", "CM", "01-701-1034", 92.0, "7", "VITAMIN E", "UNCODED", "PROPHYLAXIS OR NON-THERAPEUTIC USE", "UNCODED", 1.0, "TABLET", "QD", "ORAL", 13.0, "WEEK 26", 182.0, "TREATMENT", "2014-12-30", "1986", "", 183.0, null, null]
["CDISCPILOT01", "CM", "01-701-1034", 93.0, "3", "EX-LAX", "UNCODED", "", "UNCODED", 1.0, "TABLET", "QD", "ORAL", 13.0, "WEEK 26", 182.0, "TREATMENT", "2014-12-30", "2001", "", 183.0, null, null]
["CDISCPILOT01", "CM", "01-701-1034", 94.0, "1", "CALCIUM", "CALCIUM", "PROPHYLAXIS OR NON-THERAPEUTIC USE", "ALIMENTARY TRACT AND METABOLISM", 1.0, "TABLET", "QD", "ORAL", 13.0, "WEEK 26", 182.0, "TREATMENT", "2014-12-30", "2012", "", 183.0, null, null]
["CDISCPILOT01", "CM", "01-701-1034", 95.0, "4", "IRON", "UNCODED", "PROPHYLAXIS OR NON-THERAPEUTIC USE", "UNCODED", 1.0, "TABLET", "QD", "ORAL", 13.0, "WEEK 26", 182.0, "TREATMENT", "2014-12-30", "2012", "", 183.0, null, null]
["CDISCPILOT01", "CM", "01-701-1034", 96.0, "8", "HYDROCORTISONE", "HYDROCORTISONE", "", "SYSTEMIC HORMONAL PREPARATIONS, EXCL.", 1.0, "TABLET", "BID", "TOPICAL", 13.0, "WEEK 26", 182.0, "TREATMENT", "2014-12-30", "2014-08-27", "", 183.0, 58.0, null]
["CDISCPILOT01", "CM", "01-701-1047", 1.0, "2", "CENTRUM", "UNCODED", "PROPHYLAXIS OR NON-THERAPEUTIC USE", "UNCODED", 1.0, "TABLET", "QD", "ORAL", 1.0, "SCREENING 1", -7.0, "SCREENING", "2013-01-22", "2002", "", -21.0, null, null]
["CDISCPILOT01", "CM", "01-701-1047", 2.0, "1", "ALEVE", "NAPROXEN SODIUM", "", "RESPIRATORY SYSTEM", 250.0, "mg", "PRN", "ORAL", 1.0, "SCREENING 1", -7.0, "SCREENING", "2013-01-22", "2009", "", -21.0, null, null]
["CDISCPILOT01", "CM", "01-701-1047", 3.0, "4", "PSORCON", "UNCODED", "", "UNCODED", 0.5, "mg", "QID", "TOPICAL", 1.0, "SCREENING 1", -7.0, "SCREENING", "2013-01-22", "2009", "", -21.0, null, null]
["CDISCPILOT01", "CM", "01-701-1047", 4.0, "5", "SYNTHROID", "UNCODED", "", "UNCODED", 0.15, "mg", "QD", "ORAL", 1.0, "SCREENING 1", -7.0, "SCREENING", "2013-01-22", "2009", "", -21.0, null, null]
["CDISCPILOT01", "CM", "01-701-1047", 5.0, "3", "PAPAYA", "UNCODED", "", "UNCODED", 2.0, "TABLET", "PRN", "ORAL", 1.0, "SCREENING 1", -7.0, "SCREENING", "2013-01-22", "2012-10", "", -21.0, null, null]
["CDISCPILOT01", "CM", "01-701-1047", 6.0, "2", "CENTRUM", "UNCODED", "PROPHYLAXIS OR NON-THERAPEUTIC USE", "UNCODED", 1.0, "TABLET", "QD", "ORAL", 2.0, "SCREENING 2", -1.0, "SCREENING", "2013-02-10", "2002", "", -2.0, null, null]
["CDISCPILOT01", "CM", "01-701-1047", 7.0, "1", "ALEVE", "NAPROXEN SODIUM", "", "RESPIRATORY SYSTEM", 250.0, "mg", "PRN", "ORAL", 2.0, "SCREENING 2", -1.0, "SCREENING", "2013-02-10", "2009", "", -2.0, null, null]
["CDISCPILOT01", "CM", "01-701-1047", 8.0, "4", "PSORCON", "UNCODED", "", "UNCODED", 0.5, "mg", "QID", "TOPICAL", 2.0, "SCREENING 2", -1.0, "SCREENING", "2013-02-10", "2009", "", -2.0, null, null]
["CDISCPILOT01", "CM", "01-701-1047", 9.0, "5", "SYNTHROID", "UNCODED", "", "UNCODED", 0.15, "mg", "QD", "ORAL", 2.0, "SCREENING 2", -1.0, "SCREENING", "2013-02-10", "2009", "", -2.0, null, null]
["CDISCPILOT01", "CM", "01-701-1047", 10.0, "3", "PAPAYA", "UNCODED", "", "UNCODED", 2.0, "TABLET", "PRN", "ORAL", 2.0, "SCREENING 2", -1.0, "SCREENING", "2013-02-10", "2012-10", "", -2.0, null, null]
["CDISCPILOT01", "CM", "01-701-1047", 11.0, "6", "FELDENE", "UNCODED", "", "UNCODED", 10.0, "mg", "QD", "ORAL", 2.0, "SCREENING 2", -1.0, "SCREENING", "2013-02-10", "2013-02-01", "2013-02-01", -2.0, -11.0, -11.0]
["CDISCPILOT01", "CM", "01-701-1047", 12.0, "2", "CENTRUM", "UNCODED", "PROPHYLAXIS OR NON-THERAPEUTIC USE", "UNCODED", 1.0, "TABLET", "QD", "ORAL", 3.0, "BASELINE", 1.0, "TREATMENT", "2013-02-12", "2002", "", 1.0, null, null]
["CDISCPILOT01", "CM", "01-701-1047", 13.0, "1", "ALEVE", "NAPROXEN SODIUM", "", "RESPIRATORY SYSTEM", 250.0, "mg", "PRN", "ORAL", 3.0, "BASELINE", 1.0, "TREATMENT", "2013-02-12", "2009", "", 1.0, null, null]
["CDISCPILOT01", "CM", "01-701-1047", 14.0, "4", "PSORCON", "UNCODED", "", "UNCODED", 0.5, "mg", "QID", "TOPICAL", 3.0, "BASELINE", 1.0, "TREATMENT", "2013-02-12", "2009", "", 1.0, null, null]
["CDISCPILOT01", "CM", "01-701-1047", 15.0, "5", "SYNTHROID", "UNCODED", "", "UNCODED", 0.15, "mg", "QD", "ORAL", 3.0, "BASELINE", 1.0, "TREATMENT", "2013-02-12", "2009", "", 1.0, null, null]
["CDISCPILOT01", "CM", "01-701-1047", 16.0, "3", "PAPAYA", "UNCODED", "", "UNCODED", 2.0, "TABLET", "PRN", "ORAL", 3.0, "BASELINE", 1.0, "TREATMENT", "2013-02-12", "2012-10", "", 1.0, null, null]
["CDISCPILOT01", "CM", "01-701-1047", 17.0, "2", "CENTRUM", "UNCODED", "PROPHYLAXIS OR NON-THERAPEUTIC USE", "UNCODED", 1.0, "TABLET", "QD", "ORAL", 4.0, "WEEK 2", 14.0, "TREATMENT", "2013-02-25", "2002", "", 14.0, null, null]
["CDISCPILOT01", "CM", "01-701-1047", 18.0, "1", "ALEVE", "NAPROXEN SODIUM", "", "RESPIRATORY SYSTEM", 250.0, "mg", "PRN", "ORAL", 4.0, "WEEK 2", 14.0, "TREATMENT", "2013-02-25", "2009", "", 14.0, null, null]
["CDISCPILOT01", "CM", "01-701-1047", 19.0, "4", "PSORCON", "UNCODED", "", "UNCODED", 0.5, "mg", "QID", "TOPICAL", 4.0, "WEEK 2", 14.0, "TREATMENT", "2013-02-25", "2009", "", 14.0, null, null]
["CDISCPILOT01", "CM", "01-701-1047", 20.0, "5", "SYNTHROID", "UNCODED", "", "UNCODED", 0.15, "mg", "QD", "ORAL", 4.0, "WEEK 2", 14.0, "TREATMENT", "2013-02-25", "2009", "", 14.0, null, null]
["CDISCPILOT01", "CM", "01-701-1047", 21.0, "3", "PAPAYA", "UNCODED", "", "UNCODED", 2.0, "TABLET", "PRN", "ORAL", 4.0, "WEEK 2", 14.0, "TREATMENT", "2013-02-25", "2012-10", "", 14.0, null, null]
["CDISCPILOT01", "CM", "01-701-1047", 22.0, "2", "CENTRUM", "UNCODED", "PROPHYLAXIS OR NON-THERAPEUTIC USE", "UNCODED", 1.0, "TABLET", "QD", "ORAL", 5.0, "WEEK 4", 28.0, "TREATMENT", "2013-03-10", "2002", "", 27.0, null, null]
["CDISCPILOT01", "CM", "01-701-1047", 23.0, "1", "ALEVE", "NAPROXEN SODIUM", "", "RESPIRATORY SYSTEM", 250.0, "mg", "PRN", "ORAL", 5.0, "WEEK 4", 28.0, "TREATMENT", "2013-03-10", "2009", "", 27.0, null, null]
["CDISCPILOT01", "CM", "01-701-1047", 24.0, "4", "PSORCON", "UNCODED", "", "UNCODED", 0.5, "mg", "QID", "TOPICAL", 5.0, "WEEK 4", 28.0, "TREATMENT", "2013-03-10", "2009", "", 27.0, null, null]
["CDISCPILOT01", "CM", "01-701-1047", 25.0, "5", "SYNTHROID", "UNCODED", "", "UNCODED", 0.15, "mg", "QD", "ORAL", 5.0, "WEEK 4", 28.0, "TREATMENT", "2013-03-10", "2009", "", 27.0, null, null]
["CDISCPILOT01", "CM", "01-701-1047", 26.0, "3", "PAPAYA", "UNCODED", "", "UNCODED", 2.0, "TABLET", "PRN", "ORAL", 5.0, "WEEK 4", 28.0, "TREATMENT", "2013-03-10", "2012-10", "", 27.0, null, null]
["CDISCPILOT01", "CM", "01-701-1047", 27.0, "7", "ROBITUSSIN-DM", "UNCODED", "", "UNCODED", 2.0, "TABLET", "QID", "ORAL", 5.0, "WEEK 4", 28.0, "TREATMENT", "2013-03-10", "2013-03-07", "", 27.0, 24.0, null]
["CDISCPILOT01", "CM", "01-701-1047", 28.0, "8", "SUDAFED", "UNCODED", "", "UNCODED", 2.0, "TABLET", "QID", "ORAL", 5.0, "WEEK 4", 28.0, "TREATMENT", "2013-03-10", "2013-03-07", "", 27.0, 24.0, null]
["CDISCPILOT01", "CM", "01-701-1047", 29.0, "2", "CENTRUM", "UNCODED", "PROPHYLAXIS OR NON-THERAPEUTIC USE", "UNCODED", 1.0, "TABLET", "QD", "ORAL", 6.0, "AMBUL ECG REMOVAL", 30.0, "TREATMENT", "2013-03-29", "2002", "", 46.0, null, null]
["CDISCPILOT01", "CM", "01-701-1047", 30.0, "1", "ALEVE", "NAPROXEN SODIUM", "", "RESPIRATORY SYSTEM", 250.0, "mg", "PRN", "ORAL", 6.0, "AMBUL ECG REMOVAL", 30.0, "TREATMENT", "2013-03-29", "2009", "", 46.0, null, null]
["CDISCPILOT01", "CM", "01-701-1047", 31.0, "4", "PSORCON", "UNCODED", "", "UNCODED", 0.5, "mg", "QID", "TOPICAL", 6.0, "AMBUL ECG REMOVAL", 30.0, "TREATMENT", "2013-03-29", "2009", "", 46.0, null, null]
["CDISCPILOT01", "CM", "01-701-1047", 32.0, "5", "SYNTHROID", "UNCODED", "", "UNCODED", 0.15, "mg", "QD", "ORAL", 6.0, "AMBUL ECG REMOVAL", 30.0, "TREATMENT", "2013-03-29", "2009", "", 46.0, null, null]
["CDISCPILOT01", "CM", "01-701-1047", 33.0, "3", "PAPAYA", "UNCODED", "", "UNCODED", 2.0, "TABLET", "PRN", "ORAL", 6.0, "AMBUL ECG REMOVAL", 30.0, "TREATMENT", "2013-03-29", "2012-10", "", 46.0, null, null]
["CDISCPILOT01", "CM", "01-701-1047", 34.0, "7", "ROBITUSSIN-DM", "UNCODED", "", "UNCODED", 2.0, "TABLET", "QID", "ORAL", 6.0, "AMBUL ECG REMOVAL", 30.0, "TREATMENT", "2013-03-29", "2013-03-07", "", 46.0, 24.0, null]
["CDISCPILOT01", "CM", "01-701-1047", 35.0, "8", "SUDAFED", "UNCODED", "", "UNCODED", 2.0, "TABLET", "QID", "ORAL", 6.0, "AMBUL ECG REMOVAL", 30.0, "TREATMENT", "2013-03-29", "2013-03-07", "", 46.0, 24.0, null]
["CDISCPILOT01", "CM", "01-701-1047", 36.0, "2", "CENTRUM", "UNCODED", "PROPHYLAXIS OR NON-THERAPEUTIC USE", "UNCODED", 1.0, "TABLET", "QD", "ORAL", 201.0, "RETRIEVAL", 168.0, "TREATMENT", "2013-07-28", "2002", "", 167.0, null, null]
["CDISCPILOT01", "CM", "01-701-1047", 37.0, "1", "ALEVE", "NAPROXEN SODIUM", "", "RESPIRATORY SYSTEM", 250.0, "mg", "PRN", "ORAL", 201.0, "RETRIEVAL", 168.0, "TREATMENT", "2013-07-28", "2009", "", 167.0, null, null]
["CDISCPILOT01", "CM", "01-701-1047", 38.0, "4", "PSORCON", "UNCODED", "", "UNCODED", 0.5, "mg", "QID", "TOPICAL", 201.0, "RETRIEVAL", 168.0, "TREATMENT", "2013-07-28", "2009", "", 167.0, null, null]
["CDISCPILOT01", "CM", "01-701-1047", 39.0, "5", "SYNTHROID", "UNCODED", "", "UNCODED", 0.15, "mg", "QD", "ORAL", 201.0, "RETRIEVAL", 168.0, "TREATMENT", "2013-07-28", "2009", "", 167.0, null, null]
["CDISCPILOT01", "CM", "01-701-1047", 40.0, "3", "PAPAYA", "UNCODED", "", "UNCODED", 2.0, "TABLET", "PRN", "ORAL", 201.0, "RETRIEVAL", 168.0, "TREATMENT", "2013-07-28", "2012-10", "", 167.0, null, null]
["CDISCPILOT01", "CM", "01-701-1047", 41.0, "7", "ROBITUSSIN-DM", "UNCODED", "", "UNCODED", 2.0, "TABLET", "QID", "ORAL", 201.0, "RETRIEVAL", 168.0, "TREATMENT", "2013-07-28", "2013-03-07", "", 167.0, 24.0, null]
["CDISCPILOT01", "CM", "01-701-1047", 42.0, "8", "SUDAFED", "UNCODED", "", "UNCODED", 2.0, "TABLET", "QID", "ORAL", 201.0, "RETRIEVAL", 168.0, "TREATMENT", "2013-07-28", "2013-03-07", "", 167.0, 24.0, null]
["CDISCPILOT01", "CM", "01-701-1097", 1.0, "1", "CENTRUM", "UNCODED", "PROPHYLAXIS OR NON-THERAPEUTIC USE", "UNCODED", 1.0, "TABLET", "QD", "ORAL", 1.0, "SCREENING 1", -7.0, "SCREENING", "2013-12-23", "2013-10", "", -9.0, null, null]
["CDISCPILOT01", "CM", "01-701-1097", 2.0, "1", "CENTRUM", "UNCODED", "PROPHYLAXIS OR NON-THERAPEUTIC USE", "UNCODED", 1.0, "TABLET", "QD", "ORAL", 2.0, "SCREENING 2", -1.0, "SCREENING", "2013-12-30", "2013-10", "", -2.0, null, null]
["CDISCPILOT01", "CM", "01-701-1097", 3.0, "1", "CENTRUM", "UNCODED", "PROPHYLAXIS OR NON-THERAPEUTIC USE", "UNCODED", 1.0, "TABLET", "QD", "ORAL", 3.0, "BASELINE", 1.0, "TREATMENT", "2014-01-01", "2013-10", "", 1.0, null, null]
["CDISCPILOT01", "CM", "01-701-1097", 4.0, "1", "CENTRUM", "UNCODED", "PROPHYLAXIS OR NON-THERAPEUTIC USE", "UNCODED", 1.0, "TABLET", "QD", "ORAL", 4.0, "WEEK 2", 14.0, "TREATMENT", "2014-01-15", "2013-10", "", 15.0, null, null]
["CDISCPILOT01", "CM", "01-701-1097", 5.0, "1", "CENTRUM", "UNCODED", "PROPHYLAXIS OR NON-THERAPEUTIC USE", "UNCODED", 1.0, "TABLET", "QD", "ORAL", 5.0, "WEEK 4", 28.0, "TREATMENT", "2014-01-29", "2013-10", "", 29.0, null, null]
["CDISCPILOT01", "CM", "01-701-1097", 6.0, "1", "CENTRUM", "UNCODED", "PROPHYLAXIS OR NON-THERAPEUTIC USE", "UNCODED", 1.0, "TABLET", "QD", "ORAL", 6.0, "AMBUL ECG REMOVAL", 30.0, "TREATMENT", "2014-02-04", "2013-10", "", 35.0, null, null]
["CDISCPILOT01", "CM", "01-701-1097", 7.0, "1", "CENTRUM", "UNCODED", "PROPHYLAXIS OR NON-THERAPEUTIC USE", "UNCODED", 1.0, "TABLET", "QD", "ORAL", 7.0, "WEEK 6", 42.0, "TREATMENT", "2014-02-11", "2013-10", "", 42.0, null, null]
["CDISCPILOT01", "CM", "01-701-1097", 8.0, "1", "CENTRUM", "UNCODED", "PROPHYLAXIS OR NON-THERAPEUTIC USE", "UNCODED", 1.0, "TABLET", "QD", "ORAL", 8.0, "WEEK 8", 56.0, "TREATMENT", "2014-02-26", "2013-10", "", 57.0, null, null]
["CDISCPILOT01", "CM", "01-701-1097", 9.0, "2", "HYDROCORTISONE", "HYDROCORTISONE", "", "SYSTEMIC HORMONAL PREPARATIONS, EXCL.", 1.0, "TABLET", "QD", "TOPICAL", 8.0, "WEEK 8", 56.0, "TREATMENT", "2014-02-26", "2014-02-20", "2014-02-25", 57.0, 51.0, 56.0]
["CDISCPILOT01", "CM", "01-701-1097", 10.0, "1", "CENTRUM", "UNCODED", "PROPHYLAXIS OR NON-THERAPEUTIC USE", "UNCODED", 1.0, "TABLET", "QD", "ORAL", 9.0, "WEEK 12", 84.0, "TREATMENT", "2014-03-26", "2013-10", "", 85.0, null, null]
["CDISCPILOT01", "CM", "01-701-1097", 11.0, "3", "HYDROCORTISONE", "HYDROCORTISONE", "", "SYSTEMIC HORMONAL PREPARATIONS, EXCL.", 1.0, "TABLET", "QD", "TOPICAL", 9.0, "WEEK 12", 84.0, "TREATMENT", "2014-03-26", "2014-03-21", "2014-03-23", 85.0, 80.0, 82.0]
["CDISCPILOT01", "CM", "01-701-1097", 12.0, "1", "CENTRUM", "UNCODED", "PROPHYLAXIS OR NON-THERAPEUTIC USE", "UNCODED", 1.0, "TABLET", "QD", "ORAL", 10.0, "WEEK 16", 112.0, "TREATMENT", "2014-04-23", "2013-10", "", 113.0, null, null]
["CDISCPILOT01", "CM", "01-701-1097", 13.0, "4", "HYDROCORTISONE", "HYDROCORTISONE", "", "SYSTEMIC HORMONAL PREPARATIONS, EXCL.", 1.0, "TABLET", "QD", "TOPICAL", 10.0, "WEEK 16", 112.0, "TREATMENT", "2014-04-23", "2014-04-18", "2014-04-22", 113.0, 108.0, 112.0]
["CDISCPILOT01", "CM", "01-701-1097", 14.0, "1", "CENTRUM", "UNCODED", "PROPHYLAXIS OR NON-THERAPEUTIC USE", "UNCODED", 1.0, "TABLET", "QD", "ORAL", 11.0, "WEEK 20", 140.0, "TREATMENT", "2014-05-21", "2013-10", "", 141.0, null, null]
["CDISCPILOT01", "CM", "01-701-1097", 15.0, "1", "CENTRUM", "UNCODED", "PROPHYLAXIS OR NON-THERAPEUTIC USE", "UNCODED", 1.0, "TABLET", "QD", "ORAL", 12.0, "WEEK 24", 168.0, "TREATMENT", "2014-06-18", "2013-10", "", 169.0, null, null]
["CDISCPILOT01", "CM", "01-701-1097", 16.0, "5", "HYDROCORTISONE", "HYDROCORTISONE", "", "SYSTEMIC HORMONAL PREPARATIONS, EXCL.", 1.0, "TABLET", "PRN", "TOPICAL", 12.0, "WEEK 24", 168.0, "TREATMENT", "2014-06-18", "2014-05-23", "", 169.0, 143.0, null]
["CDISCPILOT01", "CM", "01-701-1097", 17.0, "1", "CENTRUM", "UNCODED", "PROPHYLAXIS OR NON-THERAPEUTIC USE", "UNCODED", 1.0, "TABLET", "QD", "ORAL", 13.0, "WEEK 26", 182.0, "TREATMENT", "2014-07-09", "2013-10", "", 190.0, null, null]
["CDISCPILOT01", "CM", "01-701-1097", 18.0, "5", "HYDROCORTISONE", "HYDROCORTISONE", "", "SYSTEMIC HORMONAL PREPARATIONS, EXCL.", 1.0, "TABLET", "PRN", "TOPICAL", 13.0, "WEEK 26", 182.0, "TREATMENT", "2014-07-09", "2014-05-23", "", 190.0, 143.0, null]
["CDISCPILOT01", "CM", "01-701-1111", 1.0, "6", "SYNTHROID", "UNCODED", "", "UNCODED", 0.075, "mg", "QD", "ORAL", 1.0, "SCREENING 1", -7.0, "SCREENING", "2012-08-25", "1983", "", -13.0, null, null]
["CDISCPILOT01", "CM", "01-701-1111", 2.0, "4", "PREMARIN", "ESTROGENS CONJUGATED", "", "GENITO URINARY SYSTEM AND SEX HORMONES", 0.625, "mg", "", "ORAL", 1.0, "SCREENING 1", -7.0, "SCREENING", "2012-08-25", "1996", "", -13.0, null, null]
["CDISCPILOT01", "CM", "01-701-1111", 3.0, "5", "PROVERA", "UNCODED", "", "UNCODED", 2.5, "mg", "", "ORAL", 1.0, "SCREENING 1", -7.0, "SCREENING", "2012-08-25", "1996", "", -13.0, null, null]
["CDISCPILOT01", "CM", "01-701-1111", 4.0, "2", "LISINOPRIL", "UNCODED", "", "UNCODED", 2.5, "mg", "QD", "ORAL", 1.0, "SCREENING 1", -7.0, "SCREENING", "2012-08-25", "2006", "", -13.0, null, null]
["CDISCPILOT01", "CM", "01-701-1111", 5.0, "3", "MOTRIN", "UNCODED", "", "UNCODED", 1.0, "TABLET", "PRN", "ORAL", 1.0, "SCREENING 1", -7.0, "SCREENING", "2012-08-25", "2009", "", -13.0, null, null]
["CDISCPILOT01", "CM", "01-701-1111", 6.0, "1", "KEFLEX", "UNCODED", "", "UNCODED", 500.0, "mg", "QID", "ORAL", 1.0, "SCREENING 1", -7.0, "SCREENING", "2012-08-25", "2012-07-08", "", -13.0, -61.0, null]
["CDISCPILOT01", "CM", "01-701-1111", 7.0, "6", "SYNTHROID", "UNCODED", "", "UNCODED", 0.075, "mg", "QD", "ORAL", 2.0, "SCREENING 2", -1.0, "SCREENING", "2012-09-05", "1983", "", -2.0, null, null]
["CDISCPILOT01", "CM", "01-701-1111", 8.0, "4", "PREMARIN", "ESTROGENS CONJUGATED", "", "GENITO URINARY SYSTEM AND SEX HORMONES", 0.625, "mg", "", "ORAL", 2.0, "SCREENING 2", -1.0, "SCREENING", "2012-09-05", "1996", "", -2.0, null, null]
["CDISCPILOT01", "CM", "01-701-1111", 9.0, "5", "PROVERA", "UNCODED", "", "UNCODED", 2.5, "mg", "", "ORAL", 2.0, "SCREENING 2", -1.0, "SCREENING", "2012-09-05", "1996", "", -2.0, null, null]
["CDISCPILOT01", "CM", "01-701-1111", 10.0, "2", "LISINOPRIL", "UNCODED", "", "UNCODED", 2.5, "mg", "QD", "ORAL", 2.0, "SCREENING 2", -1.0, "SCREENING", "2012-09-05", "2006", "", -2.0, null, null]
["CDISCPILOT01", "CM", "01-701-1111", 11.0, "3", "MOTRIN", "UNCODED", "", "UNCODED", 1.0, "TABLET", "PRN", "ORAL", 2.0, "SCREENING 2", -1.0, "SCREENING", "2012-09-05", "2009", "", -2.0, null, null]
["CDISCPILOT01", "CM", "01-701-1111", 12.0, "1", "KEFLEX", "UNCODED", "", "UNCODED", 500.0, "mg", "QID", "ORAL", 2.0, "SCREENING 2", -1.0, "SCREENING", "2012-09-05", "2012-07-08", "", -2.0, -61.0, null]
["CDISCPILOT01", "CM", "01-701-1111", 13.0, "7", "HYDROCORTISONE, TOPICAL", "UNCODED", "", "UNCODED", 1.0, "TABLET", "PRN", "TOPICAL", 2.0, "SCREENING 2", -1.0, "SCREENING", "2012-09-05", "2012-09-02", "2012-09-04", -2.0, -5.0, -3.0]
["CDISCPILOT01", "CM", "01-701-1111", 14.0, "6", "SYNTHROID", "UNCODED", "", "UNCODED", 0.075, "mg", "QD", "ORAL", 3.0, "BASELINE", 1.0, "TREATMENT", "2012-09-07", "1983", "", 1.0, null, null]
["CDISCPILOT01", "CM", "01-701-1111", 15.0, "4", "PREMARIN", "ESTROGENS CONJUGATED", "", "GENITO URINARY SYSTEM AND SEX HORMONES", 0.625, "mg", "", "ORAL", 3.0, "BASELINE", 1.0, "TREATMENT", "2012-09-07", "1996", "", 1.0, null, null]
["CDISCPILOT01", "CM", "01-701-1111", 16.0, "5", "PROVERA", "UNCODED", "", "UNCODED", 2.5, "mg", "", "ORAL", 3.0, "BASELINE", 1.0, "TREATMENT", "2012-09-07", "1996", "", 1.0, null, null]
["CDISCPILOT01", "CM", "01-701-1111", 17.0, "2", "LISINOPRIL", "UNCODED", "", "UNCODED", 2.5, "mg", "QD", "ORAL", 3.0, "BASELINE", 1.0, "TREATMENT", "2012-09-07", "2006", "", 1.0, null, null]
["CDISCPILOT01", "CM", "01-701-1111", 18.0, "3", "MOTRIN", "UNCODED", "", "UNCODED", 1.0, "TABLET", "PRN", "ORAL", 3.0, "BASELINE", 1.0, "TREATMENT", "2012-09-07", "2009", "", 1.0, null, null]
["CDISCPILOT01", "CM", "01-701-1111", 19.0, "1", "KEFLEX", "UNCODED", "", "UNCODED", 500.0, "mg", "QID", "ORAL", 3.0, "BASELINE", 1.0, "TREATMENT", "2012-09-07", "2012-07-08", "", 1.0, -61.0, null]
["CDISCPILOT01", "CM", "01-701-1111", 20.0, "6", "SYNTHROID", "UNCODED", "", "UNCODED", 0.075, "mg", "QD", "ORAL", 4.0, "WEEK 2", 14.0, "TREATMENT", "2012-09-17", "1983", "", 11.0, null, null]
["CDISCPILOT01", "CM", "01-701-1111", 21.0, "4", "PREMARIN", "ESTROGENS CONJUGATED", "", "GENITO URINARY SYSTEM AND SEX HORMONES", 0.625, "mg", "", "ORAL", 4.0, "WEEK 2", 14.0, "TREATMENT", "2012-09-17", "1996", "", 11.0, null, null]
["CDISCPILOT01", "CM", "01-701-1111", 22.0, "5", "PROVERA", "UNCODED", "", "UNCODED", 2.5, "mg", "", "ORAL", 4.0, "WEEK 2", 14.0, "TREATMENT", "2012-09-17", "1996", "", 11.0, null, null]
["CDISCPILOT01", "CM", "01-701-1111", 23.0, "2", "LISINOPRIL", "UNCODED", "", "UNCODED", 2.5, "mg", "QD", "ORAL", 4.0, "WEEK 2", 14.0, "TREATMENT", "2012-09-17", "2006", "", 11.0, null, null]
["CDISCPILOT01", "CM", "01-701-1111", 24.0, "3", "MOTRIN", "UNCODED", "", "UNCODED", 1.0, "TABLET", "PRN", "ORAL", 4.0, "WEEK 2", 14.0, "TREATMENT", "2012-09-17", "2009", "", 11.0, null, null]
["CDISCPILOT01", "CM", "01-701-1111", 25.0, "1", "KEFLEX", "UNCODED", "", "UNCODED", 500.0, "mg", "QID", "ORAL", 4.0, "WEEK 2", 14.0, "TREATMENT", "2012-09-17", "2012-07-08", "", 11.0, -61.0, null]
["CDISCPILOT01", "CM", "01-701-1111", 26.0, "6", "SYNTHROID", "UNCODED", "", "UNCODED", 0.075, "mg", "QD", "ORAL", 101.0, "AE FOLLOW-UP", null, "SCREENING", "2012-09-29", "1983", "", 23.0, null, null]
["CDISCPILOT01", "CM", "01-701-1111", 27.0, "4", "PREMARIN", "ESTROGENS CONJUGATED", "", "GENITO URINARY SYSTEM AND SEX HORMONES", 0.625, "mg", "", "ORAL", 101.0, "AE FOLLOW-UP", null, "SCREENING", "2012-09-29", "1996", "", 23.0, null, null]
["CDISCPILOT01", "CM", "01-701-1111", 28.0, "5", "PROVERA", "UNCODED", "", "UNCODED", 2.5, "mg", "", "ORAL", 101.0, "AE FOLLOW-UP", null, "SCREENING", "2012-09-29", "1996", "", 23.0, null, null]
["CDISCPILOT01", "CM", "01-701-1111", 29.0, "2", "LISINOPRIL", "UNCODED", "", "UNCODED", 2.5, "mg", "QD", "ORAL", 101.0, "AE FOLLOW-UP", null, "SCREENING", "2012-09-29", "2006", "", 23.0, null, null]
["CDISCPILOT01", "CM", "01-701-1111", 30.0, "3", "MOTRIN", "UNCODED", "", "UNCODED", 1.0, "TABLET", "PRN", "ORAL", 101.0, "AE FOLLOW-UP", null, "SCREENING", "2012-09-29", "2009", "", 23.0, null, null]
["CDISCPILOT01", "CM", "01-701-1111", 31.0, "1", "KEFLEX", "UNCODED", "", "UNCODED", 500.0, "mg", "QID", "ORAL", 101.0, "AE FOLLOW-UP", null, "SCREENING", "2012-09-29", "2012-07-08", "", 23.0, -61.0, null]
["CDISCPILOT01", "CM", "01-701-1111", 32.0, "6", "SYNTHROID", "UNCODED", "", "UNCODED", 0.075, "mg", "QD", "ORAL", 201.0, "RETRIEVAL", 168.0, "TREATMENT", "2013-02-22", "1983", "", 169.0, null, null]
["CDISCPILOT01", "CM", "01-701-1111", 33.0, "4", "PREMARIN", "ESTROGENS CONJUGATED", "", "GENITO URINARY SYSTEM AND SEX HORMONES", 0.625, "mg", "", "ORAL", 201.0, "RETRIEVAL", 168.0, "TREATMENT", "2013-02-22", "1996", "", 169.0, null, null]
["CDISCPILOT01", "CM", "01-701-1111", 34.0, "5", "PROVERA", "UNCODED", "", "UNCODED", 2.5, "mg", "", "ORAL", 201.0, "RETRIEVAL", 168.0, "TREATMENT", "2013-02-22", "1996", "", 169.0, null, null]
["CDISCPILOT01", "CM", "01-701-1111", 35.0, "2", "LISINOPRIL", "UNCODED", "", "UNCODED", 2.5, "mg", "QD", "ORAL", 201.0, "RETRIEVAL", 168.0, "TREATMENT", "2013-02-22", "2006", "", 169.0, null, null]
["CDISCPILOT01", "CM", "01-701-1111", 36.0, "3", "MOTRIN", "UNCODED", "", "UNCODED", 1.0, "TABLET", "PRN", "ORAL", 201.0, "RETRIEVAL", 168.0, "TREATMENT", "2013-02-22", "2009", "", 169.0, null, null]
["CDISCPILOT01", "CM", "01-701-1111", 37.0, "1", "KEFLEX", "UNCODED", "", "UNCODED", 500.0, "mg", "QID", "ORAL", 201.0, "RETRIEVAL", 168.0, "TREATMENT", "2013-02-22", "2012-07-08", "", 169.0, -61.0, null]
["CDISCPILOT01", "CM", "01-701-1115", 1.0, "1", "ASPIRIN", "ACETYLSALICYLIC ACID", "", "NERVOUS SYSTEM", 1.0, "TABLET", "QD", "ORAL", 1.0, "SCREENING 1", -7.0, "SCREENING", "2012-11-23", "2011", "", -7.0, null, null]
["CDISCPILOT01", "CM", "01-701-1115", 2.0, "2", "METAMUCIL", "UNCODED", "", "UNCODED", 1.0, "TABLET", "PRN", "ORAL", 1.0, "SCREENING 1", -7.0, "SCREENING", "2012-11-23", "2012-08", "", -7.0, null, null]
["CDISCPILOT01", "CM", "01-701-1115", 3.0, "1", "ASPIRIN", "ACETYLSALICYLIC ACID", "", "NERVOUS SYSTEM", 1.0, "TABLET", "QD", "ORAL", 2.0, "SCREENING 2", -1.0, "SCREENING", "2012-11-28", "2011", "", -2.0, null, null]
["CDISCPILOT01", "CM", "01-701-1115", 4.0, "2", "METAMUCIL", "UNCODED", "", "UNCODED", 1.0, "TABLET", "PRN", "ORAL", 2.0, "SCREENING 2", -1.0, "SCREENING", "2012-11-28", "2012-08", "", -2.0, null, null]
["CDISCPILOT01", "CM", "01-701-1115", 5.0, "1", "ASPIRIN", "ACETYLSALICYLIC ACID", "", "NERVOUS SYSTEM", 1.0, "TABLET", "QD", "ORAL", 3.0, "BASELINE", 1.0, "TREATMENT", "2012-11-30", "2011", "", 1.0, null, null]
["CDISCPILOT01", "CM", "01-701-1115", 6.0, "2", "METAMUCIL", "UNCODED", "", "UNCODED", 1.0, "TABLET", "PRN", "ORAL", 3.0, "BASELINE", 1.0, "TREATMENT", "2012-11-30", "2012-08", "", 1.0, null, null]
["CDISCPILOT01", "CM", "01-701-1115", 7.0, "1", "ASPIRIN", "ACETYLSALICYLIC ACID", "", "NERVOUS SYSTEM", 1.0, "TABLET", "QD", "ORAL", 4.0, "WEEK 2", 14.0, "TREATMENT", "2012-12-13", "2011", "", 14.0, null, null]
["CDISCPILOT01", "CM", "01-701-1115", 8.0, "2", "METAMUCIL", "UNCODED", "", "UNCODED", 1.0, "TABLET", "PRN", "ORAL", 4.0, "WEEK 2", 14.0, "TREATMENT", "2012-12-13", "2012-08", "", 14.0, null, null]
["CDISCPILOT01", "CM", "01-701-1115", 9.0, "1", "ASPIRIN", "ACETYLSALICYLIC ACID", "", "NERVOUS SYSTEM", 1.0, "TABLET", "QD", "ORAL", 5.0, "WEEK 4", 28.0, "TREATMENT", "2012-12-26", "2011", "", 27.0, null, null]
["CDISCPILOT01", "CM", "01-701-1115", 10.0, "2", "METAMUCIL", "UNCODED", "", "UNCODED", 1.0, "TABLET", "PRN", "ORAL", 5.0, "WEEK 4", 28.0, "TREATMENT", "2012-12-26", "2012-08", "", 27.0, null, null]
["CDISCPILOT01", "CM", "01-701-1115", 11.0, "1", "ASPIRIN", "ACETYLSALICYLIC ACID", "", "NERVOUS SYSTEM", 1.0, "TABLET", "QD", "ORAL", 6.0, "AMBUL ECG REMOVAL", 30.0, "TREATMENT", "2012-12-28", "2011", "", 29.0, null, null]
["CDISCPILOT01", "CM", "01-701-1115", 12.0, "2", "METAMUCIL", "UNCODED", "", "UNCODED", 1.0, "TABLET", "PRN", "ORAL", 6.0, "AMBUL ECG REMOVAL", 30.0, "TREATMENT", "2012-12-28", "2012-08", "", 29.0, null, null]
["CDISCPILOT01", "CM", "01-701-1115", 13.0, "1", "ASPIRIN", "ACETYLSALICYLIC ACID", "", "NERVOUS SYSTEM", 1.0, "TABLET", "QD", "ORAL", 7.0, "WEEK 6", 42.0, "TREATMENT", "2013-01-10", "2011", "", 42.0, null, null]
["CDISCPILOT01", "CM", "01-701-1115", 14.0, "2", "METAMUCIL", "UNCODED", "", "UNCODED", 1.0, "TABLET", "PRN", "ORAL", 7.0, "WEEK 6", 42.0, "TREATMENT", "2013-01-10", "2012-08", "", 42.0, null, null]
["CDISCPILOT01", "CM", "01-701-1115", 15.0, "1", "ASPIRIN", "ACETYLSALICYLIC ACID", "", "NERVOUS SYSTEM", 1.0, "TABLET", "QD", "ORAL", 8.0, "WEEK 8", 56.0, "TREATMENT", "2013-01-23", "2011", "", 55.0, null, null]
["CDISCPILOT01", "CM", "01-701-1115", 16.0, "2", "METAMUCIL", "UNCODED", "", "UNCODED", 1.0, "TABLET", "PRN", "ORAL", 8.0, "WEEK 8", 56.0, "TREATMENT", "2013-01-23", "2012-08", "", 55.0, null, null]
["CDISCPILOT01", "CM", "01-701-1115", 17.0, "3", "HYDROCORTISONE, TOPICAL", "UNCODED", "", "UNCODED", 1.0, "TABLET", "PRN", "TOPICAL", 8.0, "WEEK 8", 56.0, "TREATMENT", "2013-01-23", "2013-01-11", "", 55.0, 43.0, null]
["CDISCPILOT01", "CM", "01-701-1115", 18.0, "1", "ASPIRIN", "ACETYLSALICYLIC ACID", "", "NERVOUS SYSTEM", 1.0, "TABLET", "QD", "ORAL", 101.0, "AE FOLLOW-UP", null, "SCREENING", "2013-02-14", "2011", "", 77.0, null, null]
["CDISCPILOT01", "CM", "01-701-1115", 19.0, "2", "METAMUCIL", "UNCODED", "", "UNCODED", 1.0, "TABLET", "PRN", "ORAL", 101.0, "AE FOLLOW-UP", null, "SCREENING", "2013-02-14", "2012-08", "", 77.0, null, null]
["CDISCPILOT01", "CM", "01-701-1115", 20.0, "3", "HYDROCORTISONE, TOPICAL", "UNCODED", "", "UNCODED", 1.0, "TABLET", "PRN", "TOPICAL", 101.0, "AE FOLLOW-UP", null, "SCREENING", "2013-02-14", "2013-01-11", "", 77.0, 43.0, null]
["CDISCPILOT01", "CM", "01-701-1115", 21.0, "1", "ASPIRIN", "ACETYLSALICYLIC ACID", "", "NERVOUS SYSTEM", 1.0, "TABLET", "QD", "ORAL", 201.0, "RETRIEVAL", 168.0, "TREATMENT", "2013-05-20", "2011", "", 172.0, null, null]
["CDISCPILOT01", "CM", "01-701-1115", 22.0, "2", "METAMUCIL", "UNCODED", "", "UNCODED", 1.0, "TABLET", "PRN", "ORAL", 201.0, "RETRIEVAL", 168.0, "TREATMENT", "2013-05-20", "2012-08", "", 172.0, null, null]
["CDISCPILOT01", "CM", "01-701-1115", 23.0, "3", "HYDROCORTISONE, TOPICAL", "UNCODED", "", "UNCODED", 1.0, "TABLET", "PRN", "TOPICAL", 201.0, "RETRIEVAL", 168.0, "TREATMENT", "2013-05-20", "2013-01-11", "", 172.0, 43.0, null]
["CDISCPILOT01", "CM", "01-701-1115", 24.0, "6", "HYTRIN", "UNCODED", "", "UNCODED", 2.0, "TABLET", "QD", "ORAL", 201.0, "RETRIEVAL", 168.0, "TREATMENT", "2013-05-20", "2013-04-19", "2013-05-14", 172.0, 141.0, 166.0]
["CDISCPILOT01", "CM", "01-701-1115", 25.0, "4", "ASPIRIN", "ACETYLSALICYLIC ACID", "PROPHYLAXIS OR NON-THERAPEUTIC USE", "NERVOUS SYSTEM", 80.0, "mg", "QD", "ORAL", 201.0, "RETRIEVAL", 168.0, "TREATMENT", "2013-05-20", "2013-04-29", "", 172.0, 151.0, null]
["CDISCPILOT01", "CM", "01-701-1115", 26.0, "5", "FEOSOL", "UNCODED", "PROPHYLAXIS OR NON-THERAPEUTIC USE", "UNCODED", 325.0, "mg", "BID", "ORAL", 201.0, "RETRIEVAL", 168.0, "TREATMENT", "2013-05-20", "2013-04-29", "", 172.0, 151.0, null]
["CDISCPILOT01", "CM", "01-701-1115", 27.0, "7", "PRAVACHOL", "UNCODED", "", "UNCODED", 20.0, "mg", "QD", "ORAL", 201.0, "RETRIEVAL", 168.0, "TREATMENT", "2013-05-20", "2013-05-08", "", 172.0, 160.0, null]
["CDISCPILOT01", "CM", "01-701-1118", 1.0, "1", "ASPIRIN", "ACETYLSALICYLIC ACID", "PROPHYLAXIS OR NON-THERAPEUTIC USE", "NERVOUS SYSTEM", 325.0, "mg", "PRN", "ORAL", 1.0, "SCREENING 1", -7.0, "SCREENING", "2014-02-27", "2000-12-10", "", -13.0, -4840.0, null]
["CDISCPILOT01", "CM", "01-701-1118", 2.0, "2", "MULTIVITAMIN", "UNCODED", "PROPHYLAXIS OR NON-THERAPEUTIC USE", "UNCODED", 1.0, "TABLET", "QD", "ORAL", 1.0, "SCREENING 1", -7.0, "SCREENING", "2014-02-27", "2012-01-21", "", -13.0, -781.0, null]
["CDISCPILOT01", "CM", "01-701-1118", 3.0, "1", "ASPIRIN", "ACETYLSALICYLIC ACID", "PROPHYLAXIS OR NON-THERAPEUTIC USE", "NERVOUS SYSTEM", 325.0, "mg", "PRN", "ORAL", 2.0, "SCREENING 2", -1.0, "SCREENING", "2014-03-10", "2000-12-10", "", -2.0, -4840.0, null]
["CDISCPILOT01", "CM", "01-701-1118", 4.0, "2", "MULTIVITAMIN", "UNCODED", "PROPHYLAXIS OR NON-THERAPEUTIC USE", "UNCODED", 1.0, "TABLET", "QD", "ORAL", 2.0, "SCREENING 2", -1.0, "SCREENING", "2014-03-10", "2012-01-21", "", -2.0, -781.0, null]
["CDISCPILOT01", "CM", "01-701-1118", 5.0, "1", "ASPIRIN", "ACETYLSALICYLIC ACID", "PROPHYLAXIS OR NON-THERAPEUTIC USE", "NERVOUS SYSTEM", 325.0, "mg", "PRN", "ORAL", 3.0, "BASELINE", 1.0, "TREATMENT", "2014-03-12", "2000-12-10", "", 1.0, -4840.0, null]
["CDISCPILOT01", "CM", "01-701-1118", 6.0, "2", "MULTIVITAMIN", "UNCODED", "PROPHYLAXIS OR NON-THERAPEUTIC USE", "UNCODED", 1.0, "TABLET", "QD", "ORAL", 3.0, "BASELINE", 1.0, "TREATMENT", "2014-03-12", "2012-01-21", "", 1.0, -781.0, null]
["CDISCPILOT01", "CM", "01-701-1118", 7.0, "1", "ASPIRIN", "ACETYLSALICYLIC ACID", "PROPHYLAXIS OR NON-THERAPEUTIC USE", "NERVOUS SYSTEM", 325.0, "mg", "PRN", "ORAL", 4.0, "WEEK 2", 14.0, "TREATMENT", "2014-03-26", "2000-12-10", "", 15.0, -4840.0, null]
["CDISCPILOT01", "CM", "01-701-1118", 8.0, "2", "MULTIVITAMIN", "UNCODED", "PROPHYLAXIS OR NON-THERAPEUTIC USE", "UNCODED", 1.0, "TABLET", "QD", "ORAL", 4.0, "WEEK 2", 14.0, "TREATMENT", "2014-03-26", "2012-01-21", "", 15.0, -781.0, null]
["CDISCPILOT01", "CM", "01-701-1118", 9.0, "1", "ASPIRIN", "ACETYLSALICYLIC ACID", "PROPHYLAXIS OR NON-THERAPEUTIC USE", "NERVOUS SYSTEM", 325.0, "mg", "PRN", "ORAL", 5.0, "WEEK 4", 28.0, "TREATMENT", "2014-04-09", "2000-12-10", "", 29.0, -4840.0, null]
["CDISCPILOT01", "CM", "01-701-1118", 10.0, "2", "MULTIVITAMIN", "UNCODED", "PROPHYLAXIS OR NON-THERAPEUTIC USE", "UNCODED", 1.0, "TABLET", "QD", "ORAL", 5.0, "WEEK 4", 28.0, "TREATMENT", "2014-04-09", "2012-01-21", "", 29.0, -781.0, null]
["CDISCPILOT01", "CM", "01-701-1118", 11.0, "1", "ASPIRIN", "ACETYLSALICYLIC ACID", "PROPHYLAXIS OR NON-THERAPEUTIC USE", "NERVOUS SYSTEM", 325.0, "mg", "PRN", "ORAL", 6.0, "AMBUL ECG REMOVAL", 30.0, "TREATMENT", "2014-04-11", "2000-12-10", "", 31.0, -4840.0, null]
["CDISCPILOT01", "CM", "01-701-1118", 12.0, "2", "MULTIVITAMIN", "UNCODED", "PROPHYLAXIS OR NON-THERAPEUTIC USE", "UNCODED", 1.0, "TABLET", "QD", "ORAL", 6.0, "AMBUL ECG REMOVAL", 30.0, "TREATMENT", "2014-04-11", "2012-01-21", "", 31.0, -781.0, null]
["CDISCPILOT01", "CM", "01-701-1118", 13.0, "1", "ASPIRIN", "ACETYLSALICYLIC ACID", "PROPHYLAXIS OR NON-THERAPEUTIC USE", "NERVOUS SYSTEM", 325.0, "mg", "PRN", "ORAL", 7.0, "WEEK 6", 42.0, "TREATMENT", "2014-04-23", "2000-12-10", "", 43.0, -4840.0, null]
["CDISCPILOT01", "CM", "01-701-1118", 14.0, "2", "MULTIVITAMIN", "UNCODED", "PROPHYLAXIS OR NON-THERAPEUTIC USE", "UNCODED", 1.0, "TABLET", "QD", "ORAL", 7.0, "WEEK 6", 42.0, "TREATMENT", "2014-04-23", "2012-01-21", "", 43.0, -781.0, null]
["CDISCPILOT01", "CM", "01-701-1118", 15.0, "1", "ASPIRIN", "ACETYLSALICYLIC ACID", "PROPHYLAXIS OR NON-THERAPEUTIC USE", "NERVOUS SYSTEM", 325.0, "mg", "PRN", "ORAL", 8.0, "WEEK 8", 56.0, "TREATMENT", "2014-05-08", "2000-12-10", "", 58.0, -4840.0, null]
["CDISCPILOT01", "CM", "01-701-1118", 16.0, "2", "MULTIVITAMIN", "UNCODED", "PROPHYLAXIS OR NON-THERAPEUTIC USE", "UNCODED", 1.0, "TABLET", "QD", "ORAL", 8.0, "WEEK 8", 56.0, "TREATMENT", "2014-05-08", "2012-01-21", "", 58.0, -781.0, null]
["CDISCPILOT01", "CM", "01-701-1118", 17.0, "1", "ASPIRIN", "ACETYLSALICYLIC ACID", "PROPHYLAXIS OR NON-THERAPEUTIC USE", "NERVOUS SYSTEM", 325.0, "mg", "PRN", "ORAL", 9.0, "WEEK 12", 84.0, "TREATMENT", "2014-06-05", "2000-12-10", "", 86.0, -4840.0, null]
["CDISCPILOT01", "CM", "01-701-1118", 18.0, "2", "MULTIVITAMIN", "UNCODED", "PROPHYLAXIS OR NON-THERAPEUTIC USE", "UNCODED", 1.0, "TABLET", "QD", "ORAL", 9.0, "WEEK 12", 84.0, "TREATMENT", "2014-06-05", "2012-01-21", "", 86.0, -781.0, null]
["CDISCPILOT01", "CM", "01-701-1118", 19.0, "1", "ASPIRIN", "ACETYLSALICYLIC ACID", "PROPHYLAXIS OR NON-THERAPEUTIC USE", "NERVOUS SYSTEM", 325.0, "mg", "PRN", "ORAL", 10.0, "WEEK 16", 112.0, "TREATMENT", "2014-07-02", "2000-12-10", "", 113.0, -4840.0, null]
["CDISCPILOT01", "CM", "01-701-1118", 20.0, "2", "MULTIVITAMIN", "UNCODED", "PROPHYLAXIS OR NON-THERAPEUTIC USE", "UNCODED", 1.0, "TABLET", "QD", "ORAL", 10.0, "WEEK 16", 112.0, "TREATMENT", "2014-07-02", "2012-01-21", "", 113.0, -781.0, null]
["CDISCPILOT01", "CM", "01-701-1118", 21.0, "1", "ASPIRIN", "ACETYLSALICYLIC ACID", "PROPHYLAXIS OR NON-THERAPEUTIC USE", "NERVOUS SYSTEM", 325.0, "mg", "PRN", "ORAL", 11.0, "WEEK 20", 140.0, "TREATMENT", "2014-07-30", "2000-12-10", "", 141.0, -4840.0, null]
["CDISCPILOT01", "CM", "01-701-1118", 22.0, "2", "MULTIVITAMIN", "UNCODED", "PROPHYLAXIS OR NON-THERAPEUTIC USE", "UNCODED", 1.0, "TABLET", "QD", "ORAL", 11.0, "WEEK 20", 140.0, "TREATMENT", "2014-07-30", "2012-01-21", "", 141.0, -781.0, null]
["CDISCPILOT01", "CM", "01-701-1118", 23.0, "1", "ASPIRIN", "ACETYLSALICYLIC ACID", "PROPHYLAXIS OR NON-THERAPEUTIC USE", "NERVOUS SYSTEM", 325.0, "mg", "PRN", "ORAL", 12.0, "WEEK 24", 168.0, "TREATMENT", "2014-08-27", "2000-12-10", "", 169.0, -4840.0, null]
["CDISCPILOT01", "CM", "01-701-1118", 24.0, "2", "MULTIVITAMIN", "UNCODED", "PROPHYLAXIS OR NON-THERAPEUTIC USE", "UNCODED", 1.0, "TABLET", "QD", "ORAL", 12.0, "WEEK 24", 168.0, "TREATMENT", "2014-08-27", "2012-01-21", "", 169.0, -781.0, null]
["CDISCPILOT01", "CM", "01-701-1118", 25.0, "1", "ASPIRIN", "ACETYLSALICYLIC ACID", "PROPHYLAXIS OR NON-THERAPEUTIC USE", "NERVOUS SYSTEM", 325.0, "mg", "PRN", "ORAL", 13.0, "WEEK 26", 182.0, "TREATMENT", "2014-09-09", "2000-12-10", "", 182.0, -4840.0, null]
["CDISCPILOT01", "CM", "01-701-1118", 26.0, "2", "MULTIVITAMIN", "UNCODED", "PROPHYLAXIS OR NON-THERAPEUTIC USE", "UNCODED", 1.0, "TABLET", "QD", "ORAL", 13.0, "WEEK 26", 182.0, "TREATMENT", "2014-09-09", "2012-01-21", "", 182.0, -781.0, null]
["CDISCPILOT01", "CM", "01-701-1130", 1.0, "1", "CALCIUM", "CALCIUM", "PROPHYLAXIS OR NON-THERAPEUTIC USE", "ALIMENTARY TRACT AND METABOLISM", 1.0, "TABLET", "QD", "ORAL", 1.0, "SCREENING 1", -7.0, "SCREENING", "2014-02-09", "2002", "", -6.0, null, null]
["CDISCPILOT01", "CM", "01-701-1130", 2.0, "3", "MULTIVITAMINS", "UNCODED", "PROPHYLAXIS OR NON-THERAPEUTIC USE", "UNCODED", 4.0, "mg", "QD", "ORAL", 1.0, "SCREENING 1", -7.0, "SCREENING", "2014-02-09", "2002", "", -6.0, null, null]
["CDISCPILOT01", "CM", "01-701-1130", 3.0, "4", "POTASSIUM", "UNCODED", "PROPHYLAXIS OR NON-THERAPEUTIC USE", "UNCODED", 1.0, "TABLET", "QD", "ORAL", 1.0, "SCREENING 1", -7.0, "SCREENING", "2014-02-09", "2002", "", -6.0, null, null]
["CDISCPILOT01", "CM", "01-701-1130", 4.0, "2", "EUCERIN CREME", "UNCODED", "", "UNCODED", 1.0, "TABLET", "TID", "TOPICAL", 1.0, "SCREENING 1", -7.0, "SCREENING", "2014-02-09", "2013-09", "", -6.0, null, null]
["CDISCPILOT01", "CM", "01-701-1130", 5.0, "1", "CALCIUM", "CALCIUM", "PROPHYLAXIS OR NON-THERAPEUTIC USE", "ALIMENTARY TRACT AND METABOLISM", 1.0, "TABLET", "QD", "ORAL", 2.0, "SCREENING 2", -1.0, "SCREENING", "2014-02-13", "2002", "", -2.0, null, null]
["CDISCPILOT01", "CM", "01-701-1130", 6.0, "3", "MULTIVITAMINS", "UNCODED", "PROPHYLAXIS OR NON-THERAPEUTIC USE", "UNCODED", 4.0, "mg", "QD", "ORAL", 2.0, "SCREENING 2", -1.0, "SCREENING", "2014-02-13", "2002", "", -2.0, null, null]
["CDISCPILOT01", "CM", "01-701-1130", 7.0, "4", "POTASSIUM", "UNCODED", "PROPHYLAXIS OR NON-THERAPEUTIC USE", "UNCODED", 1.0, "TABLET", "QD", "ORAL", 2.0, "SCREENING 2", -1.0, "SCREENING", "2014-02-13", "2002", "", -2.0, null, null]
["CDISCPILOT01", "CM", "01-701-1130", 8.0, "2", "EUCERIN CREME", "UNCODED", "", "UNCODED", 1.0, "TABLET", "TID", "TOPICAL", 2.0, "SCREENING 2", -1.0, "SCREENING", "2014-02-13", "2013-09", "", -2.0, null, null]
["CDISCPILOT01", "CM", "01-701-1130", 9.0, "1", "CALCIUM", "CALCIUM", "PROPHYLAXIS OR NON-THERAPEUTIC USE", "ALIMENTARY TRACT AND METABOLISM", 1.0, "TABLET", "QD", "ORAL", 3.0, "BASELINE", 1.0, "TREATMENT", "2014-02-15", "2002", "", 1.0, null, null]
["CDISCPILOT01", "CM", "01-701-1130", 10.0, "3", "MULTIVITAMINS", "UNCODED", "PROPHYLAXIS OR NON-THERAPEUTIC USE", "UNCODED", 4.0, "mg", "QD", "ORAL", 3.0, "BASELINE", 1.0, "TREATMENT", "2014-02-15", "2002", "", 1.0, null, null]
["CDISCPILOT01", "CM", "01-701-1130", 11.0, "4", "POTASSIUM", "UNCODED", "PROPHYLAXIS OR NON-THERAPEUTIC USE", "UNCODED", 1.0, "TABLET", "QD", "ORAL", 3.0, "BASELINE", 1.0, "TREATMENT", "2014-02-15", "2002", "", 1.0, null, null]
["CDISCPILOT01", "CM", "01-701-1130", 12.0, "2", "EUCERIN CREME", "UNCODED", "", "UNCODED", 1.0, "TABLET", "TID", "TOPICAL", 3.0, "BASELINE", 1.0, "TREATMENT", "2014-02-15", "2013-09", "", 1.0, null, null]
["CDISCPILOT01", "CM", "01-701-1130", 13.0, "1", "CALCIUM", "CALCIUM", "PROPHYLAXIS OR NON-THERAPEUTIC USE", "ALIMENTARY TRACT AND METABOLISM", 1.0, "TABLET", "QD", "ORAL", 4.0, "WEEK 2", 14.0, "TREATMENT", "2014-03-01", "2002", "", 15.0, null, null]
["CDISCPILOT01", "CM", "01-701-1130", 14.0, "3", "MULTIVITAMINS", "UNCODED", "PROPHYLAXIS OR NON-THERAPEUTIC USE", "UNCODED", 4.0, "mg", "QD", "ORAL", 4.0, "WEEK 2", 14.0, "TREATMENT", "2014-03-01", "2002", "", 15.0, null, null]
["CDISCPILOT01", "CM", "01-701-1130", 15.0, "4", "POTASSIUM", "UNCODED", "PROPHYLAXIS OR NON-THERAPEUTIC USE", "UNCODED", 1.0, "TABLET", "QD", "ORAL", 4.0, "WEEK 2", 14.0, "TREATMENT", "2014-03-01", "2002", "", 15.0, null, null]
["CDISCPILOT01", "CM", "01-701-1130", 16.0, "2", "EUCERIN CREME", "UNCODED", "", "UNCODED", 1.0, "TABLET", "TID", "TOPICAL", 4.0, "WEEK 2", 14.0, "TREATMENT", "2014-03-01", "2013-09", "", 15.0, null, null]
["CDISCPILOT01", "CM", "01-701-1130", 17.0, "1", "CALCIUM", "CALCIUM", "PROPHYLAXIS OR NON-THERAPEUTIC USE", "ALIMENTARY TRACT AND METABOLISM", 1.0, "TABLET", "QD", "ORAL", 5.0, "WEEK 4", 28.0, "TREATMENT", "2014-03-15", "2002", "", 29.0, null, null]
["CDISCPILOT01", "CM", "01-701-1130", 18.0, "3", "MULTIVITAMINS", "UNCODED", "PROPHYLAXIS OR NON-THERAPEUTIC USE", "UNCODED", 4.0, "mg", "QD", "ORAL", 5.0, "WEEK 4", 28.0, "TREATMENT", "2014-03-15", "2002", "", 29.0, null, null]
["CDISCPILOT01", "CM", "01-701-1130", 19.0, "4", "POTASSIUM", "UNCODED", "PROPHYLAXIS OR NON-THERAPEUTIC USE", "UNCODED", 1.0, "TABLET", "QD", "ORAL", 5.0, "WEEK 4", 28.0, "TREATMENT", "2014-03-15", "2002", "", 29.0, null, null]
["CDISCPILOT01", "CM", "01-701-1130", 20.0, "2", "EUCERIN CREME", "UNCODED", "", "UNCODED", 1.0, "TABLET", "TID", "TOPICAL", 5.0, "WEEK 4", 28.0, "TREATMENT", "2014-03-15", "2013-09", "", 29.0, null, null]
["CDISCPILOT01", "CM", "01-701-1130", 21.0, "5", "SULFAMETHOXAZOLE", "UNCODED", "", "UNCODED", 1.0, "TABLET", "BID", "ORAL", 5.0, "WEEK 4", 28.0, "TREATMENT", "2014-03-15", "2014-03-10", "2014-03-16", 29.0, 24.0, 30.0]
["CDISCPILOT01", "CM", "01-701-1130", 22.0, "1", "CALCIUM", "CALCIUM", "PROPHYLAXIS OR NON-THERAPEUTIC USE", "ALIMENTARY TRACT AND METABOLISM", 1.0, "TABLET", "QD", "ORAL", 6.0, "AMBUL ECG REMOVAL", 30.0, "TREATMENT", "2014-03-17", "2002", "", 31.0, null, null]
["CDISCPILOT01", "CM", "01-701-1130", 23.0, "3", "MULTIVITAMINS", "UNCODED", "PROPHYLAXIS OR NON-THERAPEUTIC USE", "UNCODED", 4.0, "mg", "QD", "ORAL", 6.0, "AMBUL ECG REMOVAL", 30.0, "TREATMENT", "2014-03-17", "2002", "", 31.0, null, null]
["CDISCPILOT01", "CM", "01-701-1130", 24.0, "4", "POTASSIUM", "UNCODED", "PROPHYLAXIS OR NON-THERAPEUTIC USE", "UNCODED", 1.0, "TABLET", "QD", "ORAL", 6.0, "AMBUL ECG REMOVAL", 30.0, "TREATMENT", "2014-03-17", "2002", "", 31.0, null, null]
["CDISCPILOT01", "CM", "01-701-1130", 25.0, "2", "EUCERIN CREME", "UNCODED", "", "UNCODED", 1.0, "TABLET", "TID", "TOPICAL", 6.0, "AMBUL ECG REMOVAL", 30.0, "TREATMENT", "2014-03-17", "2013-09", "", 31.0, null, null]
["CDISCPILOT01", "CM", "01-701-1130", 26.0, "5", "SULFAMETHOXAZOLE", "UNCODED", "", "UNCODED", 1.0, "TABLET", "BID", "ORAL", 6.0, "AMBUL ECG REMOVAL", 30.0, "TREATMENT", "2014-03-17", "2014-03-10", "2014-03-16", 31.0, 24.0, 30.0]
["CDISCPILOT01", "CM", "01-701-1130", 27.0, "1", "CALCIUM", "CALCIUM", "PROPHYLAXIS OR NON-THERAPEUTIC USE", "ALIMENTARY TRACT AND METABOLISM", 1.0, "TABLET", "QD", "ORAL", 7.0, "WEEK 6", 42.0, "TREATMENT", "2014-03-29", "2002", "", 43.0, null, null]
["CDISCPILOT01", "CM", "01-701-1130", 28.0, "3", "MULTIVITAMINS", "UNCODED", "PROPHYLAXIS OR NON-THERAPEUTIC USE", "UNCODED", 4.0, "mg", "QD", "ORAL", 7.0, "WEEK 6", 42.0, "TREATMENT", "2014-03-29", "2002", "", 43.0, null, null]
["CDISCPILOT01", "CM", "01-701-1130", 29.0, "4", "POTASSIUM", "UNCODED", "PROPHYLAXIS OR NON-THERAPEUTIC USE", "UNCODED", 1.0, "TABLET", "QD", "ORAL", 7.0, "WEEK 6", 42.0, "TREATMENT", "2014-03-29", "2002", "", 43.0, null, null]
["CDISCPILOT01", "CM", "01-701-1130", 30.0, "2", "EUCERIN CREME", "UNCODED", "", "UNCODED", 1.0, "TABLET", "TID", "TOPICAL", 7.0, "WEEK 6", 42.0, "TREATMENT", "2014-03-29", "2013-09", "", 43.0, null, null]
["CDISCPILOT01", "CM", "01-701-1130", 31.0, "1", "CALCIUM", "CALCIUM", "PROPHYLAXIS OR NON-THERAPEUTIC USE", "ALIMENTARY TRACT AND METABOLISM", 1.0, "TABLET", "QD", "ORAL", 8.0, "WEEK 8", 56.0, "TREATMENT", "2014-04-12", "2002", "", 57.0, null, null]
["CDISCPILOT01", "CM", "01-701-1130", 32.0, "3", "MULTIVITAMINS", "UNCODED", "PROPHYLAXIS OR NON-THERAPEUTIC USE", "UNCODED", 4.0, "mg", "QD", "ORAL", 8.0, "WEEK 8", 56.0, "TREATMENT", "2014-04-12", "2002", "", 57.0, null, null]
["CDISCPILOT01", "CM", "01-701-1130", 33.0, "4", "POTASSIUM", "UNCODED", "PROPHYLAXIS OR NON-THERAPEUTIC USE", "UNCODED", 1.0, "TABLET", "QD", "ORAL", 8.0, "WEEK 8", 56.0, "TREATMENT", "2014-04-12", "2002", "", 57.0, null, null]
["CDISCPILOT01", "CM", "01-701-1130", 34.0, "2", "EUCERIN CREME", "UNCODED", "", "UNCODED", 1.0, "TABLET", "TID", "TOPICAL", 8.0, "WEEK 8", 56.0, "TREATMENT", "2014-04-12", "2013-09", "", 57.0, null, null]
["CDISCPILOT01", "CM", "01-701-1130", 35.0, "1", "CALCIUM", "CALCIUM", "PROPHYLAXIS OR NON-THERAPEUTIC USE", "ALIMENTARY TRACT AND METABOLISM", 1.0, "TABLET", "QD", "ORAL", 9.0, "WEEK 12", 84.0, "TREATMENT", "2014-05-16", "2002", "", 91.0, null, null]
["CDISCPILOT01", "CM", "01-701-1130", 36.0, "3", "MULTIVITAMINS", "UNCODED", "PROPHYLAXIS OR NON-THERAPEUTIC USE", "UNCODED", 4.0, "mg", "QD", "ORAL", 9.0, "WEEK 12", 84.0, "TREATMENT", "2014-05-16", "2002", "", 91.0, null, null]
["CDISCPILOT01", "CM", "01-701-1130", 37.0, "4", "POTASSIUM", "UNCODED", "PROPHYLAXIS OR NON-THERAPEUTIC USE", "UNCODED", 1.0, "TABLET", "QD", "ORAL", 9.0, "WEEK 12", 84.0, "TREATMENT", "2014-05-16", "2002", "", 91.0, null, null]
["CDISCPILOT01", "CM", "01-701-1130", 38.0, "2", "EUCERIN CREME", "UNCODED", "", "UNCODED", 1.0, "TABLET", "TID", "TOPICAL", 9.0, "WEEK 12", 84.0, "TREATMENT", "2014-05-16", "2013-09", "", 91.0, null, null]
["CDISCPILOT01", "CM", "01-701-1130", 39.0, "6", "ANTIHISTAMINES FOR SYSTEMIC USE", "UNCODED", "", "UNCODED", 2.0, "TABLET", "PRN", "ORAL", 9.0, "WEEK 12", 84.0, "TREATMENT", "2014-05-16", "2014-05-09", "2014-05-09", 91.0, 84.0, 84.0]
["CDISCPILOT01", "CM", "01-701-1130", 40.0, "1", "CALCIUM", "CALCIUM", "PROPHYLAXIS OR NON-THERAPEUTIC USE", "ALIMENTARY TRACT AND METABOLISM", 1.0, "TABLET", "QD", "ORAL", 10.0, "WEEK 16", 112.0, "TREATMENT", "2014-06-07", "2002", "", 113.0, null, null]
["CDISCPILOT01", "CM", "01-701-1130", 41.0, "3", "MULTIVITAMINS", "UNCODED", "PROPHYLAXIS OR NON-THERAPEUTIC USE", "UNCODED", 4.0, "mg", "QD", "ORAL", 10.0, "WEEK 16", 112.0, "TREATMENT", "2014-06-07", "2002", "", 113.0, null, null]
["CDISCPILOT01", "CM", "01-701-1130", 42.0, "4", "POTASSIUM", "UNCODED", "PROPHYLAXIS OR NON-THERAPEUTIC USE", "UNCODED", 1.0, "TABLET", "QD", "ORAL", 10.0, "WEEK 16", 112.0, "TREATMENT", "2014-06-07", "2002", "", 113.0, null, null]
["CDISCPILOT01", "CM", "01-701-1130", 43.0, "2", "EUCERIN CREME", "UNCODED", "", "UNCODED", 1.0, "TABLET", "TID", "TOPICAL", 10.0, "WEEK 16", 112.0, "TREATMENT", "2014-06-07", "2013-09", "", 113.0, null, null]
["CDISCPILOT01", "CM", "01-701-1130", 44.0, "1", "CALCIUM", "CALCIUM", "PROPHYLAXIS OR NON-THERAPEUTIC USE", "ALIMENTARY TRACT AND METABOLISM", 1.0, "TABLET", "QD", "ORAL", 11.0, "WEEK 20", 140.0, "TREATMENT", "2014-07-02", "2002", "", 138.0, null, null]
["CDISCPILOT01", "CM", "01-701-1130", 45.0, "3", "MULTIVITAMINS", "UNCODED", "PROPHYLAXIS OR NON-THERAPEUTIC USE", "UNCODED", 4.0, "mg", "QD", "ORAL", 11.0, "WEEK 20", 140.0, "TREATMENT", "2014-07-02", "2002", "", 138.0, null, null]
["CDISCPILOT01", "CM", "01-701-1130", 46.0, "4", "POTASSIUM", "UNCODED", "PROPHYLAXIS OR NON-THERAPEUTIC USE", "UNCODED", 1.0, "TABLET", "QD", "ORAL", 11.0, "WEEK 20", 140.0, "TREATMENT", "2014-07-02", "2002", "", 138.0, null, null]
["CDISCPILOT01", "CM", "01-701-1130", 47.0, "2", "EUCERIN CREME", "UNCODED", "", "UNCODED", 1.0, "TABLET", "TID", "TOPICAL", 11.0, "WEEK 20", 140.0, "TREATMENT", "2014-07-02", "2013-09", "", 138.0, null, null]
["CDISCPILOT01", "CM", "01-701-1130", 48.0, "1", "CALCIUM", "CALCIUM", "PROPHYLAXIS OR NON-THERAPEUTIC USE", "ALIMENTARY TRACT AND METABOLISM", 1.0, "TABLET", "QD", "ORAL", 12.0, "WEEK 24", 168.0, "TREATMENT", "2014-08-02", "2002", "", 169.0, null, null]
["CDISCPILOT01", "CM", "01-701-1130", 49.0, "3", "MULTIVITAMINS", "UNCODED", "PROPHYLAXIS OR NON-THERAPEUTIC USE", "UNCODED", 4.0, "mg", "QD", "ORAL", 12.0, "WEEK 24", 168.0, "TREATMENT", "2014-08-02", "2002", "", 169.0, null, null]
["CDISCPILOT01", "CM", "01-701-1130", 50.0, "4", "POTASSIUM", "UNCODED", "PROPHYLAXIS OR NON-THERAPEUTIC USE", "UNCODED", 1.0, "TABLET", "QD", "ORAL", 12.0, "WEEK 24", 168.0, "TREATMENT", "2014-08-02", "2002", "", 169.0, null, null]
["CDISCPILOT01", "CM", "01-701-1130", 51.0, "2", "EUCERIN CREME", "UNCODED", "", "UNCODED", 1.0, "TABLET", "TID", "TOPICAL", 12.0, "WEEK 24", 168.0, "TREATMENT", "2014-08-02", "2013-09", "", 169.0, null, null]
["CDISCPILOT01", "CM", "01-701-1130", 52.0, "1", "CALCIUM", "CALCIUM", "PROPHYLAXIS OR NON-THERAPEUTIC USE", "ALIMENTARY TRACT AND METABOLISM", 1.0, "TABLET", "QD", "ORAL", 13.0, "WEEK 26", 182.0, "TREATMENT", "2014-08-16", "2002", "", 183.0, null, null]
["CDISCPILOT01", "CM", "01-701-1130", 53.0, "3", "MULTIVITAMINS", "UNCODED", "PROPHYLAXIS OR NON-THERAPEUTIC USE", "UNCODED", 4.0, "mg", "QD", "ORAL", 13.0, "WEEK 26", 182.0, "TREATMENT", "2014-08-16", "2002", "", 183.0, null, null]
["CDISCPILOT01", "CM", "01-701-1130", 54.0, "4", "POTASSIUM", "UNCODED", "PROPHYLAXIS OR NON-THERAPEUTIC USE", "UNCODED", 1.0, "TABLET", "QD", "ORAL", 13.0, "WEEK 26", 182.0, "TREATMENT", "2014-08-16", "2002", "", 183.0, null, null]
["CDISCPILOT01", "CM", "01-701-1130", 55.0, "2", "EUCERIN CREME", "UNCODED", "", "UNCODED", 1.0, "TABLET", "TID", "TOPICAL", 13.0, "WEEK 26", 182.0, "TREATMENT", "2014-08-16", "2013-09", "", 183.0, null, null]
["CDISCPILOT01", "CM", "01-701-1133", 1.0, "1", "MULTIVITAMIN", "UNCODED", "PROPHYLAXIS OR NON-THERAPEUTIC USE", "UNCODED", 1.0, "TABLET", "QD", "ORAL", 1.0, "SCREENING 1", -7.0, "SCREENING", "2012-10-23", "2006", "", -5.0, null, null]
["CDISCPILOT01", "CM", "01-701-1133", 2.0, "1", "MULTIVITAMIN", "UNCODED", "PROPHYLAXIS OR NON-THERAPEUTIC USE", "UNCODED", 1.0, "TABLET", "QD", "ORAL", 2.0, "SCREENING 2", -1.0, "SCREENING", "2012-10-26", "2006", "", -2.0, null, null]
["CDISCPILOT01", "CM", "01-701-1133", 3.0, "1", "MULTIVITAMIN", "UNCODED", "PROPHYLAXIS OR NON-THERAPEUTIC USE", "UNCODED", 1.0, "TABLET", "QD", "ORAL", 3.0, "BASELINE", 1.0, "TREATMENT", "2012-10-28", "2006", "", 1.0, null, null]
["CDISCPILOT01", "CM", "01-701-1133", 4.0, "1", "MULTIVITAMIN", "UNCODED", "PROPHYLAXIS OR NON-THERAPEUTIC USE", "UNCODED", 1.0, "TABLET", "QD", "ORAL", 4.0, "WEEK 2", 14.0, "TREATMENT", "2012-11-12", "2006", "", 16.0, null, null]
["CDISCPILOT01", "CM", "01-701-1133", 5.0, "1", "MULTIVITAMIN", "UNCODED", "PROPHYLAXIS OR NON-THERAPEUTIC USE", "UNCODED", 1.0, "TABLET", "QD", "ORAL", 5.0, "WEEK 4", 28.0, "TREATMENT", "2012-11-26", "2006", "", 30.0, null, null]
["CDISCPILOT01", "CM", "01-701-1133", 6.0, "1", "MULTIVITAMIN", "UNCODED", "PROPHYLAXIS OR NON-THERAPEUTIC USE", "UNCODED", 1.0, "TABLET", "QD", "ORAL", 6.0, "AMBUL ECG REMOVAL", 30.0, "TREATMENT", "2012-11-28", "2006", "", 32.0, null, null]
["CDISCPILOT01", "CM", "01-701-1133", 7.0, "1", "MULTIVITAMIN", "UNCODED", "PROPHYLAXIS OR NON-THERAPEUTIC USE", "UNCODED", 1.0, "TABLET", "QD", "ORAL", 7.0, "WEEK 6", 42.0, "TREATMENT", "2012-12-11", "2006", "", 45.0, null, null]
["CDISCPILOT01", "CM", "01-701-1133", 8.0, "1", "MULTIVITAMIN", "UNCODED", "PROPHYLAXIS OR NON-THERAPEUTIC USE", "UNCODED", 1.0, "TABLET", "QD", "ORAL", 8.0, "WEEK 8", 56.0, "TREATMENT", "2012-12-24", "2006", "", 58.0, null, null]
["CDISCPILOT01", "CM", "01-701-1133", 9.0, "1", "MULTIVITAMIN", "UNCODED", "PROPHYLAXIS OR NON-THERAPEUTIC USE", "UNCODED", 1.0, "TABLET", "QD", "ORAL", 9.0, "WEEK 12", 84.0, "TREATMENT", "2013-01-22", "2006", "", 87.0, null, null]
["CDISCPILOT01", "CM", "01-701-1133", 10.0, "1", "MULTIVITAMIN", "UNCODED", "PROPHYLAXIS OR NON-THERAPEUTIC USE", "UNCODED", 1.0, "TABLET", "QD", "ORAL", 10.0, "WEEK 16", 112.0, "TREATMENT", "2013-02-18", "2006", "", 114.0, null, null]
["CDISCPILOT01", "CM", "01-701-1133", 11.0, "2", "HYDROCORTISONE", "HYDROCORTISONE", "", "SYSTEMIC HORMONAL PREPARATIONS, EXCL.", 1.0, "TABLET", "PRN", "TOPICAL", 10.0, "WEEK 16", 112.0, "TREATMENT", "2013-02-18", "2013-01-23", "", 114.0, 88.0, null]
["CDISCPILOT01", "CM", "01-701-1133", 12.0, "1", "MULTIVITAMIN", "UNCODED", "PROPHYLAXIS OR NON-THERAPEUTIC USE", "UNCODED", 1.0, "TABLET", "QD", "ORAL", 11.0, "WEEK 20", 140.0, "TREATMENT", "2013-03-18", "2006", "", 142.0, null, null]
["CDISCPILOT01", "CM", "01-701-1133", 13.0, "2", "HYDROCORTISONE", "HYDROCORTISONE", "", "SYSTEMIC HORMONAL PREPARATIONS, EXCL.", 1.0, "TABLET", "PRN", "TOPICAL", 11.0, "WEEK 20", 140.0, "TREATMENT", "2013-03-18", "2013-01-23", "", 142.0, 88.0, null]
["CDISCPILOT01", "CM", "01-701-1133", 14.0, "1", "MULTIVITAMIN", "UNCODED", "PROPHYLAXIS OR NON-THERAPEUTIC USE", "UNCODED", 1.0, "TABLET", "QD", "ORAL", 12.0, "WEEK 24", 168.0, "TREATMENT", "2013-04-18", "2006", "", 173.0, null, null]
["CDISCPILOT01", "CM", "01-701-1133", 15.0, "2", "HYDROCORTISONE", "HYDROCORTISONE", "", "SYSTEMIC HORMONAL PREPARATIONS, EXCL.", 1.0, "TABLET", "PRN", "TOPICAL", 12.0, "WEEK 24", 168.0, "TREATMENT", "2013-04-18", "2013-01-23", "", 173.0, 88.0, null]
["CDISCPILOT01", "CM", "01-701-1133", 16.0, "1", "MULTIVITAMIN", "UNCODED", "PROPHYLAXIS OR NON-THERAPEUTIC USE", "UNCODED", 1.0, "TABLET", "QD", "ORAL", 13.0, "WEEK 26", 182.0, "TREATMENT", "2013-04-29", "2006", "", 184.0, null, null]
["CDISCPILOT01", "CM", "01-701-1133", 17.0, "2", "HYDROCORTISONE", "HYDROCORTISONE", "", "SYSTEMIC HORMONAL PREPARATIONS, EXCL.", 1.0, "TABLET", "PRN", "TOPICAL", 13.0, "WEEK 26", 182.0, "TREATMENT", "2013-04-29", "2013-01-23", "", 184.0, 88.0, null]
["CDISCPILOT01", "CM", "01-701-1146", 1.0, "4", "MOTRIN", "UNCODED", "", "UNCODED", 1.0, "TABLET", "PRN", "ORAL", 1.0, "SCREENING 1", -7.0, "SCREENING", "2013-05-07", "1966", "", -13.0, null, null]
["CDISCPILOT01", "CM", "01-701-1146", 2.0, "6", "PREMARIN", "ESTROGENS CONJUGATED", "PROPHYLAXIS OR NON-THERAPEUTIC USE", "GENITO URINARY SYSTEM AND SEX HORMONES", 0.625, "mg", "QD", "ORAL", 1.0, "SCREENING 1", -7.0, "SCREENING", "2013-05-07", "1987", "", -13.0, null, null]
["CDISCPILOT01", "CM", "01-701-1146", 3.0, "7", "PROVERA", "UNCODED", "PROPHYLAXIS OR NON-THERAPEUTIC USE", "UNCODED", 2.5, "mg", "QD", "ORAL", 1.0, "SCREENING 1", -7.0, "SCREENING", "2013-05-07", "1987", "", -13.0, null, null]
["CDISCPILOT01", "CM", "01-701-1146", 4.0, "5", "MULTIVITAMIN", "UNCODED", "PROPHYLAXIS OR NON-THERAPEUTIC USE", "UNCODED", 1.0, "TABLET", "QD", "ORAL", 1.0, "SCREENING 1", -7.0, "SCREENING", "2013-05-07", "2006", "", -13.0, null, null]
["CDISCPILOT01", "CM", "01-701-1146", 5.0, "1", "BECONASE", "UNCODED", "", "UNCODED", 2.0, "TABLET", "PRN", "NASAL", 1.0, "SCREENING 1", -7.0, "SCREENING", "2013-05-07", "2008", "", -13.0, null, null]
["CDISCPILOT01", "CM", "01-701-1146", 6.0, "2", "DOCUSATE", "UNCODED", "", "UNCODED", 2.0, "TABLET", "QD", "ORAL", 1.0, "SCREENING 1", -7.0, "SCREENING", "2013-05-07", "2008", "", -13.0, null, null]
["CDISCPILOT01", "CM", "01-701-1146", 7.0, "3", "MINERALS NOS", "UNCODED", "", "UNCODED", 15.0, "mg", "PRN", "ORAL", 1.0, "SCREENING 1", -7.0, "SCREENING", "2013-05-07", "2012", "", -13.0, null, null]
["CDISCPILOT01", "CM", "01-701-1146", 8.0, "4", "MOTRIN", "UNCODED", "", "UNCODED", 1.0, "TABLET", "PRN", "ORAL", 2.0, "SCREENING 2", -1.0, "SCREENING", "2013-05-18", "1966", "", -2.0, null, null]
["CDISCPILOT01", "CM", "01-701-1146", 9.0, "6", "PREMARIN", "ESTROGENS CONJUGATED", "PROPHYLAXIS OR NON-THERAPEUTIC USE", "GENITO URINARY SYSTEM AND SEX HORMONES", 0.625, "mg", "QD", "ORAL", 2.0, "SCREENING 2", -1.0, "SCREENING", "2013-05-18", "1987", "", -2.0, null, null]
["CDISCPILOT01", "CM", "01-701-1146", 10.0, "7", "PROVERA", "UNCODED", "PROPHYLAXIS OR NON-THERAPEUTIC USE", "UNCODED", 2.5, "mg", "QD", "ORAL", 2.0, "SCREENING 2", -1.0, "SCREENING", "2013-05-18", "1987", "", -2.0, null, null]
["CDISCPILOT01", "CM", "01-701-1146", 11.0, "5", "MULTIVITAMIN", "UNCODED", "PROPHYLAXIS OR NON-THERAPEUTIC USE", "UNCODED", 1.0, "TABLET", "QD", "ORAL", 2.0, "SCREENING 2", -1.0, "SCREENING", "2013-05-18", "2006", "", -2.0, null, null]
["CDISCPILOT01", "CM", "01-701-1146", 12.0, "1", "BECONASE", "UNCODED", "", "UNCODED", 2.0, "TABLET", "PRN", "NASAL", 2.0, "SCREENING 2", -1.0, "SCREENING", "2013-05-18", "2008", "", -2.0, null, null]
["CDISCPILOT01", "CM", "01-701-1146", 13.0, "2", "DOCUSATE", "UNCODED", "", "UNCODED", 2.0, "TABLET", "QD", "ORAL", 2.0, "SCREENING 2", -1.0, "SCREENING", "2013-05-18", "2008", "", -2.0, null, null]
["CDISCPILOT01", "CM", "01-701-1146", 14.0, "3", "MINERALS NOS", "UNCODED", "", "UNCODED", 15.0, "mg", "PRN", "ORAL", 2.0, "SCREENING 2", -1.0, "SCREENING", "2013-05-18", "2012", "", -2.0, null, null]
["CDISCPILOT01", "CM", "01-701-1146", 15.0, "4", "MOTRIN", "UNCODED", "", "UNCODED", 1.0, "TABLET", "PRN", "ORAL", 3.0, "BASELINE", 1.0, "TREATMENT", "2013-05-20", "1966", "", 1.0, null, null]
["CDISCPILOT01", "CM", "01-701-1146", 16.0, "6", "PREMARIN", "ESTROGENS CONJUGATED", "PROPHYLAXIS OR NON-THERAPEUTIC USE", "GENITO URINARY SYSTEM AND SEX HORMONES", 0.625, "mg", "QD", "ORAL", 3.0, "BASELINE", 1.0, "TREATMENT", "2013-05-20", "1987", "", 1.0, null, null]
["CDISCPILOT01", "CM", "01-701-1146", 17.0, "7", "PROVERA", "UNCODED", "PROPHYLAXIS OR NON-THERAPEUTIC USE", "UNCODED", 2.5, "mg", "QD", "ORAL", 3.0, "BASELINE", 1.0, "TREATMENT", "2013-05-20", "1987", "", 1.0, null, null]
["CDISCPILOT01", "CM", "01-701-1146", 18.0, "5", "MULTIVITAMIN", "UNCODED", "PROPHYLAXIS OR NON-THERAPEUTIC USE", "UNCODED", 1.0, "TABLET", "QD", "ORAL", 3.0, "BASELINE", 1.0, "TREATMENT", "2013-05-20", "2006", "", 1.0, null, null]
["CDISCPILOT01", "CM", "01-701-1146", 19.0, "1", "BECONASE", "UNCODED", "", "UNCODED", 2.0, "TABLET", "PRN", "NASAL", 3.0, "BASELINE", 1.0, "TREATMENT", "2013-05-20", "2008", "", 1.0, null, null]
["CDISCPILOT01", "CM", "01-701-1146", 20.0, "2", "DOCUSATE", "UNCODED", "", "UNCODED", 2.0, "TABLET", "QD", "ORAL", 3.0, "BASELINE", 1.0, "TREATMENT", "2013-05-20", "2008", "", 1.0, null, null]
["CDISCPILOT01", "CM", "01-701-1146", 21.0, "3", "MINERALS NOS", "UNCODED", "", "UNCODED", 15.0, "mg", "PRN", "ORAL", 3.0, "BASELINE", 1.0, "TREATMENT", "2013-05-20", "2012", "", 1.0, null, null]
["CDISCPILOT01", "CM", "01-701-1146", 22.0, "4", "MOTRIN", "UNCODED", "", "UNCODED", 1.0, "TABLET", "PRN", "ORAL", 4.0, "WEEK 2", 14.0, "TREATMENT", "2013-06-03", "1966", "", 15.0, null, null]
["CDISCPILOT01", "CM", "01-701-1146", 23.0, "6", "PREMARIN", "ESTROGENS CONJUGATED", "PROPHYLAXIS OR NON-THERAPEUTIC USE", "GENITO URINARY SYSTEM AND SEX HORMONES", 0.625, "mg", "QD", "ORAL", 4.0, "WEEK 2", 14.0, "TREATMENT", "2013-06-03", "1987", "", 15.0, null, null]
["CDISCPILOT01", "CM", "01-701-1146", 24.0, "7", "PROVERA", "UNCODED", "PROPHYLAXIS OR NON-THERAPEUTIC USE", "UNCODED", 2.5, "mg", "QD", "ORAL", 4.0, "WEEK 2", 14.0, "TREATMENT", "2013-06-03", "1987", "", 15.0, null, null]
["CDISCPILOT01", "CM", "01-701-1146", 25.0, "5", "MULTIVITAMIN", "UNCODED", "PROPHYLAXIS OR NON-THERAPEUTIC USE", "UNCODED", 1.0, "TABLET", "QD", "ORAL", 4.0, "WEEK 2", 14.0, "TREATMENT", "2013-06-03", "2006", "", 15.0, null, null]
["CDISCPILOT01", "CM", "01-701-1146", 26.0, "1", "BECONASE", "UNCODED", "", "UNCODED", 2.0, "TABLET", "PRN", "NASAL", 4.0, "WEEK 2", 14.0, "TREATMENT", "2013-06-03", "2008", "", 15.0, null, null]
["CDISCPILOT01", "CM", "01-701-1146", 27.0, "2", "DOCUSATE", "UNCODED", "", "UNCODED", 2.0, "TABLET", "QD", "ORAL", 4.0, "WEEK 2", 14.0, "TREATMENT", "2013-06-03", "2008", "", 15.0, null, null]
["CDISCPILOT01", "CM", "01-701-1146", 28.0, "3", "MINERALS NOS", "UNCODED", "", "UNCODED", 15.0, "mg", "PRN", "ORAL", 4.0, "WEEK 2", 14.0, "TREATMENT", "2013-06-03", "2012", "", 15.0, null, null]
["CDISCPILOT01", "CM", "01-701-1146", 29.0, "8", "ADVIL", "UNCODED", "", "UNCODED", 2.0, "TABLET", "TID", "ORAL", 4.0, "WEEK 2", 14.0, "TREATMENT", "2013-06-03", "2013-05-21", "2013-05-22", 15.0, 2.0, 3.0]
["CDISCPILOT01", "CM", "01-701-1146", 30.0, "4", "MOTRIN", "UNCODED", "", "UNCODED", 1.0, "TABLET", "PRN", "ORAL", 5.0, "WEEK 4", 28.0, "TREATMENT", "2013-06-16", "1966", "", 28.0, null, null]
["CDISCPILOT01", "CM", "01-701-1146", 31.0, "6", "PREMARIN", "ESTROGENS CONJUGATED", "PROPHYLAXIS OR NON-THERAPEUTIC USE", "GENITO URINARY SYSTEM AND SEX HORMONES", 0.625, "mg", "QD", "ORAL", 5.0, "WEEK 4", 28.0, "TREATMENT", "2013-06-16", "1987", "", 28.0, null, null]
["CDISCPILOT01", "CM", "01-701-1146", 32.0, "7", "PROVERA", "UNCODED", "PROPHYLAXIS OR NON-THERAPEUTIC USE", "UNCODED", 2.5, "mg", "QD", "ORAL", 5.0, "WEEK 4", 28.0, "TREATMENT", "2013-06-16", "1987", "", 28.0, null, null]
["CDISCPILOT01", "CM", "01-701-1146", 33.0, "5", "MULTIVITAMIN", "UNCODED", "PROPHYLAXIS OR NON-THERAPEUTIC USE", "UNCODED", 1.0, "TABLET", "QD", "ORAL", 5.0, "WEEK 4", 28.0, "TREATMENT", "2013-06-16", "2006", "", 28.0, null, null]
["CDISCPILOT01", "CM", "01-701-1146", 34.0, "1", "BECONASE", "UNCODED", "", "UNCODED", 2.0, "TABLET", "PRN", "NASAL", 5.0, "WEEK 4", 28.0, "TREATMENT", "2013-06-16", "2008", "", 28.0, null, null]
["CDISCPILOT01", "CM", "01-701-1146", 35.0, "2", "DOCUSATE", "UNCODED", "", "UNCODED", 2.0, "TABLET", "QD", "ORAL", 5.0, "WEEK 4", 28.0, "TREATMENT", "2013-06-16", "2008", "", 28.0, null, null]
["CDISCPILOT01", "CM", "01-701-1146", 36.0, "3", "MINERALS NOS", "UNCODED", "", "UNCODED", 15.0, "mg", "PRN", "ORAL", 5.0, "WEEK 4", 28.0, "TREATMENT", "2013-06-16", "2012", "", 28.0, null, null]
["CDISCPILOT01", "CM", "01-701-1146", 37.0, "9", "HYDROCORTISONE, TOPICAL", "UNCODED", "", "UNCODED", 1.0, "TABLET", "PRN", "TOPICAL", 5.0, "WEEK 4", 28.0, "TREATMENT", "2013-06-16", "2013-06-12", "", 28.0, 24.0, null]
["CDISCPILOT01", "CM", "01-701-1146", 38.0, "4", "MOTRIN", "UNCODED", "", "UNCODED", 1.0, "TABLET", "PRN", "ORAL", 6.0, "AMBUL ECG REMOVAL", 30.0, "TREATMENT", "2013-06-18", "1966", "", 30.0, null, null]
["CDISCPILOT01", "CM", "01-701-1146", 39.0, "6", "PREMARIN", "ESTROGENS CONJUGATED", "PROPHYLAXIS OR NON-THERAPEUTIC USE", "GENITO URINARY SYSTEM AND SEX HORMONES", 0.625, "mg", "QD", "ORAL", 6.0, "AMBUL ECG REMOVAL", 30.0, "TREATMENT", "2013-06-18", "1987", "", 30.0, null, null]
["CDISCPILOT01", "CM", "01-701-1146", 40.0, "7", "PROVERA", "UNCODED", "PROPHYLAXIS OR NON-THERAPEUTIC USE", "UNCODED", 2.5, "mg", "QD", "ORAL", 6.0, "AMBUL ECG REMOVAL", 30.0, "TREATMENT", "2013-06-18", "1987", "", 30.0, null, null]
["CDISCPILOT01", "CM", "01-701-1146", 41.0, "5", "MULTIVITAMIN", "UNCODED", "PROPHYLAXIS OR NON-THERAPEUTIC USE", "UNCODED", 1.0, "TABLET", "QD", "ORAL", 6.0, "AMBUL ECG REMOVAL", 30.0, "TREATMENT", "2013-06-18", "2006", "", 30.0, null, null]
["CDISCPILOT01", "CM", "01-701-1146", 42.0, "1", "BECONASE", "UNCODED", "", "UNCODED", 2.0, "TABLET", "PRN", "NASAL", 6.0, "AMBUL ECG REMOVAL", 30.0, "TREATMENT", "2013-06-18", "2008", "", 30.0, null, null]
["CDISCPILOT01", "CM", "01-701-1146", 43.0, "2", "DOCUSATE", "UNCODED", "", "UNCODED", 2.0, "TABLET", "QD", "ORAL", 6.0, "AMBUL ECG REMOVAL", 30.0, "TREATMENT", "2013-06-18", "2008", "", 30.0, null, null]
["CDISCPILOT01", "CM", "01-701-1146", 44.0, "3", "MINERALS NOS", "UNCODED", "", "UNCODED", 15.0, "mg", "PRN", "ORAL", 6.0, "AMBUL ECG REMOVAL", 30.0, "TREATMENT", "2013-06-18", "2012", "", 30.0, null, null]
["CDISCPILOT01", "CM", "01-701-1146", 45.0, "9", "HYDROCORTISONE, TOPICAL", "UNCODED", "", "UNCODED", 1.0, "TABLET", "PRN", "TOPICAL", 6.0, "AMBUL ECG REMOVAL", 30.0, "TREATMENT", "2013-06-18", "2013-06-12", "", 30.0, 24.0, null]
["CDISCPILOT01", "CM", "01-701-1146", 46.0, "4", "MOTRIN", "UNCODED", "", "UNCODED", 1.0, "TABLET", "PRN", "ORAL", 7.0, "WEEK 6", 42.0, "TREATMENT", "2013-06-30", "1966", "", 42.0, null, null]
["CDISCPILOT01", "CM", "01-701-1146", 47.0, "6", "PREMARIN", "ESTROGENS CONJUGATED", "PROPHYLAXIS OR NON-THERAPEUTIC USE", "GENITO URINARY SYSTEM AND SEX HORMONES", 0.625, "mg", "QD", "ORAL", 7.0, "WEEK 6", 42.0, "TREATMENT", "2013-06-30", "1987", "", 42.0, null, null]
["CDISCPILOT01", "CM", "01-701-1146", 48.0, "7", "PROVERA", "UNCODED", "PROPHYLAXIS OR NON-THERAPEUTIC USE", "UNCODED", 2.5, "mg", "QD", "ORAL", 7.0, "WEEK 6", 42.0, "TREATMENT", "2013-06-30", "1987", "", 42.0, null, null]
["CDISCPILOT01", "CM", "01-701-1146", 49.0, "5", "MULTIVITAMIN", "UNCODED", "PROPHYLAXIS OR NON-THERAPEUTIC USE", "UNCODED", 1.0, "TABLET", "QD", "ORAL", 7.0, "WEEK 6", 42.0, "TREATMENT", "2013-06-30", "2006", "", 42.0, null, null]
["CDISCPILOT01", "CM", "01-701-1146", 50.0, "1", "BECONASE", "UNCODED", "", "UNCODED", 2.0, "TABLET", "PRN", "NASAL", 7.0, "WEEK 6", 42.0, "TREATMENT", "2013-06-30", "2008", "", 42.0, null, null]
["CDISCPILOT01", "CM", "01-701-1146", 51.0, "2", "DOCUSATE", "UNCODED", "", "UNCODED", 2.0, "TABLET", "QD", "ORAL", 7.0, "WEEK 6", 42.0, "TREATMENT", "2013-06-30", "2008", "", 42.0, null, null]
["CDISCPILOT01", "CM", "01-701-1146", 52.0, "3", "MINERALS NOS", "UNCODED", "", "UNCODED", 15.0, "mg", "PRN", "ORAL", 7.0, "WEEK 6", 42.0, "TREATMENT", "2013-06-30", "2012", "", 42.0, null, null]
["CDISCPILOT01", "CM", "01-701-1146", 53.0, "9", "HYDROCORTISONE, TOPICAL", "UNCODED", "", "UNCODED", 1.0, "TABLET", "PRN", "TOPICAL", 7.0, "WEEK 6", 42.0, "TREATMENT", "2013-06-30", "2013-06-12", "", 42.0, 24.0, null]
["CDISCPILOT01", "CM", "01-701-1146", 54.0, "4", "MOTRIN", "UNCODED", "", "UNCODED", 1.0, "TABLET", "PRN", "ORAL", 101.0, "AE FOLLOW-UP", null, "SCREENING", "2013-07-15", "1966", "", 57.0, null, null]
["CDISCPILOT01", "CM", "01-701-1146", 55.0, "6", "PREMARIN", "ESTROGENS CONJUGATED", "PROPHYLAXIS OR NON-THERAPEUTIC USE", "GENITO URINARY SYSTEM AND SEX HORMONES", 0.625, "mg", "QD", "ORAL", 101.0, "AE FOLLOW-UP", null, "SCREENING", "2013-07-15", "1987", "", 57.0, null, null]
["CDISCPILOT01", "CM", "01-701-1146", 56.0, "7", "PROVERA", "UNCODED", "PROPHYLAXIS OR NON-THERAPEUTIC USE", "UNCODED", 2.5, "mg", "QD", "ORAL", 101.0, "AE FOLLOW-UP", null, "SCREENING", "2013-07-15", "1987", "", 57.0, null, null]
["CDISCPILOT01", "CM", "01-701-1146", 57.0, "5", "MULTIVITAMIN", "UNCODED", "PROPHYLAXIS OR NON-THERAPEUTIC USE", "UNCODED", 1.0, "TABLET", "QD", "ORAL", 101.0, "AE FOLLOW-UP", null, "SCREENING", "2013-07-15", "2006", "", 57.0, null, null]
["CDISCPILOT01", "CM", "01-701-1146", 58.0, "1", "BECONASE", "UNCODED", "", "UNCODED", 2.0, "TABLET", "PRN", "NASAL", 101.0, "AE FOLLOW-UP", null, "SCREENING", "2013-07-15", "2008", "", 57.0, null, null]
["CDISCPILOT01", "CM", "01-701-1146", 59.0, "2", "DOCUSATE", "UNCODED", "", "UNCODED", 2.0, "TABLET", "QD", "ORAL", 101.0, "AE FOLLOW-UP", null, "SCREENING", "2013-07-15", "2008", "", 57.0, null, null]
["CDISCPILOT01", "CM", "01-701-1146", 60.0, "3", "MINERALS NOS", "UNCODED", "", "UNCODED", 15.0, "mg", "PRN", "ORAL", 101.0, "AE FOLLOW-UP", null, "SCREENING", "2013-07-15", "2012", "", 57.0, null, null]
["CDISCPILOT01", "CM", "01-701-1146", 61.0, "9", "HYDROCORTISONE, TOPICAL", "UNCODED", "", "UNCODED", 1.0, "TABLET", "PRN", "TOPICAL", 101.0, "AE FOLLOW-UP", null, "SCREENING", "2013-07-15", "2013-06-12", "", 57.0, 24.0, null]
["CDISCPILOT01", "CM", "01-701-1148", 1.0, "2", "TYLENOL", "UNCODED", "", "UNCODED", 1000.0, "mg", "PRN", "ORAL", 1.0, "SCREENING 1", -7.0, "SCREENING", "2013-08-14", "2006", "", -9.0, null, null]
["CDISCPILOT01", "CM", "01-701-1148", 2.0, "1", "TUMS", "UNCODED", "", "UNCODED", 2.0, "TABLET", "PRN", "ORAL", 1.0, "SCREENING 1", -7.0, "SCREENING", "2013-08-14", "2011", "", -9.0, null, null]
["CDISCPILOT01", "CM", "01-701-1148", 3.0, "2", "TYLENOL", "UNCODED", "", "UNCODED", 1000.0, "mg", "PRN", "ORAL", 2.0, "SCREENING 2", -1.0, "SCREENING", "2013-08-21", "2006", "", -2.0, null, null]
["CDISCPILOT01", "CM", "01-701-1148", 4.0, "1", "TUMS", "UNCODED", "", "UNCODED", 2.0, "TABLET", "PRN", "ORAL", 2.0, "SCREENING 2", -1.0, "SCREENING", "2013-08-21", "2011", "", -2.0, null, null]
["CDISCPILOT01", "CM", "01-701-1148", 5.0, "2", "TYLENOL", "UNCODED", "", "UNCODED", 1000.0, "mg", "PRN", "ORAL", 3.0, "BASELINE", 1.0, "TREATMENT", "2013-08-23", "2006", "", 1.0, null, null]
["CDISCPILOT01", "CM", "01-701-1148", 6.0, "1", "TUMS", "UNCODED", "", "UNCODED", 2.0, "TABLET", "PRN", "ORAL", 3.0, "BASELINE", 1.0, "TREATMENT", "2013-08-23", "2011", "", 1.0, null, null]
["CDISCPILOT01", "CM", "01-701-1148", 7.0, "2", "TYLENOL", "UNCODED", "", "UNCODED", 1000.0, "mg", "PRN", "ORAL", 4.0, "WEEK 2", 14.0, "TREATMENT", "2013-09-05", "2006", "", 14.0, null, null]
["CDISCPILOT01", "CM", "01-701-1148", 8.0, "1", "TUMS", "UNCODED", "", "UNCODED", 2.0, "TABLET", "PRN", "ORAL", 4.0, "WEEK 2", 14.0, "TREATMENT", "2013-09-05", "2011", "", 14.0, null, null]
["CDISCPILOT01", "CM", "01-701-1148", 9.0, "2", "TYLENOL", "UNCODED", "", "UNCODED", 1000.0, "mg", "PRN", "ORAL", 5.0, "WEEK 4", 28.0, "TREATMENT", "2013-09-19", "2006", "", 28.0, null, null]
["CDISCPILOT01", "CM", "01-701-1148", 10.0, "1", "TUMS", "UNCODED", "", "UNCODED", 2.0, "TABLET", "PRN", "ORAL", 5.0, "WEEK 4", 28.0, "TREATMENT", "2013-09-19", "2011", "", 28.0, null, null]
["CDISCPILOT01", "CM", "01-701-1148", 11.0, "2", "TYLENOL", "UNCODED", "", "UNCODED", 1000.0, "mg", "PRN", "ORAL", 6.0, "AMBUL ECG REMOVAL", 30.0, "TREATMENT", "2013-09-21", "2006", "", 30.0, null, null]
["CDISCPILOT01", "CM", "01-701-1148", 12.0, "1", "TUMS", "UNCODED", "", "UNCODED", 2.0, "TABLET", "PRN", "ORAL", 6.0, "AMBUL ECG REMOVAL", 30.0, "TREATMENT", "2013-09-21", "2011", "", 30.0, null, null]
["CDISCPILOT01", "CM", "01-701-1148", 13.0, "2", "TYLENOL", "UNCODED", "", "UNCODED", 1000.0, "mg", "PRN", "ORAL", 7.0, "WEEK 6", 42.0, "TREATMENT", "2013-10-03", "2006", "", 42.0, null, null]
["CDISCPILOT01", "CM", "01-701-1148", 14.0, "1", "TUMS", "UNCODED", "", "UNCODED", 2.0, "TABLET", "PRN", "ORAL", 7.0, "WEEK 6", 42.0, "TREATMENT", "2013-10-03", "2011", "", 42.0, null, null]
["CDISCPILOT01", "CM", "01-701-1148", 15.0, "2", "TYLENOL", "UNCODED", "", "UNCODED", 1000.0, "mg", "PRN", "ORAL", 8.0, "WEEK 8", 56.0, "TREATMENT", "2013-10-18", "2006", "", 57.0, null, null]
["CDISCPILOT01", "CM", "01-701-1148", 16.0, "1", "TUMS", "UNCODED", "", "UNCODED", 2.0, "TABLET", "PRN", "ORAL", 8.0, "WEEK 8", 56.0, "TREATMENT", "2013-10-18", "2011", "", 57.0, null, null]
["CDISCPILOT01", "CM", "01-701-1148", 17.0, "2", "TYLENOL", "UNCODED", "", "UNCODED", 1000.0, "mg", "PRN", "ORAL", 9.0, "WEEK 12", 84.0, "TREATMENT", "2013-11-17", "2006", "", 87.0, null, null]
["CDISCPILOT01", "CM", "01-701-1148", 18.0, "1", "TUMS", "UNCODED", "", "UNCODED", 2.0, "TABLET", "PRN", "ORAL", 9.0, "WEEK 12", 84.0, "TREATMENT", "2013-11-17", "2011", "", 87.0, null, null]
["CDISCPILOT01", "CM", "01-701-1148", 19.0, "3", "SULFAMETHOXAZOLE", "UNCODED", "", "UNCODED", 1.0, "TABLET", "BID", "ORAL", 9.0, "WEEK 12", 84.0, "TREATMENT", "2013-11-17", "2013-10-28", "2013-11-16", 87.0, 67.0, 86.0]
["CDISCPILOT01", "CM", "01-701-1148", 20.0, "2", "TYLENOL", "UNCODED", "", "UNCODED", 1000.0, "mg", "PRN", "ORAL", 10.0, "WEEK 16", 112.0, "TREATMENT", "2013-12-13", "2006", "", 113.0, null, null]
["CDISCPILOT01", "CM", "01-701-1148", 21.0, "1", "TUMS", "UNCODED", "", "UNCODED", 2.0, "TABLET", "PRN", "ORAL", 10.0, "WEEK 16", 112.0, "TREATMENT", "2013-12-13", "2011", "", 113.0, null, null]
["CDISCPILOT01", "CM", "01-701-1148", 22.0, "4", "HYDROCORTISONE", "HYDROCORTISONE", "", "SYSTEMIC HORMONAL PREPARATIONS, EXCL.", 1.0, "TABLET", "PRN", "TOPICAL", 10.0, "WEEK 16", 112.0, "TREATMENT", "2013-12-13", "2013-11-18", "", 113.0, 88.0, null]
["CDISCPILOT01", "CM", "01-701-1148", 23.0, "2", "TYLENOL", "UNCODED", "", "UNCODED", 1000.0, "mg", "PRN", "ORAL", 11.0, "WEEK 20", 140.0, "TREATMENT", "2014-01-10", "2006", "", 141.0, null, null]
["CDISCPILOT01", "CM", "01-701-1148", 24.0, "1", "TUMS", "UNCODED", "", "UNCODED", 2.0, "TABLET", "PRN", "ORAL", 11.0, "WEEK 20", 140.0, "TREATMENT", "2014-01-10", "2011", "", 141.0, null, null]
["CDISCPILOT01", "CM", "01-701-1148", 25.0, "4", "HYDROCORTISONE", "HYDROCORTISONE", "", "SYSTEMIC HORMONAL PREPARATIONS, EXCL.", 1.0, "TABLET", "PRN", "TOPICAL", 11.0, "WEEK 20", 140.0, "TREATMENT", "2014-01-10", "2013-11-18", "", 141.0, 88.0, null]
["CDISCPILOT01", "CM", "01-701-1148", 26.0, "5", "HYDROCODONE W/APAP", "UNCODED", "", "UNCODED", 500.0, "mg", "Q4H", "ORAL", 11.0, "WEEK 20", 140.0, "TREATMENT", "2014-01-10", "2013-12-16", "2013-12-17", 141.0, 116.0, 117.0]
["CDISCPILOT01", "CM", "01-701-1148", 27.0, "6", "NAPROXEN", "UNCODED", "", "UNCODED", 375.0, "mg", "BID", "ORAL", 11.0, "WEEK 20", 140.0, "TREATMENT", "2014-01-10", "2013-12-16", "2013-12-17", 141.0, 116.0, 117.0]
["CDISCPILOT01", "CM", "01-701-1148", 28.0, "2", "TYLENOL", "UNCODED", "", "UNCODED", 1000.0, "mg", "PRN", "ORAL", 12.0, "WEEK 24", 168.0, "TREATMENT", "2014-02-08", "2006", "", 170.0, null, null]
["CDISCPILOT01", "CM", "01-701-1148", 29.0, "1", "TUMS", "UNCODED", "", "UNCODED", 2.0, "TABLET", "PRN", "ORAL", 12.0, "WEEK 24", 168.0, "TREATMENT", "2014-02-08", "2011", "", 170.0, null, null]
["CDISCPILOT01", "CM", "01-701-1148", 30.0, "4", "HYDROCORTISONE", "HYDROCORTISONE", "", "SYSTEMIC HORMONAL PREPARATIONS, EXCL.", 1.0, "TABLET", "PRN", "TOPICAL", 12.0, "WEEK 24", 168.0, "TREATMENT", "2014-02-08", "2013-11-18", "", 170.0, 88.0, null]
["CDISCPILOT01", "CM", "01-701-1148", 31.0, "7", "CIMETIDINE", "UNCODED", "", "UNCODED", 400.0, "mg", "BID", "ORAL", 12.0, "WEEK 24", 168.0, "TREATMENT", "2014-02-08", "2014-01-25", "2014-02-08", 170.0, 156.0, 170.0]
["CDISCPILOT01", "CM", "01-701-1148", 32.0, "2", "TYLENOL", "UNCODED", "", "UNCODED", 1000.0, "mg", "PRN", "ORAL", 13.0, "WEEK 26", 182.0, "TREATMENT", "2014-02-20", "2006", "", 182.0, null, null]
["CDISCPILOT01", "CM", "01-701-1148", 33.0, "1", "TUMS", "UNCODED", "", "UNCODED", 2.0, "TABLET", "PRN", "ORAL", 13.0, "WEEK 26", 182.0, "TREATMENT", "2014-02-20", "2011", "", 182.0, null, null]
["CDISCPILOT01", "CM", "01-701-1148", 34.0, "4", "HYDROCORTISONE", "HYDROCORTISONE", "", "SYSTEMIC HORMONAL PREPARATIONS, EXCL.", 1.0, "TABLET", "PRN", "TOPICAL", 13.0, "WEEK 26", 182.0, "TREATMENT", "2014-02-20", "2013-11-18", "", 182.0, 88.0, null]
["CDISCPILOT01", "CM", "01-701-1148", 35.0, "7", "CIMETIDINE", "UNCODED", "", "UNCODED", 400.0, "mg", "BID", "ORAL", 13.0, "WEEK 26", 182.0, "TREATMENT", "2014-02-20", "2014-01-25", "2014-02-08", 182.0, 156.0, 170.0]
["CDISCPILOT01", "CM", "01-701-1148", 36.0, "8", "FLUOROPLEX", "UNCODED", "", "UNCODED", 1.0, "TABLET", "BID", "TOPICAL", 13.0, "WEEK 26", 182.0, "TREATMENT", "2014-02-20", "2014-02-12", "", 182.0, 174.0, null]
["CDISCPILOT01", "CM", "01-701-1153", 1.0, "1", "TYLENOL", "UNCODED", "", "UNCODED", 650.0, "mg", "PRN", "ORAL", 1.0, "SCREENING 1", -7.0, "SCREENING", "2013-09-06", "2011", "", -17.0, null, null]
["CDISCPILOT01", "CM", "01-701-1153", 2.0, "1", "TYLENOL", "UNCODED", "", "UNCODED", 650.0, "mg", "PRN", "ORAL", 2.0, "SCREENING 2", -1.0, "SCREENING", "2013-09-18", "2011", "", -5.0, null, null]
["CDISCPILOT01", "CM", "01-701-1153", 3.0, "1", "TYLENOL", "UNCODED", "", "UNCODED", 650.0, "mg", "PRN", "ORAL", 3.0, "BASELINE", 1.0, "TREATMENT", "2013-09-23", "2011", "", 1.0, null, null]
["CDISCPILOT01", "CM", "01-701-1153", 4.0, "1", "TYLENOL", "UNCODED", "", "UNCODED", 650.0, "mg", "PRN", "ORAL", 4.0, "WEEK 2", 14.0, "TREATMENT", "2013-10-08", "2011", "", 16.0, null, null]
["CDISCPILOT01", "CM", "01-701-1153", 5.0, "1", "TYLENOL", "UNCODED", "", "UNCODED", 650.0, "mg", "PRN", "ORAL", 5.0, "WEEK 4", 28.0, "TREATMENT", "2013-10-19", "2011", "", 27.0, null, null]
["CDISCPILOT01", "CM", "01-701-1153", 6.0, "1", "TYLENOL", "UNCODED", "", "UNCODED", 650.0, "mg", "PRN", "ORAL", 6.0, "AMBUL ECG REMOVAL", 30.0, "TREATMENT", "2013-10-28", "2011", "", 36.0, null, null]
["CDISCPILOT01", "CM", "01-701-1153", 7.0, "1", "TYLENOL", "UNCODED", "", "UNCODED", 650.0, "mg", "PRN", "ORAL", 7.0, "WEEK 6", 42.0, "TREATMENT", "2013-11-04", "2011", "", 43.0, null, null]
["CDISCPILOT01", "CM", "01-701-1153", 8.0, "1", "TYLENOL", "UNCODED", "", "UNCODED", 650.0, "mg", "PRN", "ORAL", 8.0, "WEEK 8", 56.0, "TREATMENT", "2013-11-18", "2011", "", 57.0, null, null]
["CDISCPILOT01", "CM", "01-701-1153", 9.0, "1", "TYLENOL", "UNCODED", "", "UNCODED", 650.0, "mg", "PRN", "ORAL", 9.0, "WEEK 12", 84.0, "TREATMENT", "2013-12-16", "2011", "", 85.0, null, null]
["CDISCPILOT01", "CM", "01-701-1153", 10.0, "1", "TYLENOL", "UNCODED", "", "UNCODED", 650.0, "mg", "PRN", "ORAL", 10.0, "WEEK 16", 112.0, "TREATMENT", "2014-01-08", "2011", "", 108.0, null, null]
["CDISCPILOT01", "CM", "01-701-1153", 11.0, "1", "TYLENOL", "UNCODED", "", "UNCODED", 650.0, "mg", "PRN", "ORAL", 11.0, "WEEK 20", 140.0, "TREATMENT", "2014-02-11", "2011", "", 142.0, null, null]
["CDISCPILOT01", "CM", "01-701-1153", 12.0, "1", "TYLENOL", "UNCODED", "", "UNCODED", 650.0, "mg", "PRN", "ORAL", 12.0, "WEEK 24", 168.0, "TREATMENT", "2014-03-11", "2011", "", 170.0, null, null]
["CDISCPILOT01", "CM", "01-701-1153", 13.0, "1", "TYLENOL", "UNCODED", "", "UNCODED", 650.0, "mg", "PRN", "ORAL", 13.0, "WEEK 26", 182.0, "TREATMENT", "2014-04-01", "2011", "", 191.0, null, null]
["CDISCPILOT01", "CM", "01-701-1180", 1.0, "1", "CENTRUM", "UNCODED", "PROPHYLAXIS OR NON-THERAPEUTIC USE", "UNCODED", 1.0, "TABLET", "QD", "ORAL", 1.0, "SCREENING 1", -7.0, "SCREENING", "2013-01-28", "2006", "", -15.0, null, null]
["CDISCPILOT01", "CM", "01-701-1180", 2.0, "1", "CENTRUM", "UNCODED", "PROPHYLAXIS OR NON-THERAPEUTIC USE", "UNCODED", 1.0, "TABLET", "QD", "ORAL", 2.0, "SCREENING 2", -1.0, "SCREENING", "2013-02-10", "2006", "", -2.0, null, null]
["CDISCPILOT01", "CM", "01-701-1180", 3.0, "1", "CENTRUM", "UNCODED", "PROPHYLAXIS OR NON-THERAPEUTIC USE", "UNCODED", 1.0, "TABLET", "QD", "ORAL", 3.0, "BASELINE", 1.0, "TREATMENT", "2013-02-12", "2006", "", 1.0, null, null]
["CDISCPILOT01", "CM", "01-701-1180", 4.0, "1", "CENTRUM", "UNCODED", "PROPHYLAXIS OR NON-THERAPEUTIC USE", "UNCODED", 1.0, "TABLET", "QD", "ORAL", 4.0, "WEEK 2", 14.0, "TREATMENT", "2013-02-25", "2006", "", 14.0, null, null]
["CDISCPILOT01", "CM", "01-701-1180", 5.0, "1", "CENTRUM", "UNCODED", "PROPHYLAXIS OR NON-THERAPEUTIC USE", "UNCODED", 1.0, "TABLET", "QD", "ORAL", 5.0, "WEEK 4", 28.0, "TREATMENT", "2013-03-11", "2006", "", 28.0, null, null]
["CDISCPILOT01", "CM", "01-701-1180", 6.0, "2", "ASPIRIN", "ACETYLSALICYLIC ACID", "", "NERVOUS SYSTEM", 2.0, "TABLET", "QD", "ORAL", 5.0, "WEEK 4", 28.0, "TREATMENT", "2013-03-11", "2013-03-03", "2013-03-09", 28.0, 20.0, 26.0]
["CDISCPILOT01", "CM", "01-701-1180", 7.0, "3", "SUDAFED", "UNCODED", "", "UNCODED", 2.0, "TABLET", "QD", "ORAL", 5.0, "WEEK 4", 28.0, "TREATMENT", "2013-03-11", "2013-03-06", "2013-03-07", 28.0, 23.0, 24.0]
["CDISCPILOT01", "CM", "01-701-1180", 8.0, "1", "CENTRUM", "UNCODED", "PROPHYLAXIS OR NON-THERAPEUTIC USE", "UNCODED", 1.0, "TABLET", "QD", "ORAL", 6.0, "AMBUL ECG REMOVAL", 30.0, "TREATMENT", "2013-03-13", "2006", "", 30.0, null, null]
["CDISCPILOT01", "CM", "01-701-1180", 9.0, "1", "CENTRUM", "UNCODED", "PROPHYLAXIS OR NON-THERAPEUTIC USE", "UNCODED", 1.0, "TABLET", "QD", "ORAL", 7.0, "WEEK 6", 42.0, "TREATMENT", "2013-03-23", "2006", "", 40.0, null, null]
["CDISCPILOT01", "CM", "01-701-1180", 10.0, "4", "ALOES", "UNCODED", "PROPHYLAXIS OR NON-THERAPEUTIC USE", "UNCODED", 1.0, "TABLET", "QD", "TOPICAL", 7.0, "WEEK 6", 42.0, "TREATMENT", "2013-03-23", "2013-03-19", "2013-03-19", 40.0, 36.0, 36.0]
["CDISCPILOT01", "CM", "01-701-1180", 11.0, "5", "WESTCORT", "UNCODED", "PROPHYLAXIS OR NON-THERAPEUTIC USE", "UNCODED", 1.0, "TABLET", "BID", "TOPICAL", 7.0, "WEEK 6", 42.0, "TREATMENT", "2013-03-23", "2013-03-19", "2013-03-21", 40.0, 36.0, 38.0]
["CDISCPILOT01", "CM", "01-701-1180", 12.0, "1", "CENTRUM", "UNCODED", "PROPHYLAXIS OR NON-THERAPEUTIC USE", "UNCODED", 1.0, "TABLET", "QD", "ORAL", 101.0, "AE FOLLOW-UP", null, "SCREENING", "2013-04-07", "2006", "", 55.0, null, null]
["CDISCPILOT01", "CM", "01-701-1180", 13.0, "10", "NEOSPORIN /USA/", "UNCODED", "", "UNCODED", 1.0, "TABLET", "PRN", "TOPICAL", 101.0, "AE FOLLOW-UP", null, "SCREENING", "2013-04-07", "2013-03-24", "2013-03-24", 55.0, 41.0, 41.0]
["CDISCPILOT01", "CM", "01-701-1180", 14.0, "7", "HISMANAL", "UNCODED", "", "UNCODED", 10.0, "mg", "QD", "ORAL", 101.0, "AE FOLLOW-UP", null, "SCREENING", "2013-04-07", "2013-03-25", "", 55.0, 42.0, null]
["CDISCPILOT01", "CM", "01-701-1180", 15.0, "6", "DHEA", "UNCODED", "PROPHYLAXIS OR NON-THERAPEUTIC USE", "UNCODED", 25.0, "mg", "QD", "ORAL", 101.0, "AE FOLLOW-UP", null, "SCREENING", "2013-04-07", "2013-03-27", "2013-03-30", 55.0, 44.0, 47.0]
["CDISCPILOT01", "CM", "01-701-1180", 16.0, "9", "MELATONIN", "UNCODED", "", "UNCODED", 2.0, "TABLET", "QD", "ORAL", 101.0, "AE FOLLOW-UP", null, "SCREENING", "2013-04-07", "2013-03-27", "2013-03-30", 55.0, 44.0, 47.0]
["CDISCPILOT01", "CM", "01-701-1180", 17.0, "8", "MEDROL DOSEPAK", "UNCODED", "", "UNCODED", 4.0, "mg", "PRN", "ORAL", 101.0, "AE FOLLOW-UP", null, "SCREENING", "2013-04-07", "2013-03-30", "", 55.0, 47.0, null]
["CDISCPILOT01", "CM", "01-701-1181", 1.0, "1", "CALCIUM MAGNESIUM", "UNCODED", "PROPHYLAXIS OR NON-THERAPEUTIC USE", "UNCODED", 1.0, "TABLET", "QD", "ORAL", 1.0, "SCREENING 1", -7.0, "SCREENING", "2013-11-26", "1985", "", -9.0, null, null]
["CDISCPILOT01", "CM", "01-701-1181", 2.0, "2", "POTASSIUM", "UNCODED", "PROPHYLAXIS OR NON-THERAPEUTIC USE", "UNCODED", 1.0, "TABLET", "QD", "ORAL", 1.0, "SCREENING 1", -7.0, "SCREENING", "2013-11-26", "1985", "", -9.0, null, null]
["CDISCPILOT01", "CM", "01-701-1181", 3.0, "4", "VITAMIN C", "UNCODED", "PROPHYLAXIS OR NON-THERAPEUTIC USE", "UNCODED", 1.0, "TABLET", "QD", "ORAL", 1.0, "SCREENING 1", -7.0, "SCREENING", "2013-11-26", "1985", "", -9.0, null, null]
["CDISCPILOT01", "CM", "01-701-1181", 4.0, "3", "TYLENOL", "UNCODED", "", "UNCODED", 500.0, "mg", "PRN", "ORAL", 1.0, "SCREENING 1", -7.0, "SCREENING", "2013-11-26", "2005", "", -9.0, null, null]
["CDISCPILOT01", "CM", "01-701-1181", 5.0, "5", "VITAMIN E", "UNCODED", "PROPHYLAXIS OR NON-THERAPEUTIC USE", "UNCODED", 1.0, "TABLET", "QD", "ORAL", 1.0, "SCREENING 1", -7.0, "SCREENING", "2013-11-26", "2012-06-04", "", -9.0, -549.0, null]
["CDISCPILOT01", "CM", "01-701-1181", 6.0, "1", "CALCIUM MAGNESIUM", "UNCODED", "PROPHYLAXIS OR NON-THERAPEUTIC USE", "UNCODED", 1.0, "TABLET", "QD", "ORAL", 2.0, "SCREENING 2", -1.0, "SCREENING", "2013-12-03", "1985", "", -2.0, null, null]
["CDISCPILOT01", "CM", "01-701-1181", 7.0, "2", "POTASSIUM", "UNCODED", "PROPHYLAXIS OR NON-THERAPEUTIC USE", "UNCODED", 1.0, "TABLET", "QD", "ORAL", 2.0, "SCREENING 2", -1.0, "SCREENING", "2013-12-03", "1985", "", -2.0, null, null]
["CDISCPILOT01", "CM", "01-701-1181", 8.0, "4", "VITAMIN C", "UNCODED", "PROPHYLAXIS OR NON-THERAPEUTIC USE", "UNCODED", 1.0, "TABLET", "QD", "ORAL", 2.0, "SCREENING 2", -1.0, "SCREENING", "2013-12-03", "1985", "", -2.0, null, null]
["CDISCPILOT01", "CM", "01-701-1181", 9.0, "3", "TYLENOL", "UNCODED", "", "UNCODED", 500.0, "mg", "PRN", "ORAL", 2.0, "SCREENING 2", -1.0, "SCREENING", "2013-12-03", "2005", "", -2.0, null, null]
["CDISCPILOT01", "CM", "01-701-1181", 10.0, "5", "VITAMIN E", "UNCODED", "PROPHYLAXIS OR NON-THERAPEUTIC USE", "UNCODED", 1.0, "TABLET", "QD", "ORAL", 2.0, "SCREENING 2", -1.0, "SCREENING", "2013-12-03", "2012-06-04", "", -2.0, -549.0, null]
["CDISCPILOT01", "CM", "01-701-1181", 11.0, "1", "CALCIUM MAGNESIUM", "UNCODED", "PROPHYLAXIS OR NON-THERAPEUTIC USE", "UNCODED", 1.0, "TABLET", "QD", "ORAL", 3.0, "BASELINE", 1.0, "TREATMENT", "2013-12-05", "1985", "", 1.0, null, null]
["CDISCPILOT01", "CM", "01-701-1181", 12.0, "2", "POTASSIUM", "UNCODED", "PROPHYLAXIS OR NON-THERAPEUTIC USE", "UNCODED", 1.0, "TABLET", "QD", "ORAL", 3.0, "BASELINE", 1.0, "TREATMENT", "2013-12-05", "1985", "", 1.0, null, null]
["CDISCPILOT01", "CM", "01-701-1181", 13.0, "4", "VITAMIN C", "UNCODED", "PROPHYLAXIS OR NON-THERAPEUTIC USE", "UNCODED", 1.0, "TABLET", "QD", "ORAL", 3.0, "BASELINE", 1.0, "TREATMENT", "2013-12-05", "1985", "", 1.0, null, null]
["CDISCPILOT01", "CM", "01-701-1181", 14.0, "3", "TYLENOL", "UNCODED", "", "UNCODED", 500.0, "mg", "PRN", "ORAL", 3.0, "BASELINE", 1.0, "TREATMENT", "2013-12-05", "2005", "", 1.0, null, null]
["CDISCPILOT01", "CM", "01-701-1181", 15.0, "5", "VITAMIN E", "UNCODED", "PROPHYLAXIS OR NON-THERAPEUTIC USE", "UNCODED", 1.0, "TABLET", "QD", "ORAL", 3.0, "BASELINE", 1.0, "TREATMENT", "2013-12-05", "2012-06-04", "", 1.0, -549.0, null]
["CDISCPILOT01", "CM", "01-701-1181", 16.0, "1", "CALCIUM MAGNESIUM", "UNCODED", "PROPHYLAXIS OR NON-THERAPEUTIC USE", "UNCODED", 1.0, "TABLET", "QD", "ORAL", 4.0, "WEEK 2", 14.0, "TREATMENT", "2013-12-12", "1985", "", 8.0, null, null]
["CDISCPILOT01", "CM", "01-701-1181", 17.0, "2", "POTASSIUM", "UNCODED", "PROPHYLAXIS OR NON-THERAPEUTIC USE", "UNCODED", 1.0, "TABLET", "QD", "ORAL", 4.0, "WEEK 2", 14.0, "TREATMENT", "2013-12-12", "1985", "", 8.0, null, null]
["CDISCPILOT01", "CM", "01-701-1181", 18.0, "4", "VITAMIN C", "UNCODED", "PROPHYLAXIS OR NON-THERAPEUTIC USE", "UNCODED", 1.0, "TABLET", "QD", "ORAL", 4.0, "WEEK 2", 14.0, "TREATMENT", "2013-12-12", "1985", "", 8.0, null, null]
["CDISCPILOT01", "CM", "01-701-1181", 19.0, "3", "TYLENOL", "UNCODED", "", "UNCODED", 500.0, "mg", "PRN", "ORAL", 4.0, "WEEK 2", 14.0, "TREATMENT", "2013-12-12", "2005", "", 8.0, null, null]
["CDISCPILOT01", "CM", "01-701-1181", 20.0, "5", "VITAMIN E", "UNCODED", "PROPHYLAXIS OR NON-THERAPEUTIC USE", "UNCODED", 1.0, "TABLET", "QD", "ORAL", 4.0, "WEEK 2", 14.0, "TREATMENT", "2013-12-12", "2012-06-04", "", 8.0, -549.0, null]
["CDISCPILOT01", "CM", "01-701-1181", 21.0, "6", "MOTRIN", "UNCODED", "", "UNCODED", 200.0, "mg", "PRN", "ORAL", 4.0, "WEEK 2", 14.0, "TREATMENT", "2013-12-12", "2013-12-09", "2013-12-09", 8.0, 5.0, 5.0]
["CDISCPILOT01", "CM", "01-701-1181", 22.0, "1", "CALCIUM MAGNESIUM", "UNCODED", "PROPHYLAXIS OR NON-THERAPEUTIC USE", "UNCODED", 1.0, "TABLET", "QD", "ORAL", 101.0, "AE FOLLOW-UP", null, "SCREENING", "2013-12-20", "1985", "", 16.0, null, null]
["CDISCPILOT01", "CM", "01-701-1181", 23.0, "2", "POTASSIUM", "UNCODED", "PROPHYLAXIS OR NON-THERAPEUTIC USE", "UNCODED", 1.0, "TABLET", "QD", "ORAL", 101.0, "AE FOLLOW-UP", null, "SCREENING", "2013-12-20", "1985", "", 16.0, null, null]
["CDISCPILOT01", "CM", "01-701-1181", 24.0, "4", "VITAMIN C", "UNCODED", "PROPHYLAXIS OR NON-THERAPEUTIC USE", "UNCODED", 1.0, "TABLET", "QD", "ORAL", 101.0, "AE FOLLOW-UP", null, "SCREENING", "2013-12-20", "1985", "", 16.0, null, null]
["CDISCPILOT01", "CM", "01-701-1181", 25.0, "3", "TYLENOL", "UNCODED", "", "UNCODED", 500.0, "mg", "PRN", "ORAL", 101.0, "AE FOLLOW-UP", null, "SCREENING", "2013-12-20", "2005", "", 16.0, null, null]
["CDISCPILOT01", "CM", "01-701-1181", 26.0, "5", "VITAMIN E", "UNCODED", "PROPHYLAXIS OR NON-THERAPEUTIC USE", "UNCODED", 1.0, "TABLET", "QD", "ORAL", 101.0, "AE FOLLOW-UP", null, "SCREENING", "2013-12-20", "2012-06-04", "", 16.0, -549.0, null]
["CDISCPILOT01", "CM", "01-701-1181", 27.0, "1", "CALCIUM MAGNESIUM", "UNCODED", "PROPHYLAXIS OR NON-THERAPEUTIC USE", "UNCODED", 1.0, "TABLET", "QD", "ORAL", 201.0, "RETRIEVAL", 168.0, "TREATMENT", "2014-05-23", "1985", "", 170.0, null, null]
["CDISCPILOT01", "CM", "01-701-1181", 28.0, "2", "POTASSIUM", "UNCODED", "PROPHYLAXIS OR NON-THERAPEUTIC USE", "UNCODED", 1.0, "TABLET", "QD", "ORAL", 201.0, "RETRIEVAL", 168.0, "TREATMENT", "2014-05-23", "1985", "", 170.0, null, null]
["CDISCPILOT01", "CM", "01-701-1181", 29.0, "4", "VITAMIN C", "UNCODED", "PROPHYLAXIS OR NON-THERAPEUTIC USE", "UNCODED", 1.0, "TABLET", "QD", "ORAL", 201.0, "RETRIEVAL", 168.0, "TREATMENT", "2014-05-23", "1985", "", 170.0, null, null]
["CDISCPILOT01", "CM", "01-701-1181", 30.0, "3", "TYLENOL", "UNCODED", "", "UNCODED", 500.0, "mg", "PRN", "ORAL", 201.0, "RETRIEVAL", 168.0, "TREATMENT", "2014-05-23", "2005", "", 170.0, null, null]
["CDISCPILOT01", "CM", "01-701-1181", 31.0, "5", "VITAMIN E", "UNCODED", "PROPHYLAXIS OR NON-THERAPEUTIC USE", "UNCODED", 1.0, "TABLET", "QD", "ORAL", 201.0, "RETRIEVAL", 168.0, "TREATMENT", "2014-05-23", "2012-06-04", "", 170.0, -549.0, null]
["CDISCPILOT01", "CM", "01-701-1188", 1.0, "2", "MULTIVITAMINS", "UNCODED", "PROPHYLAXIS OR NON-THERAPEUTIC USE", "UNCODED", 1.0, "TABLET", "QD", "ORAL", 1.0, "SCREENING 1", -7.0, "SCREENING", "2013-02-03", "2002", "", -12.0, null, null]
["CDISCPILOT01", "CM", "01-701-1188", 2.0, "1", "ASPIRIN", "ACETYLSALICYLIC ACID", "PROPHYLAXIS OR NON-THERAPEUTIC USE", "NERVOUS SYSTEM", 1.0, "TABLET", "QD", "ORAL", 1.0, "SCREENING 1", -7.0, "SCREENING", "2013-02-03", "2006", "", -12.0, null, null]
["CDISCPILOT01", "CM", "01-701-1188", 3.0, "2", "MULTIVITAMINS", "UNCODED", "PROPHYLAXIS OR NON-THERAPEUTIC USE", "UNCODED", 1.0, "TABLET", "QD", "ORAL", 2.0, "SCREENING 2", -1.0, "SCREENING", "2013-02-10", "2002", "", -5.0, null, null]
["CDISCPILOT01", "CM", "01-701-1188", 4.0, "1", "ASPIRIN", "ACETYLSALICYLIC ACID", "PROPHYLAXIS OR NON-THERAPEUTIC USE", "NERVOUS SYSTEM", 1.0, "TABLET", "QD", "ORAL", 2.0, "SCREENING 2", -1.0, "SCREENING", "2013-02-10", "2006", "", -5.0, null, null]
["CDISCPILOT01", "CM", "01-701-1188", 5.0, "2", "MULTIVITAMINS", "UNCODED", "PROPHYLAXIS OR NON-THERAPEUTIC USE", "UNCODED", 1.0, "TABLET", "QD", "ORAL", 3.0, "BASELINE", 1.0, "TREATMENT", "2013-02-15", "2002", "", 1.0, null, null]
["CDISCPILOT01", "CM", "01-701-1188", 6.0, "1", "ASPIRIN", "ACETYLSALICYLIC ACID", "PROPHYLAXIS OR NON-THERAPEUTIC USE", "NERVOUS SYSTEM", 1.0, "TABLET", "QD", "ORAL", 3.0, "BASELINE", 1.0, "TREATMENT", "2013-02-15", "2006", "", 1.0, null, null]
["CDISCPILOT01", "CM", "01-701-1188", 7.0, "2", "MULTIVITAMINS", "UNCODED", "PROPHYLAXIS OR NON-THERAPEUTIC USE", "UNCODED", 1.0, "TABLET", "QD", "ORAL", 4.0, "WEEK 2", 14.0, "TREATMENT", "2013-03-02", "2002", "", 16.0, null, null]
["CDISCPILOT01", "CM", "01-701-1188", 8.0, "1", "ASPIRIN", "ACETYLSALICYLIC ACID", "PROPHYLAXIS OR NON-THERAPEUTIC USE", "NERVOUS SYSTEM", 1.0, "TABLET", "QD", "ORAL", 4.0, "WEEK 2", 14.0, "TREATMENT", "2013-03-02", "2006", "", 16.0, null, null]
["CDISCPILOT01", "CM", "01-701-1188", 9.0, "2", "MULTIVITAMINS", "UNCODED", "PROPHYLAXIS OR NON-THERAPEUTIC USE", "UNCODED", 1.0, "TABLET", "QD", "ORAL", 5.0, "WEEK 4", 28.0, "TREATMENT", "2013-03-16", "2002", "", 30.0, null, null]
["CDISCPILOT01", "CM", "01-701-1188", 10.0, "1", "ASPIRIN", "ACETYLSALICYLIC ACID", "PROPHYLAXIS OR NON-THERAPEUTIC USE", "NERVOUS SYSTEM", 1.0, "TABLET", "QD", "ORAL", 5.0, "WEEK 4", 28.0, "TREATMENT", "2013-03-16", "2006", "", 30.0, null, null]
["CDISCPILOT01", "CM", "01-701-1188", 11.0, "2", "MULTIVITAMINS", "UNCODED", "PROPHYLAXIS OR NON-THERAPEUTIC USE", "UNCODED", 1.0, "TABLET", "QD", "ORAL", 6.0, "AMBUL ECG REMOVAL", 30.0, "TREATMENT", "2013-03-18", "2002", "", 32.0, null, null]
["CDISCPILOT01", "CM", "01-701-1188", 12.0, "1", "ASPIRIN", "ACETYLSALICYLIC ACID", "PROPHYLAXIS OR NON-THERAPEUTIC USE", "NERVOUS SYSTEM", 1.0, "TABLET", "QD", "ORAL", 6.0, "AMBUL ECG REMOVAL", 30.0, "TREATMENT", "2013-03-18", "2006", "", 32.0, null, null]
["CDISCPILOT01", "CM", "01-701-1188", 13.0, "2", "MULTIVITAMINS", "UNCODED", "PROPHYLAXIS OR NON-THERAPEUTIC USE", "UNCODED", 1.0, "TABLET", "QD", "ORAL", 7.0, "WEEK 6", 42.0, "TREATMENT", "2013-03-25", "2002", "", 39.0, null, null]
["CDISCPILOT01", "CM", "01-701-1188", 14.0, "1", "ASPIRIN", "ACETYLSALICYLIC ACID", "PROPHYLAXIS OR NON-THERAPEUTIC USE", "NERVOUS SYSTEM", 1.0, "TABLET", "QD", "ORAL", 7.0, "WEEK 6", 42.0, "TREATMENT", "2013-03-25", "2006", "", 39.0, null, null]
["CDISCPILOT01", "CM", "01-701-1188", 15.0, "2", "MULTIVITAMINS", "UNCODED", "PROPHYLAXIS OR NON-THERAPEUTIC USE", "UNCODED", 1.0, "TABLET", "QD", "ORAL", 101.0, "AE FOLLOW-UP", null, "SCREENING", "2013-06-01", "2002", "", 107.0, null, null]
["CDISCPILOT01", "CM", "01-701-1188", 16.0, "1", "ASPIRIN", "ACETYLSALICYLIC ACID", "PROPHYLAXIS OR NON-THERAPEUTIC USE", "NERVOUS SYSTEM", 1.0, "TABLET", "QD", "ORAL", 101.0, "AE FOLLOW-UP", null, "SCREENING", "2013-06-01", "2006", "", 107.0, null, null]
["CDISCPILOT01", "CM", "01-701-1188", 17.0, "2", "MULTIVITAMINS", "UNCODED", "PROPHYLAXIS OR NON-THERAPEUTIC USE", "UNCODED", 1.0, "TABLET", "QD", "ORAL", 201.0, "RETRIEVAL", 168.0, "TREATMENT", "2013-08-04", "2002", "", 171.0, null, null]
["CDISCPILOT01", "CM", "01-701-1188", 18.0, "1", "ASPIRIN", "ACETYLSALICYLIC ACID", "PROPHYLAXIS OR NON-THERAPEUTIC USE", "NERVOUS SYSTEM", 1.0, "TABLET", "QD", "ORAL", 201.0, "RETRIEVAL", 168.0, "TREATMENT", "2013-08-04", "2006", "", 171.0, null, null]
["CDISCPILOT01", "CM", "01-701-1192", 1.0, "1", "EXCEDRIN", "UNCODED", "", "UNCODED", 2.0, "TABLET", "PRN", "ORAL", 1.0, "SCREENING 1", -7.0, "SCREENING", "2012-07-08", "1999", "", -14.0, null, null]
["CDISCPILOT01", "CM", "01-701-1192", 2.0, "2", "MULTIVITAMINS", "UNCODED", "PROPHYLAXIS OR NON-THERAPEUTIC USE", "UNCODED", 2.0, "TABLET", "TID", "ORAL", 1.0, "SCREENING 1", -7.0, "SCREENING", "2012-07-08", "2011-05-19", "", -14.0, -430.0, null]
["CDISCPILOT01", "CM", "01-701-1192", 3.0, "1", "EXCEDRIN", "UNCODED", "", "UNCODED", 2.0, "TABLET", "PRN", "ORAL", 2.0, "SCREENING 2", -1.0, "SCREENING", "2012-07-20", "1999", "", -2.0, null, null]
["CDISCPILOT01", "CM", "01-701-1192", 4.0, "2", "MULTIVITAMINS", "UNCODED", "PROPHYLAXIS OR NON-THERAPEUTIC USE", "UNCODED", 2.0, "TABLET", "TID", "ORAL", 2.0, "SCREENING 2", -1.0, "SCREENING", "2012-07-20", "2011-05-19", "", -2.0, -430.0, null]
["CDISCPILOT01", "CM", "01-701-1192", 5.0, "1", "EXCEDRIN", "UNCODED", "", "UNCODED", 2.0, "TABLET", "PRN", "ORAL", 3.0, "BASELINE", 1.0, "TREATMENT", "2012-07-22", "1999", "", 1.0, null, null]
["CDISCPILOT01", "CM", "01-701-1192", 6.0, "2", "MULTIVITAMINS", "UNCODED", "PROPHYLAXIS OR NON-THERAPEUTIC USE", "UNCODED", 2.0, "TABLET", "TID", "ORAL", 3.0, "BASELINE", 1.0, "TREATMENT", "2012-07-22", "2011-05-19", "", 1.0, -430.0, null]
["CDISCPILOT01", "CM", "01-701-1192", 7.0, "1", "EXCEDRIN", "UNCODED", "", "UNCODED", 2.0, "TABLET", "PRN", "ORAL", 4.0, "WEEK 2", 14.0, "TREATMENT", "2012-08-07", "1999", "", 17.0, null, null]
["CDISCPILOT01", "CM", "01-701-1192", 8.0, "2", "MULTIVITAMINS", "UNCODED", "PROPHYLAXIS OR NON-THERAPEUTIC USE", "UNCODED", 2.0, "TABLET", "TID", "ORAL", 4.0, "WEEK 2", 14.0, "TREATMENT", "2012-08-07", "2011-05-19", "", 17.0, -430.0, null]
["CDISCPILOT01", "CM", "01-701-1192", 9.0, "1", "EXCEDRIN", "UNCODED", "", "UNCODED", 2.0, "TABLET", "PRN", "ORAL", 5.0, "WEEK 4", 28.0, "TREATMENT", "2012-08-21", "1999", "", 31.0, null, null]
["CDISCPILOT01", "CM", "01-701-1192", 10.0, "2", "MULTIVITAMINS", "UNCODED", "PROPHYLAXIS OR NON-THERAPEUTIC USE", "UNCODED", 2.0, "TABLET", "TID", "ORAL", 5.0, "WEEK 4", 28.0, "TREATMENT", "2012-08-21", "2011-05-19", "", 31.0, -430.0, null]
["CDISCPILOT01", "CM", "01-701-1192", 11.0, "1", "EXCEDRIN", "UNCODED", "", "UNCODED", 2.0, "TABLET", "PRN", "ORAL", 6.0, "AMBUL ECG REMOVAL", 30.0, "TREATMENT", "2012-08-23", "1999", "", 33.0, null, null]
["CDISCPILOT01", "CM", "01-701-1192", 12.0, "2", "MULTIVITAMINS", "UNCODED", "PROPHYLAXIS OR NON-THERAPEUTIC USE", "UNCODED", 2.0, "TABLET", "TID", "ORAL", 6.0, "AMBUL ECG REMOVAL", 30.0, "TREATMENT", "2012-08-23", "2011-05-19", "", 33.0, -430.0, null]
["CDISCPILOT01", "CM", "01-701-1192", 13.0, "1", "EXCEDRIN", "UNCODED", "", "UNCODED", 2.0, "TABLET", "PRN", "ORAL", 7.0, "WEEK 6", 42.0, "TREATMENT", "2012-09-04", "1999", "", 45.0, null, null]
["CDISCPILOT01", "CM", "01-701-1192", 14.0, "2", "MULTIVITAMINS", "UNCODED", "PROPHYLAXIS OR NON-THERAPEUTIC USE", "UNCODED", 2.0, "TABLET", "TID", "ORAL", 7.0, "WEEK 6", 42.0, "TREATMENT", "2012-09-04", "2011-05-19", "", 45.0, -430.0, null]
["CDISCPILOT01", "CM", "01-701-1192", 15.0, "1", "EXCEDRIN", "UNCODED", "", "UNCODED", 2.0, "TABLET", "PRN", "ORAL", 8.0, "WEEK 8", 56.0, "TREATMENT", "2012-09-23", "1999", "", 64.0, null, null]
["CDISCPILOT01", "CM", "01-701-1192", 16.0, "2", "MULTIVITAMINS", "UNCODED", "PROPHYLAXIS OR NON-THERAPEUTIC USE", "UNCODED", 2.0, "TABLET", "TID", "ORAL", 8.0, "WEEK 8", 56.0, "TREATMENT", "2012-09-23", "2011-05-19", "", 64.0, -430.0, null]
["CDISCPILOT01", "CM", "01-701-1192", 17.0, "4", "BIAXIN", "UNCODED", "", "UNCODED", 500.0, "mg", "BID", "ORAL", 8.0, "WEEK 8", 56.0, "TREATMENT", "2012-09-23", "2012-09-07", "2012-09-23", 64.0, 48.0, 64.0]
["CDISCPILOT01", "CM", "01-701-1192", 18.0, "3", "ROCEPHIN", "UNCODED", "", "UNCODED", null, "", "", "", 8.0, "WEEK 8", 56.0, "TREATMENT", "2012-09-23", "2012-09-07", "2012-09-08", 64.0, 48.0, 49.0]
["CDISCPILOT01", "CM", "01-701-1192", 19.0, "6", "ROBITUSSIN-DM", "UNCODED", "", "UNCODED", 1.0, "TABLET", "PRN", "ORAL", 8.0, "WEEK 8", 56.0, "TREATMENT", "2012-09-23", "2012-09-08", "2012-10-06", 64.0, 49.0, 77.0]
["CDISCPILOT01", "CM", "01-701-1192", 20.0, "1", "EXCEDRIN", "UNCODED", "", "UNCODED", 2.0, "TABLET", "PRN", "ORAL", 9.0, "WEEK 12", 84.0, "TREATMENT", "2012-10-14", "1999", "", 85.0, null, null]
["CDISCPILOT01", "CM", "01-701-1192", 21.0, "2", "MULTIVITAMINS", "UNCODED", "PROPHYLAXIS OR NON-THERAPEUTIC USE", "UNCODED", 2.0, "TABLET", "TID", "ORAL", 9.0, "WEEK 12", 84.0, "TREATMENT", "2012-10-14", "2011-05-19", "", 85.0, -430.0, null]
["CDISCPILOT01", "CM", "01-701-1192", 22.0, "4", "BIAXIN", "UNCODED", "", "UNCODED", 500.0, "mg", "BID", "ORAL", 9.0, "WEEK 12", 84.0, "TREATMENT", "2012-10-14", "2012-09-07", "2012-09-23", 85.0, 48.0, 64.0]
["CDISCPILOT01", "CM", "01-701-1192", 23.0, "6", "ROBITUSSIN-DM", "UNCODED", "", "UNCODED", 1.0, "TABLET", "PRN", "ORAL", 9.0, "WEEK 12", 84.0, "TREATMENT", "2012-10-14", "2012-09-08", "2012-10-06", 85.0, 49.0, 77.0]
["CDISCPILOT01", "CM", "01-701-1192", 24.0, "5", "PROVENTIL", "SALBUTAMOL SULFATE", "", "RESPIRATORY SYSTEM", 4.0, "mg", "BID", "ORAL", 9.0, "WEEK 12", 84.0, "TREATMENT", "2012-10-14", "2012-09-24", "2012-10-06", 85.0, 65.0, 77.0]
["CDISCPILOT01", "CM", "01-701-1192", 25.0, "1", "EXCEDRIN", "UNCODED", "", "UNCODED", 2.0, "TABLET", "PRN", "ORAL", 10.0, "WEEK 16", 112.0, "TREATMENT", "2012-11-15", "1999", "", 117.0, null, null]
["CDISCPILOT01", "CM", "01-701-1192", 26.0, "2", "MULTIVITAMINS", "UNCODED", "PROPHYLAXIS OR NON-THERAPEUTIC USE", "UNCODED", 2.0, "TABLET", "TID", "ORAL", 10.0, "WEEK 16", 112.0, "TREATMENT", "2012-11-15", "2011-05-19", "", 117.0, -430.0, null]
["CDISCPILOT01", "CM", "01-701-1192", 27.0, "1", "EXCEDRIN", "UNCODED", "", "UNCODED", 2.0, "TABLET", "PRN", "ORAL", 11.0, "WEEK 20", 140.0, "TREATMENT", "2012-12-13", "1999", "", 145.0, null, null]
["CDISCPILOT01", "CM", "01-701-1192", 28.0, "2", "MULTIVITAMINS", "UNCODED", "PROPHYLAXIS OR NON-THERAPEUTIC USE", "UNCODED", 2.0, "TABLET", "TID", "ORAL", 11.0, "WEEK 20", 140.0, "TREATMENT", "2012-12-13", "2011-05-19", "", 145.0, -430.0, null]
["CDISCPILOT01", "CM", "01-701-1192", 29.0, "7", "HYDROCORTISONE", "HYDROCORTISONE", "", "SYSTEMIC HORMONAL PREPARATIONS, EXCL.", 1.0, "TABLET", "PRN", "TOPICAL", 11.0, "WEEK 20", 140.0, "TREATMENT", "2012-12-13", "2012-12-08", "", 145.0, 140.0, null]
["CDISCPILOT01", "CM", "01-701-1192", 30.0, "8", "NEOSPORIN /USA/", "UNCODED", "", "UNCODED", 1.0, "TABLET", "PRN", "TOPICAL", 11.0, "WEEK 20", 140.0, "TREATMENT", "2012-12-13", "2012-12-09", "", 145.0, 141.0, null]
["CDISCPILOT01", "CM", "01-701-1192", 31.0, "1", "EXCEDRIN", "UNCODED", "", "UNCODED", 2.0, "TABLET", "PRN", "ORAL", 12.0, "WEEK 24", 168.0, "TREATMENT", "2013-01-11", "1999", "", 174.0, null, null]
["CDISCPILOT01", "CM", "01-701-1192", 32.0, "2", "MULTIVITAMINS", "UNCODED", "PROPHYLAXIS OR NON-THERAPEUTIC USE", "UNCODED", 2.0, "TABLET", "TID", "ORAL", 12.0, "WEEK 24", 168.0, "TREATMENT", "2013-01-11", "2011-05-19", "", 174.0, -430.0, null]
["CDISCPILOT01", "CM", "01-701-1192", 33.0, "7", "HYDROCORTISONE", "HYDROCORTISONE", "", "SYSTEMIC HORMONAL PREPARATIONS, EXCL.", 1.0, "TABLET", "PRN", "TOPICAL", 12.0, "WEEK 24", 168.0, "TREATMENT", "2013-01-11", "2012-12-08", "", 174.0, 140.0, null]
["CDISCPILOT01", "CM", "01-701-1192", 34.0, "8", "NEOSPORIN /USA/", "UNCODED", "", "UNCODED", 1.0, "TABLET", "PRN", "TOPICAL", 12.0, "WEEK 24", 168.0, "TREATMENT", "2013-01-11", "2012-12-09", "", 174.0, 141.0, null]
["CDISCPILOT01", "CM", "01-701-1192", 35.0, "1", "EXCEDRIN", "UNCODED", "", "UNCODED", 2.0, "TABLET", "PRN", "ORAL", 13.0, "WEEK 26", 182.0, "TREATMENT", "2013-01-20", "1999", "", 183.0, null, null]
["CDISCPILOT01", "CM", "01-701-1192", 36.0, "2", "MULTIVITAMINS", "UNCODED", "PROPHYLAXIS OR NON-THERAPEUTIC USE", "UNCODED", 2.0, "TABLET", "TID", "ORAL", 13.0, "WEEK 26", 182.0, "TREATMENT", "2013-01-20", "2011-05-19", "", 183.0, -430.0, null]
["CDISCPILOT01", "CM", "01-701-1192", 37.0, "7", "HYDROCORTISONE", "HYDROCORTISONE", "", "SYSTEMIC HORMONAL PREPARATIONS, EXCL.", 1.0, "TABLET", "PRN", "TOPICAL", 13.0, "WEEK 26", 182.0, "TREATMENT", "2013-01-20", "2012-12-08", "", 183.0, 140.0, null]
["CDISCPILOT01", "CM", "01-701-1192", 38.0, "8", "NEOSPORIN /USA/", "UNCODED", "", "UNCODED", 1.0, "TABLET", "PRN", "TOPICAL", 13.0, "WEEK 26", 182.0, "TREATMENT", "2013-01-20", "2012-12-09", "", 183.0, 141.0, null]
["CDISCPILOT01", "CM", "01-701-1203", 1.0, "1", "TIMOPTIC", "UNCODED", "", "UNCODED", 1.0, "TABLET", "BID", "OPHTHALMIC", 1.0, "SCREENING 1", -7.0, "SCREENING", "2013-01-25", "1986", "", -8.0, null, null]
["CDISCPILOT01", "CM", "01-701-1203", 2.0, "2", "TRUSOPT", "UNCODED", "", "UNCODED", 1.0, "TABLET", "BID", "OPHTHALMIC", 1.0, "SCREENING 1", -7.0, "SCREENING", "2013-01-25", "1986", "", -8.0, null, null]
["CDISCPILOT01", "CM", "01-701-1203", 3.0, "1", "TIMOPTIC", "UNCODED", "", "UNCODED", 1.0, "TABLET", "BID", "OPHTHALMIC", 2.0, "SCREENING 2", -1.0, "SCREENING", "2013-02-01", "1986", "", -1.0, null, null]
["CDISCPILOT01", "CM", "01-701-1203", 4.0, "2", "TRUSOPT", "UNCODED", "", "UNCODED", 1.0, "TABLET", "BID", "OPHTHALMIC", 2.0, "SCREENING 2", -1.0, "SCREENING", "2013-02-01", "1986", "", -1.0, null, null]
["CDISCPILOT01", "CM", "01-701-1203", 5.0, "3", "ALPHAGAN", "UNCODED", "", "UNCODED", 1.0, "TABLET", "BID", "OPHTHALMIC", 2.0, "SCREENING 2", -1.0, "SCREENING", "2013-02-01", "2013-01-31", "", -1.0, -2.0, null]
["CDISCPILOT01", "CM", "01-701-1203", 6.0, "4", "PILOSTAT", "UNCODED", "", "UNCODED", 1.0, "TABLET", "BID", "OPHTHALMIC", 2.0, "SCREENING 2", -1.0, "SCREENING", "2013-02-01", "2013-01-31", "", -1.0, -2.0, null]
["CDISCPILOT01", "CM", "01-701-1203", 7.0, "1", "TIMOPTIC", "UNCODED", "", "UNCODED", 1.0, "TABLET", "BID", "OPHTHALMIC", 3.0, "BASELINE", 1.0, "TREATMENT", "2013-02-02", "1986", "", 1.0, null, null]
["CDISCPILOT01", "CM", "01-701-1203", 8.0, "2", "TRUSOPT", "UNCODED", "", "UNCODED", 1.0, "TABLET", "BID", "OPHTHALMIC", 3.0, "BASELINE", 1.0, "TREATMENT", "2013-02-02", "1986", "", 1.0, null, null]
["CDISCPILOT01", "CM", "01-701-1203", 9.0, "3", "ALPHAGAN", "UNCODED", "", "UNCODED", 1.0, "TABLET", "BID", "OPHTHALMIC", 3.0, "BASELINE", 1.0, "TREATMENT", "2013-02-02", "2013-01-31", "", 1.0, -2.0, null]
["CDISCPILOT01", "CM", "01-701-1203", 10.0, "4", "PILOSTAT", "UNCODED", "", "UNCODED", 1.0, "TABLET", "BID", "OPHTHALMIC", 3.0, "BASELINE", 1.0, "TREATMENT", "2013-02-02", "2013-01-31", "", 1.0, -2.0, null]
["CDISCPILOT01", "CM", "01-701-1203", 11.0, "1", "TIMOPTIC", "UNCODED", "", "UNCODED", 1.0, "TABLET", "BID", "OPHTHALMIC", 4.0, "WEEK 2", 14.0, "TREATMENT", "2013-02-23", "1986", "", 22.0, null, null]
["CDISCPILOT01", "CM", "01-701-1203", 12.0, "2", "TRUSOPT", "UNCODED", "", "UNCODED", 1.0, "TABLET", "BID", "OPHTHALMIC", 4.0, "WEEK 2", 14.0, "TREATMENT", "2013-02-23", "1986", "", 22.0, null, null]
["CDISCPILOT01", "CM", "01-701-1203", 13.0, "3", "ALPHAGAN", "UNCODED", "", "UNCODED", 1.0, "TABLET", "BID", "OPHTHALMIC", 4.0, "WEEK 2", 14.0, "TREATMENT", "2013-02-23", "2013-01-31", "", 22.0, -2.0, null]
["CDISCPILOT01", "CM", "01-701-1203", 14.0, "4", "PILOSTAT", "UNCODED", "", "UNCODED", 1.0, "TABLET", "BID", "OPHTHALMIC", 4.0, "WEEK 2", 14.0, "TREATMENT", "2013-02-23", "2013-01-31", "", 22.0, -2.0, null]
["CDISCPILOT01", "CM", "01-701-1203", 15.0, "1", "TIMOPTIC", "UNCODED", "", "UNCODED", 1.0, "TABLET", "BID", "OPHTHALMIC", 5.0, "WEEK 4", 28.0, "TREATMENT", "2013-03-02", "1986", "", 29.0, null, null]
["CDISCPILOT01", "CM", "01-701-1203", 16.0, "2", "TRUSOPT", "UNCODED", "", "UNCODED", 1.0, "TABLET", "BID", "OPHTHALMIC", 5.0, "WEEK 4", 28.0, "TREATMENT", "2013-03-02", "1986", "", 29.0, null, null]
["CDISCPILOT01", "CM", "01-701-1203", 17.0, "3", "ALPHAGAN", "UNCODED", "", "UNCODED", 1.0, "TABLET", "BID", "OPHTHALMIC", 5.0, "WEEK 4", 28.0, "TREATMENT", "2013-03-02", "2013-01-31", "", 29.0, -2.0, null]
["CDISCPILOT01", "CM", "01-701-1203", 18.0, "4", "PILOSTAT", "UNCODED", "", "UNCODED", 1.0, "TABLET", "BID", "OPHTHALMIC", 5.0, "WEEK 4", 28.0, "TREATMENT", "2013-03-02", "2013-01-31", "", 29.0, -2.0, null]
["CDISCPILOT01", "CM", "01-701-1203", 19.0, "1", "TIMOPTIC", "UNCODED", "", "UNCODED", 1.0, "TABLET", "BID", "OPHTHALMIC", 6.0, "AMBUL ECG REMOVAL", 30.0, "TREATMENT", "2013-03-04", "1986", "", 31.0, null, null]
["CDISCPILOT01", "CM", "01-701-1203", 20.0, "2", "TRUSOPT", "UNCODED", "", "UNCODED", 1.0, "TABLET", "BID", "OPHTHALMIC", 6.0, "AMBUL ECG REMOVAL", 30.0, "TREATMENT", "2013-03-04", "1986", "", 31.0, null, null]
["CDISCPILOT01", "CM", "01-701-1203", 21.0, "3", "ALPHAGAN", "UNCODED", "", "UNCODED", 1.0, "TABLET", "BID", "OPHTHALMIC", 6.0, "AMBUL ECG REMOVAL", 30.0, "TREATMENT", "2013-03-04", "2013-01-31", "", 31.0, -2.0, null]
["CDISCPILOT01", "CM", "01-701-1203", 22.0, "4", "PILOSTAT", "UNCODED", "", "UNCODED", 1.0, "TABLET", "BID", "OPHTHALMIC", 6.0, "AMBUL ECG REMOVAL", 30.0, "TREATMENT", "2013-03-04", "2013-01-31", "", 31.0, -2.0, null]
["CDISCPILOT01", "CM", "01-701-1203", 23.0, "1", "TIMOPTIC", "UNCODED", "", "UNCODED", 1.0, "TABLET", "BID", "OPHTHALMIC", 7.0, "WEEK 6", 42.0, "TREATMENT", "2013-03-16", "1986", "", 43.0, null, null]
["CDISCPILOT01", "CM", "01-701-1203", 24.0, "2", "TRUSOPT", "UNCODED", "", "UNCODED", 1.0, "TABLET", "BID", "OPHTHALMIC", 7.0, "WEEK 6", 42.0, "TREATMENT", "2013-03-16", "1986", "", 43.0, null, null]
["CDISCPILOT01", "CM", "01-701-1203", 25.0, "3", "ALPHAGAN", "UNCODED", "", "UNCODED", 1.0, "TABLET", "BID", "OPHTHALMIC", 7.0, "WEEK 6", 42.0, "TREATMENT", "2013-03-16", "2013-01-31", "", 43.0, -2.0, null]
["CDISCPILOT01", "CM", "01-701-1203", 26.0, "4", "PILOSTAT", "UNCODED", "", "UNCODED", 1.0, "TABLET", "BID", "OPHTHALMIC", 7.0, "WEEK 6", 42.0, "TREATMENT", "2013-03-16", "2013-01-31", "", 43.0, -2.0, null]
["CDISCPILOT01", "CM", "01-701-1203", 27.0, "1", "TIMOPTIC", "UNCODED", "", "UNCODED", 1.0, "TABLET", "BID", "OPHTHALMIC", 8.0, "WEEK 8", 56.0, "TREATMENT", "2013-03-30", "1986", "", 57.0, null, null]
["CDISCPILOT01", "CM", "01-701-1203", 28.0, "2", "TRUSOPT", "UNCODED", "", "UNCODED", 1.0, "TABLET", "BID", "OPHTHALMIC", 8.0, "WEEK 8", 56.0, "TREATMENT", "2013-03-30", "1986", "", 57.0, null, null]
["CDISCPILOT01", "CM", "01-701-1203", 29.0, "3", "ALPHAGAN", "UNCODED", "", "UNCODED", 1.0, "TABLET", "BID", "OPHTHALMIC", 8.0, "WEEK 8", 56.0, "TREATMENT", "2013-03-30", "2013-01-31", "", 57.0, -2.0, null]
["CDISCPILOT01", "CM", "01-701-1203", 30.0, "4", "PILOSTAT", "UNCODED", "", "UNCODED", 1.0, "TABLET", "BID", "OPHTHALMIC", 8.0, "WEEK 8", 56.0, "TREATMENT", "2013-03-30", "2013-01-31", "", 57.0, -2.0, null]
["CDISCPILOT01", "CM", "01-701-1203", 31.0, "1", "TIMOPTIC", "UNCODED", "", "UNCODED", 1.0, "TABLET", "BID", "OPHTHALMIC", 9.0, "WEEK 12", 84.0, "TREATMENT", "2013-05-09", "1986", "", 97.0, null, null]
["CDISCPILOT01", "CM", "01-701-1203", 32.0, "2", "TRUSOPT", "UNCODED", "", "UNCODED", 1.0, "TABLET", "BID", "OPHTHALMIC", 9.0, "WEEK 12", 84.0, "TREATMENT", "2013-05-09", "1986", "", 97.0, null, null]
["CDISCPILOT01", "CM", "01-701-1203", 33.0, "3", "ALPHAGAN", "UNCODED", "", "UNCODED", 1.0, "TABLET", "BID", "OPHTHALMIC", 9.0, "WEEK 12", 84.0, "TREATMENT", "2013-05-09", "2013-01-31", "", 97.0, -2.0, null]
["CDISCPILOT01", "CM", "01-701-1203", 34.0, "4", "PILOSTAT", "UNCODED", "", "UNCODED", 1.0, "TABLET", "BID", "OPHTHALMIC", 9.0, "WEEK 12", 84.0, "TREATMENT", "2013-05-09", "2013-01-31", "", 97.0, -2.0, null]
["CDISCPILOT01", "CM", "01-701-1203", 35.0, "1", "TIMOPTIC", "UNCODED", "", "UNCODED", 1.0, "TABLET", "BID", "OPHTHALMIC", 10.0, "WEEK 16", 112.0, "TREATMENT", "2013-05-25", "1986", "", 113.0, null, null]
["CDISCPILOT01", "CM", "01-701-1203", 36.0, "2", "TRUSOPT", "UNCODED", "", "UNCODED", 1.0, "TABLET", "BID", "OPHTHALMIC", 10.0, "WEEK 16", 112.0, "TREATMENT", "2013-05-25", "1986", "", 113.0, null, null]
["CDISCPILOT01", "CM", "01-701-1203", 37.0, "3", "ALPHAGAN", "UNCODED", "", "UNCODED", 1.0, "TABLET", "BID", "OPHTHALMIC", 10.0, "WEEK 16", 112.0, "TREATMENT", "2013-05-25", "2013-01-31", "", 113.0, -2.0, null]
["CDISCPILOT01", "CM", "01-701-1203", 38.0, "4", "PILOSTAT", "UNCODED", "", "UNCODED", 1.0, "TABLET", "BID", "OPHTHALMIC", 10.0, "WEEK 16", 112.0, "TREATMENT", "2013-05-25", "2013-01-31", "", 113.0, -2.0, null]
["CDISCPILOT01", "CM", "01-701-1203", 39.0, "1", "TIMOPTIC", "UNCODED", "", "UNCODED", 1.0, "TABLET", "BID", "OPHTHALMIC", 11.0, "WEEK 20", 140.0, "TREATMENT", "2013-06-22", "1986", "", 141.0, null, null]
["CDISCPILOT01", "CM", "01-701-1203", 40.0, "2", "TRUSOPT", "UNCODED", "", "UNCODED", 1.0, "TABLET", "BID", "OPHTHALMIC", 11.0, "WEEK 20", 140.0, "TREATMENT", "2013-06-22", "1986", "", 141.0, null, null]
["CDISCPILOT01", "CM", "01-701-1203", 41.0, "3", "ALPHAGAN", "UNCODED", "", "UNCODED", 1.0, "TABLET", "BID", "OPHTHALMIC", 11.0, "WEEK 20", 140.0, "TREATMENT", "2013-06-22", "2013-01-31", "", 141.0, -2.0, null]
["CDISCPILOT01", "CM", "01-701-1203", 42.0, "4", "PILOSTAT", "UNCODED", "", "UNCODED", 1.0, "TABLET", "BID", "OPHTHALMIC", 11.0, "WEEK 20", 140.0, "TREATMENT", "2013-06-22", "2013-01-31", "", 141.0, -2.0, null]
["CDISCPILOT01", "CM", "01-701-1203", 43.0, "1", "TIMOPTIC", "UNCODED", "", "UNCODED", 1.0, "TABLET", "BID", "OPHTHALMIC", 12.0, "WEEK 24", 168.0, "TREATMENT", "2013-07-22", "1986", "", 171.0, null, null]
["CDISCPILOT01", "CM", "01-701-1203", 44.0, "2", "TRUSOPT", "UNCODED", "", "UNCODED", 1.0, "TABLET", "BID", "OPHTHALMIC", 12.0, "WEEK 24", 168.0, "TREATMENT", "2013-07-22", "1986", "", 171.0, null, null]
["CDISCPILOT01", "CM", "01-701-1203", 45.0, "3", "ALPHAGAN", "UNCODED", "", "UNCODED", 1.0, "TABLET", "BID", "OPHTHALMIC", 12.0, "WEEK 24", 168.0, "TREATMENT", "2013-07-22", "2013-01-31", "", 171.0, -2.0, null]
["CDISCPILOT01", "CM", "01-701-1203", 46.0, "4", "PILOSTAT", "UNCODED", "", "UNCODED", 1.0, "TABLET", "BID", "OPHTHALMIC", 12.0, "WEEK 24", 168.0, "TREATMENT", "2013-07-22", "2013-01-31", "", 171.0, -2.0, null]
["CDISCPILOT01", "CM", "01-701-1203", 47.0, "5", "MOTRIN", "UNCODED", "", "UNCODED", 1.0, "TABLET", "PRN", "ORAL", 12.0, "WEEK 24", 168.0, "TREATMENT", "2013-07-22", "2013-07-04", "", 171.0, 153.0, null]
["CDISCPILOT01", "CM", "01-701-1203", 48.0, "6", "TYLENOL", "UNCODED", "", "UNCODED", 1.0, "TABLET", "PRN", "ORAL", 12.0, "WEEK 24", 168.0, "TREATMENT", "2013-07-22", "2013-07-04", "", 171.0, 153.0, null]
["CDISCPILOT01", "CM", "01-701-1203", 49.0, "1", "TIMOPTIC", "UNCODED", "", "UNCODED", 1.0, "TABLET", "BID", "OPHTHALMIC", 13.0, "WEEK 26", 182.0, "TREATMENT", "2013-08-03", "1986", "", 183.0, null, null]
["CDISCPILOT01", "CM", "01-701-1203", 50.0, "2", "TRUSOPT", "UNCODED", "", "UNCODED", 1.0, "TABLET", "BID", "OPHTHALMIC", 13.0, "WEEK 26", 182.0, "TREATMENT", "2013-08-03", "1986", "", 183.0, null, null]
["CDISCPILOT01", "CM", "01-701-1203", 51.0, "3", "ALPHAGAN", "UNCODED", "", "UNCODED", 1.0, "TABLET", "BID", "OPHTHALMIC", 13.0, "WEEK 26", 182.0, "TREATMENT", "2013-08-03", "2013-01-31", "", 183.0, -2.0, null]
["CDISCPILOT01", "CM", "01-701-1203", 52.0, "4", "PILOSTAT", "UNCODED", "", "UNCODED", 1.0, "TABLET", "BID", "OPHTHALMIC", 13.0, "WEEK 26", 182.0, "TREATMENT", "2013-08-03", "2013-01-31", "", 183.0, -2.0, null]
["CDISCPILOT01", "CM", "01-701-1203", 53.0, "5", "MOTRIN", "UNCODED", "", "UNCODED", 1.0, "TABLET", "PRN", "ORAL", 13.0, "WEEK 26", 182.0, "TREATMENT", "2013-08-03", "2013-07-04", "", 183.0, 153.0, null]
["CDISCPILOT01", "CM", "01-701-1203", 54.0, "6", "TYLENOL", "UNCODED", "", "UNCODED", 1.0, "TABLET", "PRN", "ORAL", 13.0, "WEEK 26", 182.0, "TREATMENT", "2013-08-03", "2013-07-04", "", 183.0, 153.0, null]
["CDISCPILOT01", "CM", "01-701-1211", 1.0, "1", "DEMEROL", "UNCODED", "", "UNCODED", 50.0, "mg", "PRN", "INTRAVENOUS", 4.0, "WEEK 2", 14.0, "TREATMENT", "2012-11-28", "2012-11-21", "2012-11-21", 14.0, 7.0, 7.0]
["CDISCPILOT01", "CM", "01-701-1211", 2.0, "2", "TYLENOL W/CODEINE NO. 3", "UNCODED", "", "UNCODED", 2.0, "TABLET", "PRN", "ORAL", 4.0, "WEEK 2", 14.0, "TREATMENT", "2012-11-28", "2012-11-21", "2012-11-21", 14.0, 7.0, 7.0]
["CDISCPILOT01", "CM", "01-701-1211", 3.0, "3", "HYDROCORTISONE", "HYDROCORTISONE", "", "SYSTEMIC HORMONAL PREPARATIONS, EXCL.", 1.0, "TABLET", "PRN", "TOPICAL", 5.0, "WEEK 4", 28.0, "TREATMENT", "2012-12-11", "2012-12-08", "", 27.0, 24.0, null]
["CDISCPILOT01", "CM", "01-701-1211", 4.0, "3", "HYDROCORTISONE", "HYDROCORTISONE", "", "SYSTEMIC HORMONAL PREPARATIONS, EXCL.", 1.0, "TABLET", "PRN", "TOPICAL", 6.0, "AMBUL ECG REMOVAL", 30.0, "TREATMENT", "2012-12-13", "2012-12-08", "", 29.0, 24.0, null]
["CDISCPILOT01", "CM", "01-701-1211", 5.0, "3", "HYDROCORTISONE", "HYDROCORTISONE", "", "SYSTEMIC HORMONAL PREPARATIONS, EXCL.", 1.0, "TABLET", "PRN", "TOPICAL", 7.0, "WEEK 6", 42.0, "TREATMENT", "2012-12-25", "2012-12-08", "", 41.0, 24.0, null]
["CDISCPILOT01", "CM", "01-701-1211", 6.0, "3", "HYDROCORTISONE", "HYDROCORTISONE", "", "SYSTEMIC HORMONAL PREPARATIONS, EXCL.", 1.0, "TABLET", "PRN", "TOPICAL", 8.0, "WEEK 8", 56.0, "TREATMENT", "2013-01-08", "2012-12-08", "", 55.0, 24.0, null]
["CDISCPILOT01", "CM", "01-701-1211", 7.0, "4", "LOMOTIL", "UNCODED", "", "UNCODED", 2.5, "mg", "QD", "ORAL", 8.0, "WEEK 8", 56.0, "TREATMENT", "2013-01-08", "2013-01-04", "2013-01-04", 55.0, 51.0, 51.0]
["CDISCPILOT01", "CM", "01-701-1211", 8.0, "5", "MYLANTA", "UNCODED", "", "UNCODED", 1.0, "TABLET", "BID", "ORAL", 8.0, "WEEK 8", 56.0, "TREATMENT", "2013-01-08", "2013-01-05", "", 55.0, 52.0, null]
["CDISCPILOT01", "CM", "01-701-1211", 9.0, "3", "HYDROCORTISONE", "HYDROCORTISONE", "", "SYSTEMIC HORMONAL PREPARATIONS, EXCL.", 1.0, "TABLET", "PRN", "TOPICAL", 9.0, "WEEK 12", 84.0, "TREATMENT", "2013-01-14", "2012-12-08", "", 61.0, 24.0, null]
["CDISCPILOT01", "CM", "01-701-1211", 10.0, "5", "MYLANTA", "UNCODED", "", "UNCODED", 1.0, "TABLET", "BID", "ORAL", 9.0, "WEEK 12", 84.0, "TREATMENT", "2013-01-14", "2013-01-05", "", 61.0, 52.0, null]
["CDISCPILOT01", "CM", "01-701-1234", 1.0, "1", "NIACIN", "UNCODED", "PROPHYLAXIS OR NON-THERAPEUTIC USE", "UNCODED", 1000.0, "mg", "BID", "ORAL", 1.0, "SCREENING 1", -7.0, "SCREENING", "2013-03-20", "2001", "", -10.0, null, null]
["CDISCPILOT01", "CM", "01-701-1234", 2.0, "1", "NIACIN", "UNCODED", "PROPHYLAXIS OR NON-THERAPEUTIC USE", "UNCODED", 1000.0, "mg", "BID", "ORAL", 2.0, "SCREENING 2", -1.0, "SCREENING", "2013-03-28", "2001", "", -2.0, null, null]
["CDISCPILOT01", "CM", "01-701-1234", 3.0, "1", "NIACIN", "UNCODED", "PROPHYLAXIS OR NON-THERAPEUTIC USE", "UNCODED", 1000.0, "mg", "BID", "ORAL", 3.0, "BASELINE", 1.0, "TREATMENT", "2013-03-30", "2001", "", 1.0, null, null]
["CDISCPILOT01", "CM", "01-701-1234", 4.0, "1", "NIACIN", "UNCODED", "PROPHYLAXIS OR NON-THERAPEUTIC USE", "UNCODED", 1000.0, "mg", "BID", "ORAL", 4.0, "WEEK 2", 14.0, "TREATMENT", "2013-04-21", "2001", "", 23.0, null, null]
["CDISCPILOT01", "CM", "01-701-1234", 5.0, "1", "NIACIN", "UNCODED", "PROPHYLAXIS OR NON-THERAPEUTIC USE", "UNCODED", 1000.0, "mg", "BID", "ORAL", 5.0, "WEEK 4", 28.0, "TREATMENT", "2013-04-28", "2001", "", 30.0, null, null]
["CDISCPILOT01", "CM", "01-701-1234", 6.0, "1", "NIACIN", "UNCODED", "PROPHYLAXIS OR NON-THERAPEUTIC USE", "UNCODED", 1000.0, "mg", "BID", "ORAL", 6.0, "AMBUL ECG REMOVAL", 30.0, "TREATMENT", "2013-04-30", "2001", "", 32.0, null, null]
["CDISCPILOT01", "CM", "01-701-1234", 7.0, "1", "NIACIN", "UNCODED", "PROPHYLAXIS OR NON-THERAPEUTIC USE", "UNCODED", 1000.0, "mg", "BID", "ORAL", 7.0, "WEEK 6", 42.0, "TREATMENT", "2013-05-08", "2001", "", 40.0, null, null]
["CDISCPILOT01", "CM", "01-701-1234", 8.0, "1", "NIACIN", "UNCODED", "PROPHYLAXIS OR NON-THERAPEUTIC USE", "UNCODED", 1000.0, "mg", "BID", "ORAL", 8.0, "WEEK 8", 56.0, "TREATMENT", "2013-05-26", "2001", "", 58.0, null, null]
["CDISCPILOT01", "CM", "01-701-1234", 9.0, "1", "NIACIN", "UNCODED", "PROPHYLAXIS OR NON-THERAPEUTIC USE", "UNCODED", 1000.0, "mg", "BID", "ORAL", 9.0, "WEEK 12", 84.0, "TREATMENT", "2013-07-07", "2001", "", 100.0, null, null]
["CDISCPILOT01", "CM", "01-701-1234", 10.0, "1", "NIACIN", "UNCODED", "PROPHYLAXIS OR NON-THERAPEUTIC USE", "UNCODED", 1000.0, "mg", "BID", "ORAL", 10.0, "WEEK 16", 112.0, "TREATMENT", "2013-07-27", "2001", "", 120.0, null, null]
["CDISCPILOT01", "CM", "01-701-1234", 11.0, "1", "NIACIN", "UNCODED", "PROPHYLAXIS OR NON-THERAPEUTIC USE", "UNCODED", 1000.0, "mg", "BID", "ORAL", 11.0, "WEEK 20", 140.0, "TREATMENT", "2013-08-18", "2001", "", 142.0, null, null]
["CDISCPILOT01", "CM", "01-701-1234", 12.0, "1", "NIACIN", "UNCODED", "PROPHYLAXIS OR NON-THERAPEUTIC USE", "UNCODED", 1000.0, "mg", "BID", "ORAL", 12.0, "WEEK 24", 168.0, "TREATMENT", "2013-09-10", "2001", "", 165.0, null, null]
["CDISCPILOT01", "CM", "01-701-1234", 13.0, "1", "NIACIN", "UNCODED", "PROPHYLAXIS OR NON-THERAPEUTIC USE", "UNCODED", 1000.0, "mg", "BID", "ORAL", 13.0, "WEEK 26", 182.0, "TREATMENT", "2013-09-22", "2001", "", 177.0, null, null]
["CDISCPILOT01", "CM", "01-701-1239", 1.0, "1", "ADVIL", "UNCODED", "", "UNCODED", 2.0, "TABLET", "PRN", "ORAL", 1.0, "SCREENING 1", -7.0, "SCREENING", "2013-12-28", "2007", "", -14.0, null, null]
["CDISCPILOT01", "CM", "01-701-1239", 2.0, "2", "MOTRIN", "UNCODED", "", "UNCODED", 2.0, "TABLET", "PRN", "ORAL", 1.0, "SCREENING 1", -7.0, "SCREENING", "2013-12-28", "2007", "", -14.0, null, null]
["CDISCPILOT01", "CM", "01-701-1239", 3.0, "1", "ADVIL", "UNCODED", "", "UNCODED", 2.0, "TABLET", "PRN", "ORAL", 2.0, "SCREENING 2", -1.0, "SCREENING", "2014-01-09", "2007", "", -2.0, null, null]
["CDISCPILOT01", "CM", "01-701-1239", 4.0, "2", "MOTRIN", "UNCODED", "", "UNCODED", 2.0, "TABLET", "PRN", "ORAL", 2.0, "SCREENING 2", -1.0, "SCREENING", "2014-01-09", "2007", "", -2.0, null, null]
["CDISCPILOT01", "CM", "01-701-1239", 5.0, "1", "ADVIL", "UNCODED", "", "UNCODED", 2.0, "TABLET", "PRN", "ORAL", 3.0, "BASELINE", 1.0, "TREATMENT", "2014-01-11", "2007", "", 1.0, null, null]
["CDISCPILOT01", "CM", "01-701-1239", 6.0, "2", "MOTRIN", "UNCODED", "", "UNCODED", 2.0, "TABLET", "PRN", "ORAL", 3.0, "BASELINE", 1.0, "TREATMENT", "2014-01-11", "2007", "", 1.0, null, null]
["CDISCPILOT01", "CM", "01-701-1239", 7.0, "1", "ADVIL", "UNCODED", "", "UNCODED", 2.0, "TABLET", "PRN", "ORAL", 4.0, "WEEK 2", 14.0, "TREATMENT", "2014-01-25", "2007", "", 15.0, null, null]
["CDISCPILOT01", "CM", "01-701-1239", 8.0, "2", "MOTRIN", "UNCODED", "", "UNCODED", 2.0, "TABLET", "PRN", "ORAL", 4.0, "WEEK 2", 14.0, "TREATMENT", "2014-01-25", "2007", "", 15.0, null, null]
["CDISCPILOT01", "CM", "01-701-1239", 9.0, "1", "ADVIL", "UNCODED", "", "UNCODED", 2.0, "TABLET", "PRN", "ORAL", 5.0, "WEEK 4", 28.0, "TREATMENT", "2014-02-08", "2007", "", 29.0, null, null]
["CDISCPILOT01", "CM", "01-701-1239", 10.0, "2", "MOTRIN", "UNCODED", "", "UNCODED", 2.0, "TABLET", "PRN", "ORAL", 5.0, "WEEK 4", 28.0, "TREATMENT", "2014-02-08", "2007", "", 29.0, null, null]
["CDISCPILOT01", "CM", "01-701-1239", 11.0, "3", "DIABETA", "UNCODED", "", "UNCODED", 2.5, "mg", "QD", "ORAL", 5.0, "WEEK 4", 28.0, "TREATMENT", "2014-02-08", "2014-02-04", "", 29.0, 25.0, null]
["CDISCPILOT01", "CM", "01-701-1239", 12.0, "1", "ADVIL", "UNCODED", "", "UNCODED", 2.0, "TABLET", "PRN", "ORAL", 6.0, "AMBUL ECG REMOVAL", 30.0, "TREATMENT", "2014-02-10", "2007", "", 31.0, null, null]
["CDISCPILOT01", "CM", "01-701-1239", 13.0, "2", "MOTRIN", "UNCODED", "", "UNCODED", 2.0, "TABLET", "PRN", "ORAL", 6.0, "AMBUL ECG REMOVAL", 30.0, "TREATMENT", "2014-02-10", "2007", "", 31.0, null, null]
["CDISCPILOT01", "CM", "01-701-1239", 14.0, "3", "DIABETA", "UNCODED", "", "UNCODED", 2.5, "mg", "QD", "ORAL", 6.0, "AMBUL ECG REMOVAL", 30.0, "TREATMENT", "2014-02-10", "2014-02-04", "", 31.0, 25.0, null]
["CDISCPILOT01", "CM", "01-701-1239", 15.0, "1", "ADVIL", "UNCODED", "", "UNCODED", 2.0, "TABLET", "PRN", "ORAL", 7.0, "WEEK 6", 42.0, "TREATMENT", "2014-02-19", "2007", "", 40.0, null, null]
["CDISCPILOT01", "CM", "01-701-1239", 16.0, "2", "MOTRIN", "UNCODED", "", "UNCODED", 2.0, "TABLET", "PRN", "ORAL", 7.0, "WEEK 6", 42.0, "TREATMENT", "2014-02-19", "2007", "", 40.0, null, null]
["CDISCPILOT01", "CM", "01-701-1239", 17.0, "3", "DIABETA", "UNCODED", "", "UNCODED", 2.5, "mg", "QD", "ORAL", 7.0, "WEEK 6", 42.0, "TREATMENT", "2014-02-19", "2014-02-04", "", 40.0, 25.0, null]
["CDISCPILOT01", "CM", "01-701-1239", 18.0, "1", "ADVIL", "UNCODED", "", "UNCODED", 2.0, "TABLET", "PRN", "ORAL", 8.0, "WEEK 8", 56.0, "TREATMENT", "2014-03-06", "2007", "", 55.0, null, null]
["CDISCPILOT01", "CM", "01-701-1239", 19.0, "2", "MOTRIN", "UNCODED", "", "UNCODED", 2.0, "TABLET", "PRN", "ORAL", 8.0, "WEEK 8", 56.0, "TREATMENT", "2014-03-06", "2007", "", 55.0, null, null]
["CDISCPILOT01", "CM", "01-701-1239", 20.0, "3", "DIABETA", "UNCODED", "", "UNCODED", 2.5, "mg", "QD", "ORAL", 8.0, "WEEK 8", 56.0, "TREATMENT", "2014-03-06", "2014-02-04", "", 55.0, 25.0, null]
["CDISCPILOT01", "CM", "01-701-1239", 21.0, "1", "ADVIL", "UNCODED", "", "UNCODED", 2.0, "TABLET", "PRN", "ORAL", 9.0, "WEEK 12", 84.0, "TREATMENT", "2014-04-02", "2007", "", 82.0, null, null]
["CDISCPILOT01", "CM", "01-701-1239", 22.0, "2", "MOTRIN", "UNCODED", "", "UNCODED", 2.0, "TABLET", "PRN", "ORAL", 9.0, "WEEK 12", 84.0, "TREATMENT", "2014-04-02", "2007", "", 82.0, null, null]
["CDISCPILOT01", "CM", "01-701-1239", 23.0, "3", "DIABETA", "UNCODED", "", "UNCODED", 2.5, "mg", "QD", "ORAL", 9.0, "WEEK 12", 84.0, "TREATMENT", "2014-04-02", "2014-02-04", "", 82.0, 25.0, null]
["CDISCPILOT01", "CM", "01-701-1239", 24.0, "1", "ADVIL", "UNCODED", "", "UNCODED", 2.0, "TABLET", "PRN", "ORAL", 10.0, "WEEK 16", 112.0, "TREATMENT", "2014-05-02", "2007", "", 112.0, null, null]
["CDISCPILOT01", "CM", "01-701-1239", 25.0, "2", "MOTRIN", "UNCODED", "", "UNCODED", 2.0, "TABLET", "PRN", "ORAL", 10.0, "WEEK 16", 112.0, "TREATMENT", "2014-05-02", "2007", "", 112.0, null, null]
["CDISCPILOT01", "CM", "01-701-1239", 26.0, "3", "DIABETA", "UNCODED", "", "UNCODED", 2.5, "mg", "QD", "ORAL", 10.0, "WEEK 16", 112.0, "TREATMENT", "2014-05-02", "2014-02-04", "", 112.0, 25.0, null]
["CDISCPILOT01", "CM", "01-701-1239", 27.0, "1", "ADVIL", "UNCODED", "", "UNCODED", 2.0, "TABLET", "PRN", "ORAL", 11.0, "WEEK 20", 140.0, "TREATMENT", "2014-05-28", "2007", "", 138.0, null, null]
["CDISCPILOT01", "CM", "01-701-1239", 28.0, "2", "MOTRIN", "UNCODED", "", "UNCODED", 2.0, "TABLET", "PRN", "ORAL", 11.0, "WEEK 20", 140.0, "TREATMENT", "2014-05-28", "2007", "", 138.0, null, null]
["CDISCPILOT01", "CM", "01-701-1239", 29.0, "3", "DIABETA", "UNCODED", "", "UNCODED", 2.5, "mg", "QD", "ORAL", 11.0, "WEEK 20", 140.0, "TREATMENT", "2014-05-28", "2014-02-04", "", 138.0, 25.0, null]
["CDISCPILOT01", "CM", "01-701-1239", 30.0, "1", "ADVIL", "UNCODED", "", "UNCODED", 2.0, "TABLET", "PRN", "ORAL", 12.0, "WEEK 24", 168.0, "TREATMENT", "2014-06-27", "2007", "", 168.0, null, null]
["CDISCPILOT01", "CM", "01-701-1239", 31.0, "2", "MOTRIN", "UNCODED", "", "UNCODED", 2.0, "TABLET", "PRN", "ORAL", 12.0, "WEEK 24", 168.0, "TREATMENT", "2014-06-27", "2007", "", 168.0, null, null]
["CDISCPILOT01", "CM", "01-701-1239", 32.0, "3", "DIABETA", "UNCODED", "", "UNCODED", 2.5, "mg", "QD", "ORAL", 12.0, "WEEK 24", 168.0, "TREATMENT", "2014-06-27", "2014-02-04", "", 168.0, 25.0, null]
["CDISCPILOT01", "CM", "01-701-1239", 33.0, "1", "ADVIL", "UNCODED", "", "UNCODED", 2.0, "TABLET", "PRN", "ORAL", 13.0, "WEEK 26", 182.0, "TREATMENT", "2014-07-11", "2007", "", 182.0, null, null]
["CDISCPILOT01", "CM", "01-701-1239", 34.0, "2", "MOTRIN", "UNCODED", "", "UNCODED", 2.0, "TABLET", "PRN", "ORAL", 13.0, "WEEK 26", 182.0, "TREATMENT", "2014-07-11", "2007", "", 182.0, null, null]
["CDISCPILOT01", "CM", "01-701-1239", 35.0, "3", "DIABETA", "UNCODED", "", "UNCODED", 2.5, "mg", "QD", "ORAL", 13.0, "WEEK 26", 182.0, "TREATMENT", "2014-07-11", "2014-02-04", "", 182.0, 25.0, null]
["CDISCPILOT01", "CM", "01-701-1275", 1.0, "1", "TYLENOL", "UNCODED", "", "UNCODED", 325.0, "mg", "PRN", "ORAL", 1.0, "SCREENING 1", -7.0, "SCREENING", "2014-01-25", "1997", "", -13.0, null, null]
["CDISCPILOT01", "CM", "01-701-1275", 2.0, "1", "TYLENOL", "UNCODED", "", "UNCODED", 325.0, "mg", "PRN", "ORAL", 2.0, "SCREENING 2", -1.0, "SCREENING", "2014-02-05", "1997", "", -2.0, null, null]
["CDISCPILOT01", "CM", "01-701-1275", 3.0, "1", "TYLENOL", "UNCODED", "", "UNCODED", 325.0, "mg", "PRN", "ORAL", 3.0, "BASELINE", 1.0, "TREATMENT", "2014-02-07", "1997", "", 1.0, null, null]
["CDISCPILOT01", "CM", "01-701-1275", 4.0, "1", "TYLENOL", "UNCODED", "", "UNCODED", 325.0, "mg", "PRN", "ORAL", 4.0, "WEEK 2", 14.0, "TREATMENT", "2014-02-22", "1997", "", 16.0, null, null]
["CDISCPILOT01", "CM", "01-701-1275", 5.0, "1", "TYLENOL", "UNCODED", "", "UNCODED", 325.0, "mg", "PRN", "ORAL", 5.0, "WEEK 4", 28.0, "TREATMENT", "2014-03-07", "1997", "", 29.0, null, null]
["CDISCPILOT01", "CM", "01-701-1275", 6.0, "1", "TYLENOL", "UNCODED", "", "UNCODED", 325.0, "mg", "PRN", "ORAL", 6.0, "AMBUL ECG REMOVAL", 30.0, "TREATMENT", "2014-03-08", "1997", "", 30.0, null, null]
["CDISCPILOT01", "CM", "01-701-1275", 7.0, "1", "TYLENOL", "UNCODED", "", "UNCODED", 325.0, "mg", "PRN", "ORAL", 7.0, "WEEK 6", 42.0, "TREATMENT", "2014-03-22", "1997", "", 44.0, null, null]
["CDISCPILOT01", "CM", "01-701-1275", 8.0, "2", "VITAMIN C", "UNCODED", "", "UNCODED", 500.0, "mg", "QD", "ORAL", 7.0, "WEEK 6", 42.0, "TREATMENT", "2014-03-22", "2014-03-12", "", 44.0, 34.0, null]
["CDISCPILOT01", "CM", "01-701-1275", 9.0, "1", "TYLENOL", "UNCODED", "", "UNCODED", 325.0, "mg", "PRN", "ORAL", 8.0, "WEEK 8", 56.0, "TREATMENT", "2014-04-05", "1997", "", 58.0, null, null]
["CDISCPILOT01", "CM", "01-701-1275", 10.0, "2", "VITAMIN C", "UNCODED", "", "UNCODED", 500.0, "mg", "QD", "ORAL", 8.0, "WEEK 8", 56.0, "TREATMENT", "2014-04-05", "2014-03-12", "", 58.0, 34.0, null]
["CDISCPILOT01", "CM", "01-701-1275", 11.0, "1", "TYLENOL", "UNCODED", "", "UNCODED", 325.0, "mg", "PRN", "ORAL", 9.0, "WEEK 12", 84.0, "TREATMENT", "2014-05-03", "1997", "", 86.0, null, null]
["CDISCPILOT01", "CM", "01-701-1275", 12.0, "2", "VITAMIN C", "UNCODED", "", "UNCODED", 500.0, "mg", "QD", "ORAL", 9.0, "WEEK 12", 84.0, "TREATMENT", "2014-05-03", "2014-03-12", "", 86.0, 34.0, null]
["CDISCPILOT01", "CM", "01-701-1275", 13.0, "1", "TYLENOL", "UNCODED", "", "UNCODED", 325.0, "mg", "PRN", "ORAL", 10.0, "WEEK 16", 112.0, "TREATMENT", "2014-06-14", "1997", "", 128.0, null, null]
["CDISCPILOT01", "CM", "01-701-1275", 14.0, "2", "VITAMIN C", "UNCODED", "", "UNCODED", 500.0, "mg", "QD", "ORAL", 10.0, "WEEK 16", 112.0, "TREATMENT", "2014-06-14", "2014-03-12", "", 128.0, 34.0, null]
["CDISCPILOT01", "CM", "01-701-1287", 1.0, "1", "MULTIVITAMIN", "UNCODED", "PROPHYLAXIS OR NON-THERAPEUTIC USE", "UNCODED", 1.0, "TABLET", "QD", "ORAL", 1.0, "SCREENING 1", -7.0, "SCREENING", "2014-01-17", "2001-10", "", -8.0, null, null]
["CDISCPILOT01", "CM", "01-701-1287", 2.0, "2", "PREMARIN", "ESTROGENS CONJUGATED", "PROPHYLAXIS OR NON-THERAPEUTIC USE", "GENITO URINARY SYSTEM AND SEX HORMONES", 0.625, "mg", "QD", "ORAL", 1.0, "SCREENING 1", -7.0, "SCREENING", "2014-01-17", "2013-06-28", "", -8.0, -211.0, null]
["CDISCPILOT01", "CM", "01-701-1287", 3.0, "1", "MULTIVITAMIN", "UNCODED", "PROPHYLAXIS OR NON-THERAPEUTIC USE", "UNCODED", 1.0, "TABLET", "QD", "ORAL", 2.0, "SCREENING 2", -1.0, "SCREENING", "2014-01-23", "2001-10", "", -2.0, null, null]
["CDISCPILOT01", "CM", "01-701-1287", 4.0, "2", "PREMARIN", "ESTROGENS CONJUGATED", "PROPHYLAXIS OR NON-THERAPEUTIC USE", "GENITO URINARY SYSTEM AND SEX HORMONES", 0.625, "mg", "QD", "ORAL", 2.0, "SCREENING 2", -1.0, "SCREENING", "2014-01-23", "2013-06-28", "", -2.0, -211.0, null]
["CDISCPILOT01", "CM", "01-701-1287", 5.0, "1", "MULTIVITAMIN", "UNCODED", "PROPHYLAXIS OR NON-THERAPEUTIC USE", "UNCODED", 1.0, "TABLET", "QD", "ORAL", 3.0, "BASELINE", 1.0, "TREATMENT", "2014-01-25", "2001-10", "", 1.0, null, null]
["CDISCPILOT01", "CM", "01-701-1287", 6.0, "2", "PREMARIN", "ESTROGENS CONJUGATED", "PROPHYLAXIS OR NON-THERAPEUTIC USE", "GENITO URINARY SYSTEM AND SEX HORMONES", 0.625, "mg", "QD", "ORAL", 3.0, "BASELINE", 1.0, "TREATMENT", "2014-01-25", "2013-06-28", "", 1.0, -211.0, null]
["CDISCPILOT01", "CM", "01-701-1287", 7.0, "1", "MULTIVITAMIN", "UNCODED", "PROPHYLAXIS OR NON-THERAPEUTIC USE", "UNCODED", 1.0, "TABLET", "QD", "ORAL", 4.0, "WEEK 2", 14.0, "TREATMENT", "2014-02-11", "2001-10", "", 18.0, null, null]
["CDISCPILOT01", "CM", "01-701-1287", 8.0, "2", "PREMARIN", "ESTROGENS CONJUGATED", "PROPHYLAXIS OR NON-THERAPEUTIC USE", "GENITO URINARY SYSTEM AND SEX HORMONES", 0.625, "mg", "QD", "ORAL", 4.0, "WEEK 2", 14.0, "TREATMENT", "2014-02-11", "2013-06-28", "", 18.0, -211.0, null]
["CDISCPILOT01", "CM", "01-701-1287", 9.0, "1", "MULTIVITAMIN", "UNCODED", "PROPHYLAXIS OR NON-THERAPEUTIC USE", "UNCODED", 1.0, "TABLET", "QD", "ORAL", 5.0, "WEEK 4", 28.0, "TREATMENT", "2014-02-20", "2001-10", "", 27.0, null, null]
["CDISCPILOT01", "CM", "01-701-1287", 10.0, "2", "PREMARIN", "ESTROGENS CONJUGATED", "PROPHYLAXIS OR NON-THERAPEUTIC USE", "GENITO URINARY SYSTEM AND SEX HORMONES", 0.625, "mg", "QD", "ORAL", 5.0, "WEEK 4", 28.0, "TREATMENT", "2014-02-20", "2013-06-28", "", 27.0, -211.0, null]
["CDISCPILOT01", "CM", "01-701-1287", 11.0, "1", "MULTIVITAMIN", "UNCODED", "PROPHYLAXIS OR NON-THERAPEUTIC USE", "UNCODED", 1.0, "TABLET", "QD", "ORAL", 6.0, "AMBUL ECG REMOVAL", 30.0, "TREATMENT", "2014-02-22", "2001-10", "", 29.0, null, null]
["CDISCPILOT01", "CM", "01-701-1287", 12.0, "2", "PREMARIN", "ESTROGENS CONJUGATED", "PROPHYLAXIS OR NON-THERAPEUTIC USE", "GENITO URINARY SYSTEM AND SEX HORMONES", 0.625, "mg", "QD", "ORAL", 6.0, "AMBUL ECG REMOVAL", 30.0, "TREATMENT", "2014-02-22", "2013-06-28", "", 29.0, -211.0, null]
["CDISCPILOT01", "CM", "01-701-1287", 13.0, "1", "MULTIVITAMIN", "UNCODED", "PROPHYLAXIS OR NON-THERAPEUTIC USE", "UNCODED", 1.0, "TABLET", "QD", "ORAL", 7.0, "WEEK 6", 42.0, "TREATMENT", "2014-03-06", "2001-10", "", 41.0, null, null]
["CDISCPILOT01", "CM", "01-701-1287", 14.0, "2", "PREMARIN", "ESTROGENS CONJUGATED", "PROPHYLAXIS OR NON-THERAPEUTIC USE", "GENITO URINARY SYSTEM AND SEX HORMONES", 0.625, "mg", "QD", "ORAL", 7.0, "WEEK 6", 42.0, "TREATMENT", "2014-03-06", "2013-06-28", "", 41.0, -211.0, null]
["CDISCPILOT01", "CM", "01-701-1287", 15.0, "1", "MULTIVITAMIN", "UNCODED", "PROPHYLAXIS OR NON-THERAPEUTIC USE", "UNCODED", 1.0, "TABLET", "QD", "ORAL", 8.0, "WEEK 8", 56.0, "TREATMENT", "2014-03-21", "2001-10", "", 56.0, null, null]
["CDISCPILOT01", "CM", "01-701-1287", 16.0, "2", "PREMARIN", "ESTROGENS CONJUGATED", "PROPHYLAXIS OR NON-THERAPEUTIC USE", "GENITO URINARY SYSTEM AND SEX HORMONES", 0.625, "mg", "QD", "ORAL", 8.0, "WEEK 8", 56.0, "TREATMENT", "2014-03-21", "2013-06-28", "", 56.0, -211.0, null]
["CDISCPILOT01", "CM", "01-701-1287", 17.0, "3", "ALOE VERA", "UNCODED", "", "UNCODED", 1.0, "TABLET", "PRN", "TOPICAL", 8.0, "WEEK 8", 56.0, "TREATMENT", "2014-03-21", "2014-03-09", "", 56.0, 44.0, null]
["CDISCPILOT01", "CM", "01-701-1287", 18.0, "1", "MULTIVITAMIN", "UNCODED", "PROPHYLAXIS OR NON-THERAPEUTIC USE", "UNCODED", 1.0, "TABLET", "QD", "ORAL", 9.0, "WEEK 12", 84.0, "TREATMENT", "2014-04-17", "2001-10", "", 83.0, null, null]
["CDISCPILOT01", "CM", "01-701-1287", 19.0, "2", "PREMARIN", "ESTROGENS CONJUGATED", "PROPHYLAXIS OR NON-THERAPEUTIC USE", "GENITO URINARY SYSTEM AND SEX HORMONES", 0.625, "mg", "QD", "ORAL", 9.0, "WEEK 12", 84.0, "TREATMENT", "2014-04-17", "2013-06-28", "", 83.0, -211.0, null]
["CDISCPILOT01", "CM", "01-701-1287", 20.0, "3", "ALOE VERA", "UNCODED", "", "UNCODED", 1.0, "TABLET", "PRN", "TOPICAL", 9.0, "WEEK 12", 84.0, "TREATMENT", "2014-04-17", "2014-03-09", "", 83.0, 44.0, null]
["CDISCPILOT01", "CM", "01-701-1287", 21.0, "1", "MULTIVITAMIN", "UNCODED", "PROPHYLAXIS OR NON-THERAPEUTIC USE", "UNCODED", 1.0, "TABLET", "QD", "ORAL", 10.0, "WEEK 16", 112.0, "TREATMENT", "2014-05-15", "2001-10", "", 111.0, null, null]
["CDISCPILOT01", "CM", "01-701-1287", 22.0, "2", "PREMARIN", "ESTROGENS CONJUGATED", "PROPHYLAXIS OR NON-THERAPEUTIC USE", "GENITO URINARY SYSTEM AND SEX HORMONES", 0.625, "mg", "QD", "ORAL", 10.0, "WEEK 16", 112.0, "TREATMENT", "2014-05-15", "2013-06-28", "", 111.0, -211.0, null]
["CDISCPILOT01", "CM", "01-701-1287", 23.0, "3", "ALOE VERA", "UNCODED", "", "UNCODED", 1.0, "TABLET", "PRN", "TOPICAL", 10.0, "WEEK 16", 112.0, "TREATMENT", "2014-05-15", "2014-03-09", "", 111.0, 44.0, null]
["CDISCPILOT01", "CM", "01-701-1287", 24.0, "4", "HYDROCORTISONE", "HYDROCORTISONE", "", "SYSTEMIC HORMONAL PREPARATIONS, EXCL.", 2.0, "TABLET", "QD", "TOPICAL", 10.0, "WEEK 16", 112.0, "TREATMENT", "2014-05-15", "2014-04-18", "", 111.0, 84.0, null]
["CDISCPILOT01", "CM", "01-701-1287", 25.0, "1", "MULTIVITAMIN", "UNCODED", "PROPHYLAXIS OR NON-THERAPEUTIC USE", "UNCODED", 1.0, "TABLET", "QD", "ORAL", 11.0, "WEEK 20", 140.0, "TREATMENT", "2014-06-12", "2001-10", "", 139.0, null, null]
["CDISCPILOT01", "CM", "01-701-1287", 26.0, "2", "PREMARIN", "ESTROGENS CONJUGATED", "PROPHYLAXIS OR NON-THERAPEUTIC USE", "GENITO URINARY SYSTEM AND SEX HORMONES", 0.625, "mg", "QD", "ORAL", 11.0, "WEEK 20", 140.0, "TREATMENT", "2014-06-12", "2013-06-28", "", 139.0, -211.0, null]
["CDISCPILOT01", "CM", "01-701-1287", 27.0, "3", "ALOE VERA", "UNCODED", "", "UNCODED", 1.0, "TABLET", "PRN", "TOPICAL", 11.0, "WEEK 20", 140.0, "TREATMENT", "2014-06-12", "2014-03-09", "", 139.0, 44.0, null]
["CDISCPILOT01", "CM", "01-701-1287", 28.0, "4", "HYDROCORTISONE", "HYDROCORTISONE", "", "SYSTEMIC HORMONAL PREPARATIONS, EXCL.", 2.0, "TABLET", "QD", "TOPICAL", 11.0, "WEEK 20", 140.0, "TREATMENT", "2014-06-12", "2014-04-18", "", 139.0, 84.0, null]
["CDISCPILOT01", "CM", "01-701-1287", 29.0, "1", "MULTIVITAMIN", "UNCODED", "PROPHYLAXIS OR NON-THERAPEUTIC USE", "UNCODED", 1.0, "TABLET", "QD", "ORAL", 12.0, "WEEK 24", 168.0, "TREATMENT", "2014-07-12", "2001-10", "", 169.0, null, null]
["CDISCPILOT01", "CM", "01-701-1287", 30.0, "2", "PREMARIN", "ESTROGENS CONJUGATED", "PROPHYLAXIS OR NON-THERAPEUTIC USE", "GENITO URINARY SYSTEM AND SEX HORMONES", 0.625, "mg", "QD", "ORAL", 12.0, "WEEK 24", 168.0, "TREATMENT", "2014-07-12", "2013-06-28", "", 169.0, -211.0, null]
["CDISCPILOT01", "CM", "01-701-1287", 31.0, "3", "ALOE VERA", "UNCODED", "", "UNCODED", 1.0, "TABLET", "PRN", "TOPICAL", 12.0, "WEEK 24", 168.0, "TREATMENT", "2014-07-12", "2014-03-09", "", 169.0, 44.0, null]
["CDISCPILOT01", "CM", "01-701-1287", 32.0, "4", "HYDROCORTISONE", "HYDROCORTISONE", "", "SYSTEMIC HORMONAL PREPARATIONS, EXCL.", 2.0, "TABLET", "QD", "TOPICAL", 12.0, "WEEK 24", 168.0, "TREATMENT", "2014-07-12", "2014-04-18", "", 169.0, 84.0, null]
["CDISCPILOT01", "CM", "01-701-1287", 33.0, "1", "MULTIVITAMIN", "UNCODED", "PROPHYLAXIS OR NON-THERAPEUTIC USE", "UNCODED", 1.0, "TABLET", "QD", "ORAL", 13.0, "WEEK 26", 182.0, "TREATMENT", "2014-07-26", "2001-10", "", 183.0, null, null]
["CDISCPILOT01", "CM", "01-701-1287", 34.0, "2", "PREMARIN", "ESTROGENS CONJUGATED", "PROPHYLAXIS OR NON-THERAPEUTIC USE", "GENITO URINARY SYSTEM AND SEX HORMONES", 0.625, "mg", "QD", "ORAL", 13.0, "WEEK 26", 182.0, "TREATMENT", "2014-07-26", "2013-06-28", "", 183.0, -211.0, null]
["CDISCPILOT01", "CM", "01-701-1287", 35.0, "3", "ALOE VERA", "UNCODED", "", "UNCODED", 1.0, "TABLET", "PRN", "TOPICAL", 13.0, "WEEK 26", 182.0, "TREATMENT", "2014-07-26", "2014-03-09", "", 183.0, 44.0, null]
["CDISCPILOT01", "CM", "01-701-1287", 36.0, "4", "HYDROCORTISONE", "HYDROCORTISONE", "", "SYSTEMIC HORMONAL PREPARATIONS, EXCL.", 2.0, "TABLET", "QD", "TOPICAL", 13.0, "WEEK 26", 182.0, "TREATMENT", "2014-07-26", "2014-04-18", "", 183.0, 84.0, null]
["CDISCPILOT01", "CM", "01-701-1294", 1.0, "1", "HISMANAL", "UNCODED", "", "UNCODED", 10.0, "mg", "PRN", "ORAL", 1.0, "SCREENING 1", -7.0, "SCREENING", "2013-03-17", "2012-03", "", -7.0, null, null]
["CDISCPILOT01", "CM", "01-701-1294", 2.0, "3", "NASACORT", "UNCODED", "", "UNCODED", 1.0, "TABLET", "QD", "RESPIRATORY (INHALATION)", 1.0, "SCREENING 1", -7.0, "SCREENING", "2013-03-17", "2012-03", "", -7.0, null, null]
["CDISCPILOT01", "CM", "01-701-1294", 3.0, "2", "MULTIVITAMIN", "UNCODED", "PROPHYLAXIS OR NON-THERAPEUTIC USE", "UNCODED", 3.0, "mg", "QD", "ORAL", 1.0, "SCREENING 1", -7.0, "SCREENING", "2013-03-17", "2012-12", "", -7.0, null, null]
["CDISCPILOT01", "CM", "01-701-1294", 4.0, "1", "HISMANAL", "UNCODED", "", "UNCODED", 10.0, "mg", "PRN", "ORAL", 2.0, "SCREENING 2", -1.0, "SCREENING", "2013-03-22", "2012-03", "", -2.0, null, null]
["CDISCPILOT01", "CM", "01-701-1294", 5.0, "3", "NASACORT", "UNCODED", "", "UNCODED", 1.0, "TABLET", "QD", "RESPIRATORY (INHALATION)", 2.0, "SCREENING 2", -1.0, "SCREENING", "2013-03-22", "2012-03", "", -2.0, null, null]
["CDISCPILOT01", "CM", "01-701-1294", 6.0, "2", "MULTIVITAMIN", "UNCODED", "PROPHYLAXIS OR NON-THERAPEUTIC USE", "UNCODED", 3.0, "mg", "QD", "ORAL", 2.0, "SCREENING 2", -1.0, "SCREENING", "2013-03-22", "2012-12", "", -2.0, null, null]
["CDISCPILOT01", "CM", "01-701-1294", 7.0, "1", "HISMANAL", "UNCODED", "", "UNCODED", 10.0, "mg", "PRN", "ORAL", 3.0, "BASELINE", 1.0, "TREATMENT", "2013-03-24", "2012-03", "", 1.0, null, null]
["CDISCPILOT01", "CM", "01-701-1294", 8.0, "3", "NASACORT", "UNCODED", "", "UNCODED", 1.0, "TABLET", "QD", "RESPIRATORY (INHALATION)", 3.0, "BASELINE", 1.0, "TREATMENT", "2013-03-24", "2012-03", "", 1.0, null, null]
["CDISCPILOT01", "CM", "01-701-1294", 9.0, "2", "MULTIVITAMIN", "UNCODED", "PROPHYLAXIS OR NON-THERAPEUTIC USE", "UNCODED", 3.0, "mg", "QD", "ORAL", 3.0, "BASELINE", 1.0, "TREATMENT", "2013-03-24", "2012-12", "", 1.0, null, null]
["CDISCPILOT01", "CM", "01-701-1294", 10.0, "1", "HISMANAL", "UNCODED", "", "UNCODED", 10.0, "mg", "PRN", "ORAL", 4.0, "WEEK 2", 14.0, "TREATMENT", "2013-04-10", "2012-03", "", 18.0, null, null]
["CDISCPILOT01", "CM", "01-701-1294", 11.0, "3", "NASACORT", "UNCODED", "", "UNCODED", 1.0, "TABLET", "QD", "RESPIRATORY (INHALATION)", 4.0, "WEEK 2", 14.0, "TREATMENT", "2013-04-10", "2012-03", "", 18.0, null, null]
["CDISCPILOT01", "CM", "01-701-1294", 12.0, "2", "MULTIVITAMIN", "UNCODED", "PROPHYLAXIS OR NON-THERAPEUTIC USE", "UNCODED", 3.0, "mg", "QD", "ORAL", 4.0, "WEEK 2", 14.0, "TREATMENT", "2013-04-10", "2012-12", "", 18.0, null, null]
["CDISCPILOT01", "CM", "01-701-1294", 13.0, "1", "HISMANAL", "UNCODED", "", "UNCODED", 10.0, "mg", "PRN", "ORAL", 5.0, "WEEK 4", 28.0, "TREATMENT", "2013-04-24", "2012-03", "", 32.0, null, null]
["CDISCPILOT01", "CM", "01-701-1294", 14.0, "3", "NASACORT", "UNCODED", "", "UNCODED", 1.0, "TABLET", "QD", "RESPIRATORY (INHALATION)", 5.0, "WEEK 4", 28.0, "TREATMENT", "2013-04-24", "2012-03", "", 32.0, null, null]
["CDISCPILOT01", "CM", "01-701-1294", 15.0, "2", "MULTIVITAMIN", "UNCODED", "PROPHYLAXIS OR NON-THERAPEUTIC USE", "UNCODED", 3.0, "mg", "QD", "ORAL", 5.0, "WEEK 4", 28.0, "TREATMENT", "2013-04-24", "2012-12", "", 32.0, null, null]
["CDISCPILOT01", "CM", "01-701-1294", 16.0, "1", "HISMANAL", "UNCODED", "", "UNCODED", 10.0, "mg", "PRN", "ORAL", 6.0, "AMBUL ECG REMOVAL", 30.0, "TREATMENT", "2013-04-26", "2012-03", "", 34.0, null, null]
["CDISCPILOT01", "CM", "01-701-1294", 17.0, "3", "NASACORT", "UNCODED", "", "UNCODED", 1.0, "TABLET", "QD", "RESPIRATORY (INHALATION)", 6.0, "AMBUL ECG REMOVAL", 30.0, "TREATMENT", "2013-04-26", "2012-03", "", 34.0, null, null]
["CDISCPILOT01", "CM", "01-701-1294", 18.0, "2", "MULTIVITAMIN", "UNCODED", "PROPHYLAXIS OR NON-THERAPEUTIC USE", "UNCODED", 3.0, "mg", "QD", "ORAL", 6.0, "AMBUL ECG REMOVAL", 30.0, "TREATMENT", "2013-04-26", "2012-12", "", 34.0, null, null]
["CDISCPILOT01", "CM", "01-701-1294", 19.0, "1", "HISMANAL", "UNCODED", "", "UNCODED", 10.0, "mg", "PRN", "ORAL", 7.0, "WEEK 6", 42.0, "TREATMENT", "2013-05-08", "2012-03", "", 46.0, null, null]
["CDISCPILOT01", "CM", "01-701-1294", 20.0, "3", "NASACORT", "UNCODED", "", "UNCODED", 1.0, "TABLET", "QD", "RESPIRATORY (INHALATION)", 7.0, "WEEK 6", 42.0, "TREATMENT", "2013-05-08", "2012-03", "", 46.0, null, null]
["CDISCPILOT01", "CM", "01-701-1294", 21.0, "2", "MULTIVITAMIN", "UNCODED", "PROPHYLAXIS OR NON-THERAPEUTIC USE", "UNCODED", 3.0, "mg", "QD", "ORAL", 7.0, "WEEK 6", 42.0, "TREATMENT", "2013-05-08", "2012-12", "", 46.0, null, null]
["CDISCPILOT01", "CM", "01-701-1294", 22.0, "1", "HISMANAL", "UNCODED", "", "UNCODED", 10.0, "mg", "PRN", "ORAL", 8.0, "WEEK 8", 56.0, "TREATMENT", "2013-05-22", "2012-03", "", 60.0, null, null]
["CDISCPILOT01", "CM", "01-701-1294", 23.0, "3", "NASACORT", "UNCODED", "", "UNCODED", 1.0, "TABLET", "QD", "RESPIRATORY (INHALATION)", 8.0, "WEEK 8", 56.0, "TREATMENT", "2013-05-22", "2012-03", "", 60.0, null, null]
["CDISCPILOT01", "CM", "01-701-1294", 24.0, "2", "MULTIVITAMIN", "UNCODED", "PROPHYLAXIS OR NON-THERAPEUTIC USE", "UNCODED", 3.0, "mg", "QD", "ORAL", 8.0, "WEEK 8", 56.0, "TREATMENT", "2013-05-22", "2012-12", "", 60.0, null, null]
["CDISCPILOT01", "CM", "01-701-1294", 25.0, "1", "HISMANAL", "UNCODED", "", "UNCODED", 10.0, "mg", "PRN", "ORAL", 9.0, "WEEK 12", 84.0, "TREATMENT", "2013-06-14", "2012-03", "", 83.0, null, null]
["CDISCPILOT01", "CM", "01-701-1294", 26.0, "3", "NASACORT", "UNCODED", "", "UNCODED", 1.0, "TABLET", "QD", "RESPIRATORY (INHALATION)", 9.0, "WEEK 12", 84.0, "TREATMENT", "2013-06-14", "2012-03", "", 83.0, null, null]
["CDISCPILOT01", "CM", "01-701-1294", 27.0, "2", "MULTIVITAMIN", "UNCODED", "PROPHYLAXIS OR NON-THERAPEUTIC USE", "UNCODED", 3.0, "mg", "QD", "ORAL", 9.0, "WEEK 12", 84.0, "TREATMENT", "2013-06-14", "2012-12", "", 83.0, null, null]
["CDISCPILOT01", "CM", "01-701-1294", 28.0, "4", "HYDROCORTISONE", "HYDROCORTISONE", "", "SYSTEMIC HORMONAL PREPARATIONS, EXCL.", 1.0, "TABLET", "QD", "TOPICAL", 9.0, "WEEK 12", 84.0, "TREATMENT", "2013-06-14", "2013-06-04", "2013-06-12", 83.0, 73.0, 81.0]
["CDISCPILOT01", "CM", "01-701-1294", 29.0, "1", "HISMANAL", "UNCODED", "", "UNCODED", 10.0, "mg", "PRN", "ORAL", 101.0, "AE FOLLOW-UP", null, "SCREENING", "2013-08-23", "2012-03", "", 153.0, null, null]
["CDISCPILOT01", "CM", "01-701-1294", 30.0, "3", "NASACORT", "UNCODED", "", "UNCODED", 1.0, "TABLET", "QD", "RESPIRATORY (INHALATION)", 101.0, "AE FOLLOW-UP", null, "SCREENING", "2013-08-23", "2012-03", "", 153.0, null, null]
["CDISCPILOT01", "CM", "01-701-1294", 31.0, "2", "MULTIVITAMIN", "UNCODED", "PROPHYLAXIS OR NON-THERAPEUTIC USE", "UNCODED", 3.0, "mg", "QD", "ORAL", 101.0, "AE FOLLOW-UP", null, "SCREENING", "2013-08-23", "2012-12", "", 153.0, null, null]
["CDISCPILOT01", "CM", "01-701-1294", 32.0, "1", "HISMANAL", "UNCODED", "", "UNCODED", 10.0, "mg", "PRN", "ORAL", 201.0, "RETRIEVAL", 168.0, "TREATMENT", "2013-10-08", "2012-03", "", 199.0, null, null]
["CDISCPILOT01", "CM", "01-701-1294", 33.0, "3", "NASACORT", "UNCODED", "", "UNCODED", 1.0, "TABLET", "QD", "RESPIRATORY (INHALATION)", 201.0, "RETRIEVAL", 168.0, "TREATMENT", "2013-10-08", "2012-03", "", 199.0, null, null]
["CDISCPILOT01", "CM", "01-701-1294", 34.0, "2", "MULTIVITAMIN", "UNCODED", "PROPHYLAXIS OR NON-THERAPEUTIC USE", "UNCODED", 3.0, "mg", "QD", "ORAL", 201.0, "RETRIEVAL", 168.0, "TREATMENT", "2013-10-08", "2012-12", "", 199.0, null, null]
["CDISCPILOT01", "CM", "01-701-1302", 1.0, "1", "ADVIL", "UNCODED", "", "UNCODED", 2.0, "TABLET", "PRN", "ORAL", 1.0, "SCREENING 1", -7.0, "SCREENING", "2013-08-20", "2010", "", -9.0, null, null]
["CDISCPILOT01", "CM", "01-701-1302", 2.0, "4", "MULTIVITAMINS", "UNCODED", "PROPHYLAXIS OR NON-THERAPEUTIC USE", "UNCODED", 1.0, "TABLET", "QD", "ORAL", 1.0, "SCREENING 1", -7.0, "SCREENING", "2013-08-20", "2010", "", -9.0, null, null]
["CDISCPILOT01", "CM", "01-701-1302", 3.0, "2", "EXCEDRIN", "UNCODED", "", "UNCODED", 2.0, "TABLET", "PRN", "ORAL", 1.0, "SCREENING 1", -7.0, "SCREENING", "2013-08-20", "2011", "", -9.0, null, null]
["CDISCPILOT01", "CM", "01-701-1302", 4.0, "3", "METAMUCIL", "UNCODED", "", "UNCODED", 2.0, "TABLET", "QD", "ORAL", 1.0, "SCREENING 1", -7.0, "SCREENING", "2013-08-20", "2012-03-01", "", -9.0, -546.0, null]
["CDISCPILOT01", "CM", "01-701-1302", 5.0, "1", "ADVIL", "UNCODED", "", "UNCODED", 2.0, "TABLET", "PRN", "ORAL", 2.0, "SCREENING 2", -1.0, "SCREENING", "2013-08-27", "2010", "", -2.0, null, null]
["CDISCPILOT01", "CM", "01-701-1302", 6.0, "4", "MULTIVITAMINS", "UNCODED", "PROPHYLAXIS OR NON-THERAPEUTIC USE", "UNCODED", 1.0, "TABLET", "QD", "ORAL", 2.0, "SCREENING 2", -1.0, "SCREENING", "2013-08-27", "2010", "", -2.0, null, null]
["CDISCPILOT01", "CM", "01-701-1302", 7.0, "2", "EXCEDRIN", "UNCODED", "", "UNCODED", 2.0, "TABLET", "PRN", "ORAL", 2.0, "SCREENING 2", -1.0, "SCREENING", "2013-08-27", "2011", "", -2.0, null, null]
["CDISCPILOT01", "CM", "01-701-1302", 8.0, "3", "METAMUCIL", "UNCODED", "", "UNCODED", 2.0, "TABLET", "QD", "ORAL", 2.0, "SCREENING 2", -1.0, "SCREENING", "2013-08-27", "2012-03-01", "", -2.0, -546.0, null]
["CDISCPILOT01", "CM", "01-701-1302", 9.0, "1", "ADVIL", "UNCODED", "", "UNCODED", 2.0, "TABLET", "PRN", "ORAL", 3.0, "BASELINE", 1.0, "TREATMENT", "2013-08-29", "2010", "", 1.0, null, null]
["CDISCPILOT01", "CM", "01-701-1302", 10.0, "4", "MULTIVITAMINS", "UNCODED", "PROPHYLAXIS OR NON-THERAPEUTIC USE", "UNCODED", 1.0, "TABLET", "QD", "ORAL", 3.0, "BASELINE", 1.0, "TREATMENT", "2013-08-29", "2010", "", 1.0, null, null]
["CDISCPILOT01", "CM", "01-701-1302", 11.0, "2", "EXCEDRIN", "UNCODED", "", "UNCODED", 2.0, "TABLET", "PRN", "ORAL", 3.0, "BASELINE", 1.0, "TREATMENT", "2013-08-29", "2011", "", 1.0, null, null]
["CDISCPILOT01", "CM", "01-701-1302", 12.0, "3", "METAMUCIL", "UNCODED", "", "UNCODED", 2.0, "TABLET", "QD", "ORAL", 3.0, "BASELINE", 1.0, "TREATMENT", "2013-08-29", "2012-03-01", "", 1.0, -546.0, null]
["CDISCPILOT01", "CM", "01-701-1302", 13.0, "1", "ADVIL", "UNCODED", "", "UNCODED", 2.0, "TABLET", "PRN", "ORAL", 4.0, "WEEK 2", 14.0, "TREATMENT", "2013-09-15", "2010", "", 18.0, null, null]
["CDISCPILOT01", "CM", "01-701-1302", 14.0, "4", "MULTIVITAMINS", "UNCODED", "PROPHYLAXIS OR NON-THERAPEUTIC USE", "UNCODED", 1.0, "TABLET", "QD", "ORAL", 4.0, "WEEK 2", 14.0, "TREATMENT", "2013-09-15", "2010", "", 18.0, null, null]
["CDISCPILOT01", "CM", "01-701-1302", 15.0, "2", "EXCEDRIN", "UNCODED", "", "UNCODED", 2.0, "TABLET", "PRN", "ORAL", 4.0, "WEEK 2", 14.0, "TREATMENT", "2013-09-15", "2011", "", 18.0, null, null]
["CDISCPILOT01", "CM", "01-701-1302", 16.0, "3", "METAMUCIL", "UNCODED", "", "UNCODED", 2.0, "TABLET", "QD", "ORAL", 4.0, "WEEK 2", 14.0, "TREATMENT", "2013-09-15", "2012-03-01", "", 18.0, -546.0, null]
["CDISCPILOT01", "CM", "01-701-1302", 17.0, "5", "NEO-SYNEPHRINE", "UNCODED", "", "UNCODED", 1.0, "TABLET", "PRN", "NASAL", 4.0, "WEEK 2", 14.0, "TREATMENT", "2013-09-15", "2013-09-01", "2013-09-30", 18.0, 4.0, 33.0]
["CDISCPILOT01", "CM", "01-701-1302", 18.0, "6", "PSEUDOEPHEDRINE HYDROCHLORIDE", "UNCODED", "", "UNCODED", 2.0, "TABLET", "Q4H", "ORAL", 4.0, "WEEK 2", 14.0, "TREATMENT", "2013-09-15", "2013-09-02", "2013-09-30", 18.0, 5.0, 33.0]
["CDISCPILOT01", "CM", "01-701-1302", 19.0, "1", "ADVIL", "UNCODED", "", "UNCODED", 2.0, "TABLET", "PRN", "ORAL", 5.0, "WEEK 4", 28.0, "TREATMENT", "2013-09-24", "2010", "", 27.0, null, null]
["CDISCPILOT01", "CM", "01-701-1302", 20.0, "4", "MULTIVITAMINS", "UNCODED", "PROPHYLAXIS OR NON-THERAPEUTIC USE", "UNCODED", 1.0, "TABLET", "QD", "ORAL", 5.0, "WEEK 4", 28.0, "TREATMENT", "2013-09-24", "2010", "", 27.0, null, null]
["CDISCPILOT01", "CM", "01-701-1302", 21.0, "2", "EXCEDRIN", "UNCODED", "", "UNCODED", 2.0, "TABLET", "PRN", "ORAL", 5.0, "WEEK 4", 28.0, "TREATMENT", "2013-09-24", "2011", "", 27.0, null, null]
["CDISCPILOT01", "CM", "01-701-1302", 22.0, "3", "METAMUCIL", "UNCODED", "", "UNCODED", 2.0, "TABLET", "QD", "ORAL", 5.0, "WEEK 4", 28.0, "TREATMENT", "2013-09-24", "2012-03-01", "", 27.0, -546.0, null]
["CDISCPILOT01", "CM", "01-701-1302", 23.0, "5", "NEO-SYNEPHRINE", "UNCODED", "", "UNCODED", 1.0, "TABLET", "PRN", "NASAL", 5.0, "WEEK 4", 28.0, "TREATMENT", "2013-09-24", "2013-09-01", "2013-09-30", 27.0, 4.0, 33.0]
["CDISCPILOT01", "CM", "01-701-1302", 24.0, "6", "PSEUDOEPHEDRINE HYDROCHLORIDE", "UNCODED", "", "UNCODED", 2.0, "TABLET", "Q4H", "ORAL", 5.0, "WEEK 4", 28.0, "TREATMENT", "2013-09-24", "2013-09-02", "2013-09-30", 27.0, 5.0, 33.0]
["CDISCPILOT01", "CM", "01-701-1302", 25.0, "1", "ADVIL", "UNCODED", "", "UNCODED", 2.0, "TABLET", "PRN", "ORAL", 6.0, "AMBUL ECG REMOVAL", 30.0, "TREATMENT", "2013-09-26", "2010", "", 29.0, null, null]
["CDISCPILOT01", "CM", "01-701-1302", 26.0, "4", "MULTIVITAMINS", "UNCODED", "PROPHYLAXIS OR NON-THERAPEUTIC USE", "UNCODED", 1.0, "TABLET", "QD", "ORAL", 6.0, "AMBUL ECG REMOVAL", 30.0, "TREATMENT", "2013-09-26", "2010", "", 29.0, null, null]
["CDISCPILOT01", "CM", "01-701-1302", 27.0, "2", "EXCEDRIN", "UNCODED", "", "UNCODED", 2.0, "TABLET", "PRN", "ORAL", 6.0, "AMBUL ECG REMOVAL", 30.0, "TREATMENT", "2013-09-26", "2011", "", 29.0, null, null]
["CDISCPILOT01", "CM", "01-701-1302", 28.0, "3", "METAMUCIL", "UNCODED", "", "UNCODED", 2.0, "TABLET", "QD", "ORAL", 6.0, "AMBUL ECG REMOVAL", 30.0, "TREATMENT", "2013-09-26", "2012-03-01", "", 29.0, -546.0, null]
["CDISCPILOT01", "CM", "01-701-1302", 29.0, "5", "NEO-SYNEPHRINE", "UNCODED", "", "UNCODED", 1.0, "TABLET", "PRN", "NASAL", 6.0, "AMBUL ECG REMOVAL", 30.0, "TREATMENT", "2013-09-26", "2013-09-01", "2013-09-30", 29.0, 4.0, 33.0]
