{"datasetJSONCreationDateTime": "2025-10-13T16:15:13", "datasetJSONVersion": "1.1.0", "itemGroupOID": "{DS", "records": 596, "name": "DS", "label": "DS", "columns": [{"itemOID": "IT.STUDYID", "name": "STUDYID", "label": "Study Identifier", "dataType": "string"}, {"itemOID": "IT.DOMAIN", "name": "DOMAIN", "label": "Domain Abbreviation", "dataType": "string"}, {"itemOID": "IT.USUBJID", "name": "USUBJID", "label": "Unique Subject Identifier", "dataType": "string"}, {"itemOID": "IT.DSSEQ", "name": "DSSEQ", "label": "Sequence Number", "dataType": "double"}, {"itemOID": "IT.DSSPID", "name": "DSSPID", "label": "Sponsor-Defined Identifier", "dataType": "string"}, {"itemOID": "IT.DSTERM", "name": "DSTERM", "label": "Reported Term for the Disposition Event", "dataType": "string"}, {"itemOID": "IT.DSDECOD", "name": "DSDECOD", "label": "Standardized Disposition Term", "dataType": "string"}, {"itemOID": "IT.DSCAT", "name": "DSCAT", "label": "Category for Disposition Event", "dataType": "string"}, {"itemOID": "IT.VISITNUM", "name": "VISITNUM", "label": "Visit Number", "dataType": "double"}, {"itemOID": "IT.VISIT", "name": "VISIT", "label": "Visit Name", "dataType": "string"}, {"itemOID": "IT.EPOCH", "name": "EPOCH", "label": "Epoch", "dataType": "string"}, {"itemOID": "IT.DSDTC", "name": "DSDTC", "label": "Date/Time of Collection", "dataType": "string"}, {"itemOID": "IT.DSSTDTC", "name": "DSSTDTC", "label": "Start Date/Time of Disposition Event", "dataType": "string"}, {"itemOID": "IT.DSDY", "name": "DSDY", "label": "Study Day of Visit/Collection/Exam", "dataType": "double"}, {"itemOID": "IT.DSSTDY", "name": "DSSTDY", "label": "Study Day of Start of Disposition Event", "dataType": "double"}]}
["CDISCPILOT01", "DS", "01-701-1015", 1.0, "", "PROTOCOL COMPLETED", "COMPLETED", "DISPOSITION EVENT", 13.0, "WEEK 26", "FOLLOW-UP", "2014-07-02", "2014-07-02", 182.0, 182.0]
["CDISCPILOT01", "DS", "01-701-1015", 2.0, "", "FINAL LAB VISIT", "FINAL LAB VISIT", "OTHER EVENT", 13.0, "WEEK 26", "FOLLOW-UP", "2014-07-02T11:45", "2014-07-02", 182.0, 182.0]
["CDISCPILOT01", "DS", "01-701-1023", 1.0, "24", "ADVERSE EVENT", "ADVERSE EVENT", "DISPOSITION EVENT", 5.0, "WEEK 4", "TREATMENT", "2012-09-02", "2012-09-02", 29.0, 29.0]
["CDISCPILOT01", "DS", "01-701-1023", 2.0, "", "FINAL LAB VISIT", "FINAL LAB VISIT", "OTHER EVENT", 5.0, "WEEK 4", "TREATMENT", "2012-09-02T10:15", "2012-09-02", 29.0, 29.0]
["CDISCPILOT01", "DS", "01-701-1023", 3.0, "", "FINAL RETRIEVAL VISIT", "FINAL RETRIEVAL VISIT", "OTHER EVENT", 201.0, "RETRIEVAL", "FOLLOW-UP", "2013-02-18", "2013-02-18", 198.0, 198.0]
["CDISCPILOT01", "DS", "01-701-1028", 1.0, "", "PROTOCOL COMPLETED", "COMPLETED", "DISPOSITION EVENT", 13.0, "WEEK 26", "FOLLOW-UP", "2014-01-14", "2014-01-14", 180.0, 180.0]
["CDISCPILOT01", "DS", "01-701-1028", 2.0, "", "FINAL LAB VISIT", "FINAL LAB VISIT", "OTHER EVENT", 13.0, "WEEK 26", "FOLLOW-UP", "2014-01-14T11:10", "2014-01-14", 180.0, 180.0]
["CDISCPILOT01", "DS", "01-701-1033", 1.0, "", "SPONSOR DECISION (STUDY OR PATIENT DISCONTINUED BY THE SPONSOR)", "STUDY TERMINATED BY SPONSOR", "DISPOSITION EVENT", 5.0, "WEEK 4", "FOLLOW-UP", "2014-04-14", "2014-04-14", 28.0, 28.0]
["CDISCPILOT01", "DS", "01-701-1033", 2.0, "", "FINAL LAB VISIT", "FINAL LAB VISIT", "OTHER EVENT", 5.0, "WEEK 4", "FOLLOW-UP", "2014-04-14T10:38", "2014-04-14", 28.0, 28.0]
["CDISCPILOT01", "DS", "01-701-1033", 3.0, "", "FINAL RETRIEVAL VISIT", "FINAL RETRIEVAL VISIT", "OTHER EVENT", 201.0, "RETRIEVAL", "FOLLOW-UP", "2014-09-15", "2014-09-15", 182.0, 182.0]
["CDISCPILOT01", "DS", "01-701-1034", 1.0, "", "PROTOCOL COMPLETED", "COMPLETED", "DISPOSITION EVENT", 13.0, "WEEK 26", "FOLLOW-UP", "2014-12-30", "2014-12-30", 183.0, 183.0]
["CDISCPILOT01", "DS", "01-701-1034", 2.0, "", "FINAL LAB VISIT", "FINAL LAB VISIT", "OTHER EVENT", 13.0, "WEEK 26", "FOLLOW-UP", "2014-12-30T09:50", "2014-12-30", 183.0, 183.0]
["CDISCPILOT01", "DS", "01-701-1047", 1.0, "17", "ADVERSE EVENT", "ADVERSE EVENT", "DISPOSITION EVENT", 6.0, "AMBUL ECG REMOVAL", "TREATMENT", "2013-03-29", "2013-03-29", 46.0, 46.0]
["CDISCPILOT01", "DS", "01-701-1047", 2.0, "", "FINAL LAB VISIT", "FINAL LAB VISIT", "OTHER EVENT", 6.1, "UNSCHEDULED 6.1", "FOLLOW-UP", "2013-04-07T11:20", "2013-04-07", 55.0, 55.0]
["CDISCPILOT01", "DS", "01-701-1047", 3.0, "", "FINAL RETRIEVAL VISIT", "FINAL RETRIEVAL VISIT", "OTHER EVENT", 201.0, "RETRIEVAL", "FOLLOW-UP", "2013-07-28", "2013-07-28", 167.0, 167.0]
["CDISCPILOT01", "DS", "01-701-1057", 1.0, "", "SCREEN FAILURE", "SCREEN FAILURE", "DISPOSITION EVENT", 1.0, "SCREENING 1", "SCREENING", "2013-12-20", "2013-12-20", null, null]
["CDISCPILOT01", "DS", "01-701-1097", 1.0, "", "PROTOCOL COMPLETED", "COMPLETED", "DISPOSITION EVENT", 13.0, "WEEK 26", "FOLLOW-UP", "2014-07-09", "2014-07-09", 190.0, 190.0]
["CDISCPILOT01", "DS", "01-701-1097", 2.0, "", "FINAL LAB VISIT", "FINAL LAB VISIT", "OTHER EVENT", 13.0, "WEEK 26", "FOLLOW-UP", "2014-07-09T09:39", "2014-07-09", 190.0, 190.0]
["CDISCPILOT01", "DS", "01-701-1111", 1.0, "32", "ADVERSE EVENT", "ADVERSE EVENT", "DISPOSITION EVENT", 4.0, "WEEK 2", "FOLLOW-UP", "2012-09-17", "2012-09-17", 11.0, 11.0]
["CDISCPILOT01", "DS", "01-701-1111", 2.0, "", "FINAL LAB VISIT", "FINAL LAB VISIT", "OTHER EVENT", 4.0, "WEEK 2", "FOLLOW-UP", "2012-09-17T11:48", "2012-09-17", 11.0, 11.0]
["CDISCPILOT01", "DS", "01-701-1111", 3.0, "", "FINAL RETRIEVAL VISIT", "FINAL RETRIEVAL VISIT", "OTHER EVENT", 201.0, "RETRIEVAL", "FOLLOW-UP", "2013-02-22", "2013-02-22", 169.0, 169.0]
["CDISCPILOT01", "DS", "01-701-1115", 1.0, "18", "ADVERSE EVENT", "ADVERSE EVENT", "DISPOSITION EVENT", 8.0, "WEEK 8", "FOLLOW-UP", "2013-01-23", "2013-01-23", 55.0, 55.0]
["CDISCPILOT01", "DS", "01-701-1115", 2.0, "", "FINAL LAB VISIT", "FINAL LAB VISIT", "OTHER EVENT", 8.0, "WEEK 8", "FOLLOW-UP", "2013-01-23T12:13", "2013-01-23", 55.0, 55.0]
["CDISCPILOT01", "DS", "01-701-1115", 3.0, "", "FINAL RETRIEVAL VISIT", "FINAL RETRIEVAL VISIT", "OTHER EVENT", 201.0, "RETRIEVAL", "FOLLOW-UP", "2013-05-20", "2013-05-20", 172.0, 172.0]
["CDISCPILOT01", "DS", "01-701-1118", 1.0, "", "PROTOCOL COMPLETED", "COMPLETED", "DISPOSITION EVENT", 13.0, "WEEK 26", "FOLLOW-UP", "2014-09-09", "2014-09-09", 182.0, 182.0]
["CDISCPILOT01", "DS", "01-701-1118", 2.0, "", "FINAL LAB VISIT", "FINAL LAB VISIT", "OTHER EVENT", 13.0, "WEEK 26", "FOLLOW-UP", "2014-09-09T13:28", "2014-09-09", 182.0, 182.0]
["CDISCPILOT01", "DS", "01-701-1130", 1.0, "", "PROTOCOL COMPLETED", "COMPLETED", "DISPOSITION EVENT", 13.0, "WEEK 26", "FOLLOW-UP", "2014-08-16", "2014-08-16", 183.0, 183.0]
["CDISCPILOT01", "DS", "01-701-1130", 2.0, "", "FINAL LAB VISIT", "FINAL LAB VISIT", "OTHER EVENT", 13.0, "WEEK 26", "FOLLOW-UP", "2014-08-16T13:10", "2014-08-16", 183.0, 183.0]
["CDISCPILOT01", "DS", "01-701-1133", 1.0, "", "PROTOCOL COMPLETED", "COMPLETED", "DISPOSITION EVENT", 13.0, "WEEK 26", "FOLLOW-UP", "2013-04-29", "2013-04-29", 184.0, 184.0]
["CDISCPILOT01", "DS", "01-701-1133", 2.0, "", "FINAL LAB VISIT", "FINAL LAB VISIT", "OTHER EVENT", 13.0, "WEEK 26", "FOLLOW-UP", "2013-04-29T10:13", "2013-04-29", 184.0, 184.0]
["CDISCPILOT01", "DS", "01-701-1145", 1.0, "", "SCREEN FAILURE", "SCREEN FAILURE", "DISPOSITION EVENT", 1.0, "SCREENING 1", "SCREENING", "2013-09-05", "2013-09-05", null, null]
["CDISCPILOT01", "DS", "01-701-1146", 1.0, "20", "ADVERSE EVENT", "ADVERSE EVENT", "DISPOSITION EVENT", 7.0, "WEEK 6", "FOLLOW-UP", "2013-06-30", "2013-06-30", 42.0, 42.0]
["CDISCPILOT01", "DS", "01-701-1146", 2.0, "", "FINAL LAB VISIT", "FINAL LAB VISIT", "OTHER EVENT", 7.0, "WEEK 6", "FOLLOW-UP", "2013-06-30T11:44", "2013-06-30", 42.0, 42.0]
["CDISCPILOT01", "DS", "01-701-1148", 1.0, "", "PROTOCOL COMPLETED", "COMPLETED", "DISPOSITION EVENT", 13.0, "WEEK 26", "FOLLOW-UP", "2014-02-20", "2014-02-20", 182.0, 182.0]
["CDISCPILOT01", "DS", "01-701-1148", 2.0, "", "FINAL LAB VISIT", "FINAL LAB VISIT", "OTHER EVENT", 13.0, "WEEK 26", "FOLLOW-UP", "2014-02-20T15:07", "2014-02-20", 182.0, 182.0]
["CDISCPILOT01", "DS", "01-701-1153", 1.0, "", "PROTOCOL COMPLETED", "COMPLETED", "DISPOSITION EVENT", 13.0, "WEEK 26", "FOLLOW-UP", "2014-04-01", "2014-04-01", 191.0, 191.0]
["CDISCPILOT01", "DS", "01-701-1153", 2.0, "", "FINAL LAB VISIT", "FINAL LAB VISIT", "OTHER EVENT", 13.0, "WEEK 26", "FOLLOW-UP", "2014-04-01T14:25", "2014-04-01", 191.0, 191.0]
["CDISCPILOT01", "DS", "01-701-1162", 1.0, "", "SCREEN FAILURE", "SCREEN FAILURE", "DISPOSITION EVENT", 1.0, "SCREENING 1", "SCREENING", "2013-04-18", "2013-04-18", null, null]
["CDISCPILOT01", "DS", "01-701-1176", 1.0, "", "SCREEN FAILURE", "SCREEN FAILURE", "DISPOSITION EVENT", 1.0, "SCREENING 1", "SCREENING", "2012-09-30", "2012-09-30", null, null]
["CDISCPILOT01", "DS", "01-701-1180", 1.0, "7", "ADVERSE EVENT", "ADVERSE EVENT", "DISPOSITION EVENT", 7.0, "WEEK 6", "FOLLOW-UP", "2013-03-23", "2013-03-23", 40.0, 40.0]
["CDISCPILOT01", "DS", "01-701-1180", 2.0, "", "FINAL LAB VISIT", "FINAL LAB VISIT", "OTHER EVENT", 7.0, "WEEK 6", "FOLLOW-UP", "2013-03-23T12:45", "2013-03-23", 40.0, 40.0]
["CDISCPILOT01", "DS", "01-701-1181", 1.0, "24", "ADVERSE EVENT", "ADVERSE EVENT", "DISPOSITION EVENT", 4.0, "WEEK 2", "FOLLOW-UP", "2013-12-12", "2013-12-12", 8.0, 8.0]
["CDISCPILOT01", "DS", "01-701-1181", 2.0, "", "FINAL LAB VISIT", "FINAL LAB VISIT", "OTHER EVENT", 4.0, "WEEK 2", "FOLLOW-UP", "2013-12-12T12:09", "2013-12-12", 8.0, 8.0]
["CDISCPILOT01", "DS", "01-701-1181", 3.0, "", "FINAL RETRIEVAL VISIT", "FINAL RETRIEVAL VISIT", "OTHER EVENT", 201.0, "RETRIEVAL", "FOLLOW-UP", "2014-05-23", "2014-05-23", 170.0, 170.0]
["CDISCPILOT01", "DS", "01-701-1188", 1.0, "14", "ADVERSE EVENT", "ADVERSE EVENT", "DISPOSITION EVENT", 7.0, "WEEK 6", "FOLLOW-UP", "2013-03-25", "2013-03-25", 39.0, 39.0]
["CDISCPILOT01", "DS", "01-701-1188", 2.0, "", "FINAL LAB VISIT", "FINAL LAB VISIT", "OTHER EVENT", 7.0, "WEEK 6", "FOLLOW-UP", "2013-03-25T15:08", "2013-03-25", 39.0, 39.0]
["CDISCPILOT01", "DS", "01-701-1188", 3.0, "", "FINAL RETRIEVAL VISIT", "FINAL RETRIEVAL VISIT", "OTHER EVENT", 201.0, "RETRIEVAL", "FOLLOW-UP", "2013-08-04", "2013-08-04", 171.0, 171.0]
["CDISCPILOT01", "DS", "01-701-1192", 1.0, "", "PROTOCOL COMPLETED", "COMPLETED", "DISPOSITION EVENT", 13.0, "WEEK 26", "FOLLOW-UP", "2013-01-20", "2013-01-20", 183.0, 183.0]
["CDISCPILOT01", "DS", "01-701-1192", 2.0, "", "FINAL LAB VISIT", "FINAL LAB VISIT", "OTHER EVENT", 13.0, "WEEK 26", "FOLLOW-UP", "2013-01-20T15:47", "2013-01-20", 183.0, 183.0]
["CDISCPILOT01", "DS", "01-701-1203", 1.0, "", "PROTOCOL COMPLETED", "COMPLETED", "DISPOSITION EVENT", 13.0, "WEEK 26", "FOLLOW-UP", "2013-08-03", "2013-08-03", 183.0, 183.0]
["CDISCPILOT01", "DS", "01-701-1203", 2.0, "", "FINAL LAB VISIT", "FINAL LAB VISIT", "OTHER EVENT", 13.0, "WEEK 26", "FOLLOW-UP", "2013-08-03T10:10", "2013-08-03", 183.0, 183.0]
["CDISCPILOT01", "DS", "01-701-1211", 1.0, "18", "DEATH", "DEATH", "DISPOSITION EVENT", 9.0, "WEEK 12", "FOLLOW-UP", "2013-01-14", "2013-01-14", 61.0, 61.0]
["CDISCPILOT01", "DS", "01-701-1211", 2.0, "", "FINAL LAB VISIT", "FINAL LAB VISIT", "OTHER EVENT", 8.0, "WEEK 8", "TREATMENT", "2013-01-08T12:13", "2013-01-08", 55.0, 55.0]
["CDISCPILOT01", "DS", "01-701-1234", 1.0, "", "PROTOCOL COMPLETED", "COMPLETED", "DISPOSITION EVENT", 13.0, "WEEK 26", "FOLLOW-UP", "2013-09-22", "2013-09-22", 177.0, 177.0]
["CDISCPILOT01", "DS", "01-701-1234", 2.0, "", "FINAL LAB VISIT", "FINAL LAB VISIT", "OTHER EVENT", 13.0, "WEEK 26", "FOLLOW-UP", "2013-09-22T09:25", "2013-09-22", 177.0, 177.0]
["CDISCPILOT01", "DS", "01-701-1239", 1.0, "", "PROTOCOL COMPLETED", "COMPLETED", "DISPOSITION EVENT", 13.0, "WEEK 26", "FOLLOW-UP", "2014-07-11", "2014-07-11", 182.0, 182.0]
["CDISCPILOT01", "DS", "01-701-1239", 2.0, "", "FINAL LAB VISIT", "FINAL LAB VISIT", "OTHER EVENT", 13.0, "WEEK 26", "FOLLOW-UP", "2014-07-11T15:40", "2014-07-11", 182.0, 182.0]
["CDISCPILOT01", "DS", "01-701-1240", 1.0, "", "SCREEN FAILURE", "SCREEN FAILURE", "DISPOSITION EVENT", 1.0, "SCREENING 1", "SCREENING", "2013-09-22", "2013-09-22", null, null]
["CDISCPILOT01", "DS", "01-701-1275", 1.0, "", "WITHDRAW CONSENT", "WITHDRAWAL BY SUBJECT", "DISPOSITION EVENT", 10.0, "WEEK 16", "FOLLOW-UP", "2014-06-14", "2014-06-14", 128.0, 128.0]
["CDISCPILOT01", "DS", "01-701-1275", 2.0, "", "FINAL LAB VISIT", "FINAL LAB VISIT", "OTHER EVENT", 10.0, "WEEK 16", "FOLLOW-UP", "2014-06-14T12:35", "2014-06-14", 128.0, 128.0]
["CDISCPILOT01", "DS", "01-701-1287", 1.0, "", "PROTOCOL COMPLETED", "COMPLETED", "DISPOSITION EVENT", 13.0, "WEEK 26", "FOLLOW-UP", "2014-07-26", "2014-07-26", 183.0, 183.0]
["CDISCPILOT01", "DS", "01-701-1287", 2.0, "", "FINAL LAB VISIT", "FINAL LAB VISIT", "OTHER EVENT", 13.0, "WEEK 26", "FOLLOW-UP", "2014-07-26T13:15", "2014-07-26", 183.0, 183.0]
["CDISCPILOT01", "DS", "01-701-1294", 1.0, "14", "ADVERSE EVENT", "ADVERSE EVENT", "DISPOSITION EVENT", 9.0, "WEEK 12", "FOLLOW-UP", "2013-06-14", "2013-06-14", 83.0, 83.0]
["CDISCPILOT01", "DS", "01-701-1294", 2.0, "", "FINAL LAB VISIT", "FINAL LAB VISIT", "OTHER EVENT", 9.0, "WEEK 12", "FOLLOW-UP", "2013-06-14T09:47", "2013-06-14", 83.0, 83.0]
["CDISCPILOT01", "DS", "01-701-1294", 3.0, "", "FINAL RETRIEVAL VISIT", "FINAL RETRIEVAL VISIT", "OTHER EVENT", 201.0, "RETRIEVAL", "FOLLOW-UP", "2013-10-08", "2013-10-08", 199.0, 199.0]
["CDISCPILOT01", "DS", "01-701-1302", 1.0, "31", "ADVERSE EVENT", "ADVERSE EVENT", "DISPOSITION EVENT", 9.0, "WEEK 12", "FOLLOW-UP", "2013-11-05", "2013-11-05", 69.0, 69.0]
["CDISCPILOT01", "DS", "01-701-1302", 2.0, "", "FINAL LAB VISIT", "FINAL LAB VISIT", "OTHER EVENT", 9.0, "WEEK 12", "FOLLOW-UP", "2013-11-05T13:54", "2013-11-05", 69.0, 69.0]
["CDISCPILOT01", "DS", "01-701-1302", 3.0, "", "FINAL RETRIEVAL VISIT", "FINAL RETRIEVAL VISIT", "OTHER EVENT", 201.0, "RETRIEVAL", "FOLLOW-UP", "2014-02-13", "2014-02-13", 169.0, 169.0]
["CDISCPILOT01", "DS", "01-701-1307", 1.0, "", "SCREEN FAILURE", "SCREEN FAILURE", "DISPOSITION EVENT", 1.0, "SCREENING 1", "SCREENING", "2013-12-08", "2013-12-08", null, null]
["CDISCPILOT01", "DS", "01-701-1317", 1.0, "", "PROTOCOL COMPLETED", "COMPLETED", "DISPOSITION EVENT", 13.0, "WEEK 26", "FOLLOW-UP", "2014-11-20", "2014-11-20", 183.0, 183.0]
["CDISCPILOT01", "DS", "01-701-1317", 2.0, "", "FINAL LAB VISIT", "FINAL LAB VISIT", "OTHER EVENT", 13.0, "WEEK 26", "FOLLOW-UP", "2014-11-20T11:54", "2014-11-20", 183.0, 183.0]
["CDISCPILOT01", "DS", "01-701-1324", 1.0, "", "PROTOCOL COMPLETED", "COMPLETED", "DISPOSITION EVENT", 13.0, "WEEK 26", "FOLLOW-UP", "2013-04-02", "2013-04-02", 183.0, 183.0]
["CDISCPILOT01", "DS", "01-701-1324", 2.0, "", "FINAL LAB VISIT", "FINAL LAB VISIT", "OTHER EVENT", 13.0, "WEEK 26", "FOLLOW-UP", "2013-04-02T11:35", "2013-04-02", 183.0, 183.0]
["CDISCPILOT01", "DS", "01-701-1341", 1.0, "14", "ADVERSE EVENT", "ADVERSE EVENT", "DISPOSITION EVENT", 5.0, "WEEK 4", "FOLLOW-UP", "2013-02-07", "2013-02-07", 34.0, 34.0]
["CDISCPILOT01", "DS", "01-701-1341", 2.0, "", "FINAL LAB VISIT", "FINAL LAB VISIT", "OTHER EVENT", 5.0, "WEEK 4", "FOLLOW-UP", "2013-02-07T15:16", "2013-02-07", 34.0, 34.0]
["CDISCPILOT01", "DS", "01-701-1345", 1.0, "", "SPONSOR DECISION (STUDY OR PATIENT DISCONTINUED BY THE SPONSOR)", "STUDY TERMINATED BY SPONSOR", "DISPOSITION EVENT", 12.0, "WEEK 24", "FOLLOW-UP", "2014-03-18", "2014-03-18", 162.0, 162.0]
["CDISCPILOT01", "DS", "01-701-1345", 2.0, "", "FINAL LAB VISIT", "FINAL LAB VISIT", "OTHER EVENT", 12.0, "WEEK 24", "FOLLOW-UP", "2014-03-18T14:12", "2014-03-18", 162.0, 162.0]
["CDISCPILOT01", "DS", "01-701-1356", 1.0, "", "SCREEN FAILURE", "SCREEN FAILURE", "DISPOSITION EVENT", 1.0, "SCREENING 1", "SCREENING", "2014-04-01", "2014-04-01", null, null]
["CDISCPILOT01", "DS", "01-701-1360", 1.0, "", "PMD DECISION DUE TO AE'S", "PHYSICIAN DECISION", "DISPOSITION EVENT", 4.0, "WEEK 2", "FOLLOW-UP", "2013-08-14", "2013-08-14", 15.0, 15.0]
["CDISCPILOT01", "DS", "01-701-1360", 2.0, "", "FINAL LAB VISIT", "FINAL LAB VISIT", "OTHER EVENT", 4.0, "WEEK 2", "FOLLOW-UP", "2013-08-14T15:17", "2013-08-14", 15.0, 15.0]
["CDISCPILOT01", "DS", "01-701-1360", 3.0, "", "FINAL RETRIEVAL VISIT", "FINAL RETRIEVAL VISIT", "OTHER EVENT", 201.0, "RETRIEVAL", "FOLLOW-UP", "2014-02-11", "2014-02-11", 196.0, 196.0]
["CDISCPILOT01", "DS", "01-701-1363", 1.0, "", "PROTOCOL COMPLETED", "COMPLETED", "DISPOSITION EVENT", 13.0, "WEEK 26", "FOLLOW-UP", "2013-11-27", "2013-11-27", 182.0, 182.0]
["CDISCPILOT01", "DS", "01-701-1363", 2.0, "", "FINAL LAB VISIT", "FINAL LAB VISIT", "OTHER EVENT", 13.0, "WEEK 26", "FOLLOW-UP", "2013-11-27T10:00", "2013-11-27", 182.0, 182.0]
["CDISCPILOT01", "DS", "01-701-1369", 1.0, "", "SCREEN FAILURE", "SCREEN FAILURE", "DISPOSITION EVENT", 1.0, "SCREENING 1", "SCREENING", "2013-09-18", "2013-09-18", null, null]
["CDISCPILOT01", "DS", "01-701-1383", 1.0, "", "PROTOCOL COMPLETED", "COMPLETED", "DISPOSITION EVENT", 13.0, "WEEK 26", "FOLLOW-UP", "2013-08-06", "2013-08-06", 184.0, 184.0]
["CDISCPILOT01", "DS", "01-701-1383", 2.0, "", "FINAL LAB VISIT", "FINAL LAB VISIT", "OTHER EVENT", 13.0, "WEEK 26", "FOLLOW-UP", "2013-08-06T12:00", "2013-08-06", 184.0, 184.0]
["CDISCPILOT01", "DS", "01-701-1386", 1.0, "", "SCREEN FAILURE", "SCREEN FAILURE", "DISPOSITION EVENT", 1.0, "SCREENING 1", "SCREENING", "2013-12-28", "2013-12-28", null, null]
["CDISCPILOT01", "DS", "01-701-1387", 1.0, "", "PROTOCOL VIOLATION", "PROTOCOL DEVIATION", "DISPOSITION EVENT", 4.0, "WEEK 2", "FOLLOW-UP", "2014-03-25", "2014-03-25", 14.0, 14.0]
["CDISCPILOT01", "DS", "01-701-1387", 2.0, "", "FINAL LAB VISIT", "FINAL LAB VISIT", "OTHER EVENT", 4.0, "WEEK 2", "FOLLOW-UP", "2014-03-25T10:40", "2014-03-25", 14.0, 14.0]
["CDISCPILOT01", "DS", "01-701-1387", 3.0, "", "FINAL RETRIEVAL VISIT", "FINAL RETRIEVAL VISIT", "OTHER EVENT", 201.0, "RETRIEVAL", "FOLLOW-UP", "2014-08-27", "2014-08-27", 169.0, 169.0]
["CDISCPILOT01", "DS", "01-701-1392", 1.0, "", "PROTOCOL COMPLETED", "COMPLETED", "DISPOSITION EVENT", 13.0, "WEEK 26", "FOLLOW-UP", "2013-04-28", "2013-04-28", 183.0, 183.0]
["CDISCPILOT01", "DS", "01-701-1392", 2.0, "", "FINAL LAB VISIT", "FINAL LAB VISIT", "OTHER EVENT", 13.0, "WEEK 26", "FOLLOW-UP", "2013-04-28T11:30", "2013-04-28", 183.0, 183.0]
["CDISCPILOT01", "DS", "01-701-1411", 1.0, "", "SCREEN FAILURE", "SCREEN FAILURE", "DISPOSITION EVENT", 1.0, "SCREENING 1", "SCREENING", "2012-11-14", "2012-11-14", null, null]
["CDISCPILOT01", "DS", "01-701-1415", 1.0, "", "PROTOCOL COMPLETED", "COMPLETED", "DISPOSITION EVENT", 13.0, "WEEK 26", "FOLLOW-UP", "2014-03-24", "2014-03-24", 183.0, 183.0]
["CDISCPILOT01", "DS", "01-701-1415", 2.0, "", "FINAL LAB VISIT", "FINAL LAB VISIT", "OTHER EVENT", 13.0, "WEEK 26", "FOLLOW-UP", "2014-03-24T12:34", "2014-03-24", 183.0, 183.0]
["CDISCPILOT01", "DS", "01-701-1429", 1.0, "", "WITHDRAW CONSENT DUE TO COMPLIANCY ISSUE", "WITHDRAWAL BY SUBJECT", "DISPOSITION EVENT", 7.0, "WEEK 6", "FOLLOW-UP", "2013-04-30", "2013-04-30", 43.0, 43.0]
["CDISCPILOT01", "DS", "01-701-1429", 2.0, "", "FINAL LAB VISIT", "FINAL LAB VISIT", "OTHER EVENT", 7.0, "WEEK 6", "FOLLOW-UP", "2013-04-30T12:22", "2013-04-30", 43.0, 43.0]
["CDISCPILOT01", "DS", "01-701-1440", 1.0, "", "PROTOCOL COMPLETED", "COMPLETED", "DISPOSITION EVENT", 13.0, "WEEK 26", "FOLLOW-UP", "2014-02-05", "2014-02-05", 182.0, 182.0]
["CDISCPILOT01", "DS", "01-701-1440", 2.0, "", "FINAL LAB VISIT", "FINAL LAB VISIT", "OTHER EVENT", 13.0, "WEEK 26", "FOLLOW-UP", "2014-02-05T11:25", "2014-02-05", 182.0, 182.0]
["CDISCPILOT01", "DS", "01-701-1442", 1.0, "", "PROTOCOL COMPLETED", "COMPLETED", "DISPOSITION EVENT", 13.0, "WEEK 26", "FOLLOW-UP", "2014-04-26", "2014-04-26", 183.0, 183.0]
["CDISCPILOT01", "DS", "01-701-1442", 2.0, "", "FINAL LAB VISIT", "FINAL LAB VISIT", "OTHER EVENT", 13.0, "WEEK 26", "FOLLOW-UP", "2014-04-26T10:00", "2014-04-26", 183.0, 183.0]
["CDISCPILOT01", "DS", "01-701-1444", 1.0, "29", "ADVERSE EVENT", "ADVERSE EVENT", "DISPOSITION EVENT", 7.0, "WEEK 6", "FOLLOW-UP", "2013-02-13", "2013-02-13", 40.0, 40.0]
["CDISCPILOT01", "DS", "01-701-1444", 2.0, "", "FINAL LAB VISIT", "FINAL LAB VISIT", "OTHER EVENT", 7.0, "WEEK 6", "FOLLOW-UP", "2013-02-13T15:53", "2013-02-13", 40.0, 40.0]
["CDISCPILOT01", "DS", "01-701-1444", 3.0, "", "FINAL RETRIEVAL VISIT", "FINAL RETRIEVAL VISIT", "OTHER EVENT", 201.0, "RETRIEVAL", "FOLLOW-UP", "2013-06-20", "2013-06-20", 167.0, 167.0]
["CDISCPILOT01", "DS", "01-702-1082", 1.0, "", "PT FINDS PATCHES\"INCONVENIENT & ITCHY;PT PREFERS'PILLS'\"", "WITHDRAWAL BY SUBJECT", "DISPOSITION EVENT", 9.0, "WEEK 12", "FOLLOW-UP", "2013-11-17", "2013-11-17", 115.0, 115.0]
["CDISCPILOT01", "DS", "01-702-1082", 2.0, "", "FINAL LAB VISIT", "FINAL LAB VISIT", "OTHER EVENT", 9.0, "WEEK 12", "FOLLOW-UP", "2013-11-17T12:20", "2013-11-17", 115.0, 115.0]
["CDISCPILOT01", "DS", "01-703-1042", 1.0, "", "PROTOCOL COMPLETED", "COMPLETED", "DISPOSITION EVENT", 13.0, "WEEK 26", "FOLLOW-UP", "2013-08-31", "2013-08-31", 183.0, 183.0]
["CDISCPILOT01", "DS", "01-703-1042", 2.0, "", "FINAL LAB VISIT", "FINAL LAB VISIT", "OTHER EVENT", 13.0, "WEEK 26", "FOLLOW-UP", "2013-08-31T11:00", "2013-08-31", 183.0, 183.0]
["CDISCPILOT01", "DS", "01-703-1076", 1.0, "8", "ADVERSE EVENT", "ADVERSE EVENT", "DISPOSITION EVENT", 9.0, "WEEK 12", "FOLLOW-UP", "2013-12-24", "2013-12-24", 61.0, 61.0]
["CDISCPILOT01", "DS", "01-703-1076", 2.0, "", "FINAL LAB VISIT", "FINAL LAB VISIT", "OTHER EVENT", 9.0, "WEEK 12", "FOLLOW-UP", "2013-12-24T13:05", "2013-12-24", 61.0, 61.0]
["CDISCPILOT01", "DS", "01-703-1086", 1.0, "1", "ADVERSE EVENT", "ADVERSE EVENT", "DISPOSITION EVENT", 10.0, "WEEK 16", "FOLLOW-UP", "2012-12-24", "2012-12-24", 114.0, 114.0]
["CDISCPILOT01", "DS", "01-703-1086", 2.0, "", "FINAL LAB VISIT", "FINAL LAB VISIT", "OTHER EVENT", 10.0, "WEEK 16", "FOLLOW-UP", "2012-12-24T09:30", "2012-12-24", 114.0, 114.0]
["CDISCPILOT01", "DS", "01-703-1086", 3.0, "", "FINAL RETRIEVAL VISIT", "FINAL RETRIEVAL VISIT", "OTHER EVENT", 201.0, "RETRIEVAL", "FOLLOW-UP", "2013-03-26", "2013-03-26", 206.0, 206.0]
["CDISCPILOT01", "DS", "01-703-1096", 1.0, "", "UNABLE TO CONTACT PATIENT (LOST TO FOLLOW-UP)", "LOST TO FOLLOW-UP", "DISPOSITION EVENT", 7.0, "WEEK 6", "FOLLOW-UP", "2013-03-29", "2013-03-29", 64.0, 64.0]
["CDISCPILOT01", "DS", "01-703-1096", 2.0, "", "FINAL LAB VISIT", "FINAL LAB VISIT", "OTHER EVENT", 5.0, "WEEK 4", "TREATMENT", "2013-02-23T17:10", "2013-02-23", 30.0, 30.0]
["CDISCPILOT01", "DS", "01-703-1100", 1.0, "", "PROTOCOL COMPLETED", "COMPLETED", "DISPOSITION EVENT", 13.0, "WEEK 26", "FOLLOW-UP", "2013-09-14", "2013-09-14", 186.0, 186.0]
["CDISCPILOT01", "DS", "01-703-1100", 2.0, "", "FINAL LAB VISIT", "FINAL LAB VISIT", "OTHER EVENT", 13.0, "WEEK 26", "FOLLOW-UP", "2013-09-14T15:00", "2013-09-14", 186.0, 186.0]
["CDISCPILOT01", "DS", "01-703-1119", 1.0, "10", "ADVERSE EVENT", "ADVERSE EVENT", "DISPOSITION EVENT", 10.0, "WEEK 16", "FOLLOW-UP", "2013-06-13", "2013-06-13", 114.0, 114.0]
["CDISCPILOT01", "DS", "01-703-1119", 2.0, "", "FINAL LAB VISIT", "FINAL LAB VISIT", "OTHER EVENT", 10.0, "WEEK 16", "FOLLOW-UP", "2013-06-13T12:15", "2013-06-13", 114.0, 114.0]
["CDISCPILOT01", "DS", "01-703-1119", 3.0, "", "FINAL RETRIEVAL VISIT", "FINAL RETRIEVAL VISIT", "OTHER EVENT", 201.0, "RETRIEVAL", "FOLLOW-UP", "2013-08-24", "2013-08-24", 186.0, 186.0]
["CDISCPILOT01", "DS", "01-703-1175", 1.0, "", "PROTOCOL ENTRY CRITERIA NOT MET", "PROTOCOL DEVIATION", "DISPOSITION EVENT", 4.0, "WEEK 2", "FOLLOW-UP", "2013-12-31", "2013-12-31", 12.0, 12.0]
["CDISCPILOT01", "DS", "01-703-1175", 2.0, "", "FINAL LAB VISIT", "FINAL LAB VISIT", "OTHER EVENT", 4.0, "WEEK 2", "FOLLOW-UP", "2013-12-31T13:15", "2013-12-31", 12.0, 12.0]
["CDISCPILOT01", "DS", "01-703-1182", 1.0, "9", "ADVERSE EVENT", "ADVERSE EVENT", "DISPOSITION EVENT", 8.0, "WEEK 8", "FOLLOW-UP", "2013-12-12", "2013-12-12", 57.0, 57.0]
["CDISCPILOT01", "DS", "01-703-1182", 2.0, "", "FINAL LAB VISIT", "FINAL LAB VISIT", "OTHER EVENT", 8.0, "WEEK 8", "FOLLOW-UP", "2013-12-12T13:10", "2013-12-12", 57.0, 57.0]
["CDISCPILOT01", "DS", "01-703-1197", 1.0, "", "CAREGIVER DECISION:  SEE COMMENT PAGE", "WITHDRAWAL BY SUBJECT", "DISPOSITION EVENT", 4.0, "WEEK 2", "FOLLOW-UP", "2013-07-22", "2013-07-22", 37.0, 37.0]
["CDISCPILOT01", "DS", "01-703-1197", 2.0, "", "FINAL LAB VISIT", "FINAL LAB VISIT", "OTHER EVENT", 1.1, "UNSCHEDULED 1.1", "SCREENING", "2013-06-01T10:00", "2013-06-01", -15.0, -15.0]
["CDISCPILOT01", "DS", "01-703-1210", 1.0, "", "PROTOCOL COMPLETED", "COMPLETED", "DISPOSITION EVENT", 13.0, "WEEK 26", "FOLLOW-UP", "2013-09-06", "2013-09-06", 175.0, 175.0]
["CDISCPILOT01", "DS", "01-703-1210", 2.0, "", "FINAL LAB VISIT", "FINAL LAB VISIT", "OTHER EVENT", 13.0, "WEEK 26", "FOLLOW-UP", "2013-09-06T13:30", "2013-09-06", 175.0, 175.0]
["CDISCPILOT01", "DS", "01-703-1258", 1.0, "13", "ADVERSE EVENT", "ADVERSE EVENT", "DISPOSITION EVENT", 13.0, "WEEK 26", "FOLLOW-UP", "2013-01-21", "2013-01-21", 186.0, 186.0]
["CDISCPILOT01", "DS", "01-703-1258", 2.0, "", "FINAL LAB VISIT", "FINAL LAB VISIT", "OTHER EVENT", 12.0, "WEEK 24", "TREATMENT", "2012-12-31T11:30", "2012-12-31", 165.0, 165.0]
["CDISCPILOT01", "DS", "01-703-1279", 1.0, "", "CAREGIVER BECAME ILL", "WITHDRAWAL BY SUBJECT", "DISPOSITION EVENT", 4.0, "WEEK 2", "FOLLOW-UP", "2013-06-22", "2013-06-22", 41.0, 41.0]
["CDISCPILOT01", "DS", "01-703-1279", 2.0, "", "FINAL LAB VISIT", "FINAL LAB VISIT", "OTHER EVENT", 1.0, "SCREENING 1", "SCREENING", "2013-04-27T11:00", "2013-04-27", -16.0, -16.0]
["CDISCPILOT01", "DS", "01-703-1295", 1.0, "", "FAMILY WISHES TO DISCONTINUE", "WITHDRAWAL BY SUBJECT", "DISPOSITION EVENT", 11.0, "WEEK 20", "FOLLOW-UP", "2014-05-19", "2014-05-19", 180.0, 180.0]
["CDISCPILOT01", "DS", "01-703-1295", 2.0, "", "FINAL LAB VISIT", "FINAL LAB VISIT", "OTHER EVENT", 11.0, "WEEK 20", "FOLLOW-UP", "2014-05-19T14:45", "2014-05-19", 180.0, 180.0]
["CDISCPILOT01", "DS", "01-703-1299", 1.0, "", "PROTOCOL COMPLETED", "COMPLETED", "DISPOSITION EVENT", 13.0, "WEEK 26", "TREATMENT", "2013-03-13", "2013-03-13", 183.0, 183.0]
["CDISCPILOT01", "DS", "01-703-1299", 2.0, "", "FINAL LAB VISIT", "FINAL LAB VISIT", "OTHER EVENT", 13.0, "WEEK 26", "TREATMENT", "2013-03-13T11:40", "2013-03-13", 183.0, 183.0]
["CDISCPILOT01", "DS", "01-703-1335", 1.0, "", "PROTOCOL VIOLATION", "PROTOCOL DEVIATION", "DISPOSITION EVENT", 7.0, "WEEK 6", "FOLLOW-UP", "2014-05-24", "2014-05-24", 69.0, 69.0]
["CDISCPILOT01", "DS", "01-703-1335", 2.0, "", "FINAL LAB VISIT", "FINAL LAB VISIT", "OTHER EVENT", 7.0, "WEEK 6", "FOLLOW-UP", "2014-05-24T12:15", "2014-05-24", 69.0, 69.0]
["CDISCPILOT01", "DS", "01-703-1379", 1.0, "", "PROTOCOL COMPLETED", "COMPLETED", "DISPOSITION EVENT", 13.0, "WEEK 26", "FOLLOW-UP", "2014-03-21", "2014-03-21", 181.0, 181.0]
["CDISCPILOT01", "DS", "01-703-1379", 2.0, "", "FINAL LAB VISIT", "FINAL LAB VISIT", "OTHER EVENT", 13.0, "WEEK 26", "FOLLOW-UP", "2014-03-21T10:55", "2014-03-21", 181.0, 181.0]
["CDISCPILOT01", "DS", "01-703-1396", 1.0, "", "SCREEN FAILURE", "SCREEN FAILURE", "DISPOSITION EVENT", 1.0, "SCREENING 1", "SCREENING", "2014-02-09", "2014-02-09", null, null]
["CDISCPILOT01", "DS", "01-703-1403", 1.0, "5", "ADVERSE EVENT", "ADVERSE EVENT", "DISPOSITION EVENT", 4.0, "WEEK 2", "FOLLOW-UP", "2012-12-19", "2012-12-19", 8.0, 8.0]
["CDISCPILOT01", "DS", "01-703-1403", 2.0, "", "FINAL LAB VISIT", "FINAL LAB VISIT", "OTHER EVENT", 4.0, "WEEK 2", "FOLLOW-UP", "2012-12-19T10:15", "2012-12-19", 8.0, 8.0]
["CDISCPILOT01", "DS", "01-703-1439", 1.0, "", "PROTOCOL COMPLETED", "COMPLETED", "DISPOSITION EVENT", 13.0, "WEEK 26", "FOLLOW-UP", "2014-09-11", "2014-09-11", 184.0, 184.0]
["CDISCPILOT01", "DS", "01-703-1439", 2.0, "", "FINAL LAB VISIT", "FINAL LAB VISIT", "OTHER EVENT", 13.0, "WEEK 26", "FOLLOW-UP", "2014-09-11T12:40", "2014-09-11", 184.0, 184.0]
["CDISCPILOT01", "DS", "01-704-1008", 1.0, "9", "ADVERSE EVENT", "ADVERSE EVENT", "DISPOSITION EVENT", 7.0, "WEEK 6", "FOLLOW-UP", "2013-02-25", "2013-02-25", 44.0, 44.0]
["CDISCPILOT01", "DS", "01-704-1008", 2.0, "", "FINAL LAB VISIT", "FINAL LAB VISIT", "OTHER EVENT", 7.0, "WEEK 6", "FOLLOW-UP", "2013-02-25T11:00", "2013-02-25", 44.0, 44.0]
["CDISCPILOT01", "DS", "01-704-1009", 1.0, "", "TOO TIME CONSUMING;PT REFUSED FUTURE HOLTERS", "WITHDRAWAL BY SUBJECT", "DISPOSITION EVENT", 5.0, "WEEK 4", "FOLLOW-UP", "2013-10-02", "2013-10-02", 37.0, 37.0]
["CDISCPILOT01", "DS", "01-704-1009", 2.0, "", "FINAL LAB VISIT", "FINAL LAB VISIT", "OTHER EVENT", 4.0, "WEEK 2", "TREATMENT", "2013-09-14T15:00", "2013-09-14", 19.0, 19.0]
["CDISCPILOT01", "DS", "01-704-1010", 1.0, "", "PATIENT IS MOVING", "WITHDRAWAL BY SUBJECT", "DISPOSITION EVENT", 11.0, "WEEK 20", "FOLLOW-UP", "2014-07-09", "2014-07-09", 139.0, 139.0]
["CDISCPILOT01", "DS", "01-704-1010", 2.0, "", "FINAL LAB VISIT", "FINAL LAB VISIT", "OTHER EVENT", 11.0, "WEEK 20", "FOLLOW-UP", "2014-07-09T11:00", "2014-07-09", 139.0, 139.0]
["CDISCPILOT01", "DS", "01-704-1017", 1.0, "14", "ADVERSE EVENT", "ADVERSE EVENT", "DISPOSITION EVENT", 7.0, "WEEK 6", "FOLLOW-UP", "2013-11-24", "2013-11-24", 50.0, 50.0]
["CDISCPILOT01", "DS", "01-704-1017", 2.0, "", "FINAL LAB VISIT", "FINAL LAB VISIT", "OTHER EVENT", 5.0, "WEEK 4", "TREATMENT", "2013-11-01T10:45", "2013-11-01", 27.0, 27.0]
["CDISCPILOT01", "DS", "01-704-1025", 1.0, "8", "ADVERSE EVENT", "ADVERSE EVENT", "DISPOSITION EVENT", 6.0, "AMBUL ECG REMOVAL", "FOLLOW-UP", "2013-11-29", "2013-11-29", 64.0, 64.0]
["CDISCPILOT01", "DS", "01-704-1025", 2.0, "", "FINAL LAB VISIT", "FINAL LAB VISIT", "OTHER EVENT", 6.0, "AMBUL ECG REMOVAL", "FOLLOW-UP", "2013-11-29T12:00", "2013-11-29", 64.0, 64.0]
["CDISCPILOT01", "DS", "01-704-1065", 1.0, "14", "ADVERSE EVENT", "ADVERSE EVENT", "DISPOSITION EVENT", 9.0, "WEEK 12", "FOLLOW-UP", "2013-12-24", "2013-12-24", 62.0, 62.0]
["CDISCPILOT01", "DS", "01-704-1065", 2.0, "", "FINAL LAB VISIT", "FINAL LAB VISIT", "OTHER EVENT", 9.0, "WEEK 12", "FOLLOW-UP", "2013-12-24T11:45", "2013-12-24", 62.0, 62.0]
["CDISCPILOT01", "DS", "01-704-1074", 1.0, "11", "ADVERSE EVENT", "ADVERSE EVENT", "DISPOSITION EVENT", 8.0, "WEEK 8", "FOLLOW-UP", "2014-03-31", "2014-03-31", 69.0, 69.0]
["CDISCPILOT01", "DS", "01-704-1074", 2.0, "", "FINAL LAB VISIT", "FINAL LAB VISIT", "OTHER EVENT", 8.0, "WEEK 8", "FOLLOW-UP", "2014-03-31T10:30", "2014-03-31", 69.0, 69.0]
["CDISCPILOT01", "DS", "01-704-1093", 1.0, "8", "ADVERSE EVENT", "ADVERSE EVENT", "DISPOSITION EVENT", 10.0, "WEEK 16", "FOLLOW-UP", "2013-06-20", "2013-06-20", 98.0, 98.0]
["CDISCPILOT01", "DS", "01-704-1093", 2.0, "", "FINAL LAB VISIT", "FINAL LAB VISIT", "OTHER EVENT", 10.0, "WEEK 16", "FOLLOW-UP", "2013-06-20T11:10", "2013-06-20", 98.0, 98.0]
["CDISCPILOT01", "DS", "01-704-1093", 3.0, "", "FINAL RETRIEVAL VISIT", "FINAL RETRIEVAL VISIT", "OTHER EVENT", 201.0, "RETRIEVAL", "FOLLOW-UP", "2013-12-25", "2013-12-25", 286.0, 286.0]
["CDISCPILOT01", "DS", "01-704-1114", 1.0, "", "LEAVING AREA FOR 5 MONTHS", "WITHDRAWAL BY SUBJECT", "DISPOSITION EVENT", 12.0, "WEEK 24", "FOLLOW-UP", "2013-07-08", "2013-07-08", 167.0, 167.0]
["CDISCPILOT01", "DS", "01-704-1114", 2.0, "", "FINAL LAB VISIT", "FINAL LAB VISIT", "OTHER EVENT", 12.0, "WEEK 24", "FOLLOW-UP", "2013-07-08T09:56", "2013-07-08", 167.0, 167.0]
["CDISCPILOT01", "DS", "01-704-1120", 1.0, "3", "ADVERSE EVENT", "ADVERSE EVENT", "DISPOSITION EVENT", 9.0, "WEEK 12", "FOLLOW-UP", "2014-02-03", "2014-02-03", 64.0, 64.0]
["CDISCPILOT01", "DS", "01-704-1120", 2.0, "", "FINAL LAB VISIT", "FINAL LAB VISIT", "OTHER EVENT", 9.0, "WEEK 12", "FOLLOW-UP", "2014-02-03T11:50", "2014-02-03", 64.0, 64.0]
["CDISCPILOT01", "DS", "01-704-1127", 1.0, "", "PROTOCOL COMPLETED", "COMPLETED", "DISPOSITION EVENT", 13.0, "WEEK 26", "FOLLOW-UP", "2014-03-31", "2014-03-31", 181.0, 181.0]
["CDISCPILOT01", "DS", "01-704-1127", 2.0, "", "FINAL LAB VISIT", "FINAL LAB VISIT", "OTHER EVENT", 13.0, "WEEK 26", "FOLLOW-UP", "2014-03-31T11:30", "2014-03-31", 181.0, 181.0]
["CDISCPILOT01", "DS", "01-704-1135", 1.0, "", "PROTOCOL COMPLETED", "COMPLETED", "DISPOSITION EVENT", 13.0, "WEEK 26", "FOLLOW-UP", "2014-05-16", "2014-05-16", 198.0, 198.0]
["CDISCPILOT01", "DS", "01-704-1135", 2.0, "", "FINAL LAB VISIT", "FINAL LAB VISIT", "OTHER EVENT", 13.0, "WEEK 26", "FOLLOW-UP", "2014-05-16T09:45", "2014-05-16", 198.0, 198.0]
["CDISCPILOT01", "DS", "01-704-1164", 1.0, "", "PROTOCOL COMPLETED", "COMPLETED", "DISPOSITION EVENT", 13.0, "WEEK 26", "FOLLOW-UP", "2013-04-04", "2013-04-04", 198.0, 198.0]
["CDISCPILOT01", "DS", "01-704-1164", 2.0, "", "FINAL LAB VISIT", "FINAL LAB VISIT", "OTHER EVENT", 13.0, "WEEK 26", "FOLLOW-UP", "2013-04-04", "2013-04-04", 198.0, 198.0]
["CDISCPILOT01", "DS", "01-704-1218", 1.0, "", "PROTOCOL COMPLETED", "COMPLETED", "DISPOSITION EVENT", 13.0, "WEEK 26", "FOLLOW-UP", "2013-05-27", "2013-05-27", 190.0, 190.0]
["CDISCPILOT01", "DS", "01-704-1218", 2.0, "", "FINAL LAB VISIT", "FINAL LAB VISIT", "OTHER EVENT", 13.0, "WEEK 26", "FOLLOW-UP", "2013-05-27T11:20", "2013-05-27", 190.0, 190.0]
["CDISCPILOT01", "DS", "01-704-1233", 1.0, "", "WITHDREW CONSENT", "WITHDRAWAL BY SUBJECT", "DISPOSITION EVENT", 11.0, "WEEK 20", "FOLLOW-UP", "2013-07-14", "2013-07-14", 116.0, 116.0]
["CDISCPILOT01", "DS", "01-704-1233", 2.0, "", "FINAL LAB VISIT", "FINAL LAB VISIT", "OTHER EVENT", 10.0, "WEEK 16", "TREATMENT", "2013-07-11T11:30", "2013-07-11", 113.0, 113.0]
["CDISCPILOT01", "DS", "01-704-1241", 1.0, "6", "ADVERSE EVENT", "ADVERSE EVENT", "DISPOSITION EVENT", 8.0, "WEEK 8", "FOLLOW-UP", "2013-10-31", "2013-10-31", 68.0, 68.0]
["CDISCPILOT01", "DS", "01-704-1241", 2.0, "", "FINAL LAB VISIT", "FINAL LAB VISIT", "OTHER EVENT", 8.0, "WEEK 8", "FOLLOW-UP", "2013-10-31T09:15", "2013-10-31", 68.0, 68.0]
["CDISCPILOT01", "DS", "01-704-1260", 1.0, "", "TOO MANY VISITS", "WITHDRAWAL BY SUBJECT", "DISPOSITION EVENT", 9.0, "WEEK 12", "FOLLOW-UP", "2013-01-18", "2013-01-18", 142.0, 142.0]
["CDISCPILOT01", "DS", "01-704-1260", 2.0, "", "FINAL LAB VISIT", "FINAL LAB VISIT", "OTHER EVENT", 8.0, "WEEK 8", "TREATMENT", "2012-10-24T15:45", "2012-10-24", 56.0, 56.0]
["CDISCPILOT01", "DS", "01-704-1266", 1.0, "16", "ADVERSE EVENT", "ADVERSE EVENT", "DISPOSITION EVENT", 8.0, "WEEK 8", "FOLLOW-UP", "2013-12-06", "2013-12-06", 55.0, 55.0]
["CDISCPILOT01", "DS", "01-704-1266", 2.0, "", "FINAL LAB VISIT", "FINAL LAB VISIT", "OTHER EVENT", 8.0, "WEEK 8", "FOLLOW-UP", "2013-12-06T13:15", "2013-12-06", 55.0, 55.0]
["CDISCPILOT01", "DS", "01-704-1323", 1.0, "12", "ADVERSE EVENT", "ADVERSE EVENT", "DISPOSITION EVENT", 7.0, "WEEK 6", "FOLLOW-UP", "2013-08-08", "2013-08-08", 32.0, 32.0]
["CDISCPILOT01", "DS", "01-704-1323", 2.0, "", "FINAL LAB VISIT", "FINAL LAB VISIT", "OTHER EVENT", 5.0, "WEEK 4", "TREATMENT", "2013-08-04T13:45", "2013-08-04", 28.0, 28.0]
["CDISCPILOT01", "DS", "01-704-1325", 1.0, "", "PROTOCOL VIOLATION", "PROTOCOL DEVIATION", "DISPOSITION EVENT", 10.0, "WEEK 16", "FOLLOW-UP", "2014-08-06", "2014-08-06", 106.0, 106.0]
["CDISCPILOT01", "DS", "01-704-1325", 2.0, "", "FINAL LAB VISIT", "FINAL LAB VISIT", "OTHER EVENT", 10.0, "WEEK 16", "FOLLOW-UP", "2014-08-06T13:30", "2014-08-06", 106.0, 106.0]
["CDISCPILOT01", "DS", "01-704-1332", 1.0, "6", "ADVERSE EVENT", "ADVERSE EVENT", "DISPOSITION EVENT", 9.0, "WEEK 12", "FOLLOW-UP", "2014-02-16", "2014-02-16", 70.0, 70.0]
["CDISCPILOT01", "DS", "01-704-1332", 2.0, "", "FINAL LAB VISIT", "FINAL LAB VISIT", "OTHER EVENT", 9.0, "WEEK 12", "FOLLOW-UP", "2014-02-16T14:30", "2014-02-16", 70.0, 70.0]
["CDISCPILOT01", "DS", "01-704-1351", 1.0, "", "PROTOCOL COMPLETED", "COMPLETED", "DISPOSITION EVENT", 13.0, "WEEK 26", "FOLLOW-UP", "2014-04-18", "2014-04-18", 189.0, 189.0]
["CDISCPILOT01", "DS", "01-704-1351", 2.0, "", "FINAL LAB VISIT", "FINAL LAB VISIT", "OTHER EVENT", 13.0, "WEEK 26", "FOLLOW-UP", "2014-04-18T10:30", "2014-04-18", 189.0, 189.0]
["CDISCPILOT01", "DS", "01-704-1388", 1.0, "", "PROTOCOL COMPLETED", "COMPLETED", "DISPOSITION EVENT", 13.0, "WEEK 26", "FOLLOW-UP", "2013-06-19", "2013-06-19", 195.0, 195.0]
["CDISCPILOT01", "DS", "01-704-1388", 2.0, "", "FINAL LAB VISIT", "FINAL LAB VISIT", "OTHER EVENT", 13.0, "WEEK 26", "FOLLOW-UP", "2013-06-19T12:30", "2013-06-19", 195.0, 195.0]
["CDISCPILOT01", "DS", "01-704-1435", 1.0, "", "WITHDREW CONSENT", "WITHDRAWAL BY SUBJECT", "DISPOSITION EVENT", 8.0, "WEEK 8", "FOLLOW-UP", "2013-01-12", "2013-01-12", 57.0, 57.0]
["CDISCPILOT01", "DS", "01-704-1435", 2.0, "", "FINAL LAB VISIT", "FINAL LAB VISIT", "OTHER EVENT", 8.0, "WEEK 8", "FOLLOW-UP", "2013-01-12T12:00", "2013-01-12", 57.0, 57.0]
["CDISCPILOT01", "DS", "01-704-1445", 1.0, "8", "DEATH", "DEATH", "DISPOSITION EVENT", 12.0, "WEEK 24", "FOLLOW-UP", "2014-11-01", "2014-11-01", 175.0, 175.0]
["CDISCPILOT01", "DS", "01-704-1445", 2.0, "", "FINAL LAB VISIT", "FINAL LAB VISIT", "OTHER EVENT", 11.0, "WEEK 20", "TREATMENT", "2014-10-01T09:30", "2014-10-01", 144.0, 144.0]
["CDISCPILOT01", "DS", "01-705-1011", 1.0, "", "SCREEN FAILURE", "SCREEN FAILURE", "DISPOSITION EVENT", 1.0, "SCREENING 1", "SCREENING", "2013-09-01", "2013-09-01", null, null]
["CDISCPILOT01", "DS", "01-705-1018", 1.0, "", "PATIENT WITHDREW CONSENT", "WITHDRAWAL BY SUBJECT", "DISPOSITION EVENT", 4.0, "WEEK 2", "FOLLOW-UP", "2013-07-12", "2013-07-12", 8.0, 8.0]
["CDISCPILOT01", "DS", "01-705-1018", 2.0, "", "FINAL LAB VISIT", "FINAL LAB VISIT", "OTHER EVENT", 1.0, "SCREENING 1", "SCREENING", "2013-06-30T10:00", "2013-06-30", -5.0, -5.0]
["CDISCPILOT01", "DS", "01-705-1031", 1.0, "", "UNABLE TO CONTACT PATIENT (LOST TO FOLLOW-UP)", "LOST TO FOLLOW-UP", "DISPOSITION EVENT", 12.0, "WEEK 24", "FOLLOW-UP", "2014-05-11", "2014-05-11", 166.0, 166.0]
["CDISCPILOT01", "DS", "01-705-1031", 2.0, "", "FINAL LAB VISIT", "FINAL LAB VISIT", "OTHER EVENT", 12.0, "WEEK 24", "FOLLOW-UP", "2014-05-11T09:55", "2014-05-11", 166.0, 166.0]
["CDISCPILOT01", "DS", "01-705-1058", 1.0, "", "SCREEN FAILURE", "SCREEN FAILURE", "DISPOSITION EVENT", 1.0, "SCREENING 1", "SCREENING", "2013-12-02", "2013-12-02", null, null]
["CDISCPILOT01", "DS", "01-705-1059", 1.0, "3", "ADVERSE EVENT", "ADVERSE EVENT", "DISPOSITION EVENT", 10.0, "WEEK 16", "FOLLOW-UP", "2013-12-05", "2013-12-05", 123.0, 123.0]
["CDISCPILOT01", "DS", "01-705-1059", 2.0, "", "FINAL LAB VISIT", "FINAL LAB VISIT", "OTHER EVENT", 10.0, "WEEK 16", "FOLLOW-UP", "2013-12-05T09:55", "2013-12-05", 123.0, 123.0]
["CDISCPILOT01", "DS", "01-705-1059", 3.0, "", "FINAL RETRIEVAL VISIT", "FINAL RETRIEVAL VISIT", "OTHER EVENT", 201.0, "RETRIEVAL", "FOLLOW-UP", "2014-02-06", "2014-02-06", 186.0, 186.0]
["CDISCPILOT01", "DS", "01-705-1112", 1.0, "", "SCREEN FAILURE", "SCREEN FAILURE", "DISPOSITION EVENT", 1.0, "SCREENING 1", "SCREENING", "2014-02-23", "2014-02-23", null, null]
["CDISCPILOT01", "DS", "01-705-1186", 1.0, "", "HYPERBILIRUBINEMIA", "PHYSICIAN DECISION", "DISPOSITION EVENT", 5.0, "WEEK 4", "FOLLOW-UP", "2014-02-07", "2014-02-07", 31.0, 31.0]
["CDISCPILOT01", "DS", "01-705-1186", 2.0, "", "FINAL LAB VISIT", "FINAL LAB VISIT", "OTHER EVENT", 5.1, "UNSCHEDULED 5.1", "FOLLOW-UP", "2014-02-07T15:20", "2014-02-07", 31.0, 31.0]
["CDISCPILOT01", "DS", "01-705-1199", 1.0, "7", "ADVERSE EVENT", "ADVERSE EVENT", "DISPOSITION EVENT", 4.0, "WEEK 2", "FOLLOW-UP", "2013-09-29", "2013-09-29", 14.0, 14.0]
["CDISCPILOT01", "DS", "01-705-1199", 2.0, "", "FINAL LAB VISIT", "FINAL LAB VISIT", "OTHER EVENT", 4.0, "WEEK 2", "FOLLOW-UP", "2013-09-29T10:30", "2013-09-29", 14.0, 14.0]
["CDISCPILOT01", "DS", "01-705-1243", 1.0, "", "SCREEN FAILURE", "SCREEN FAILURE", "DISPOSITION EVENT", 1.0, "SCREENING 1", "SCREENING", "2013-02-26", "2013-02-26", null, null]
["CDISCPILOT01", "DS", "01-705-1280", 1.0, "", "PROTOCOL COMPLETED", "COMPLETED", "DISPOSITION EVENT", 13.0, "WEEK 26", "FOLLOW-UP", "2014-07-25", "2014-07-25", 190.0, 190.0]
["CDISCPILOT01", "DS", "01-705-1280", 2.0, "", "FINAL LAB VISIT", "FINAL LAB VISIT", "OTHER EVENT", 13.0, "WEEK 26", "TREATMENT", "2014-07-24T15:30", "2014-07-24", 189.0, 189.0]
["CDISCPILOT01", "DS", "01-705-1281", 1.0, "5", "ADVERSE EVENT", "ADVERSE EVENT", "DISPOSITION EVENT", 10.0, "WEEK 16", "FOLLOW-UP", "2014-03-17", "2014-03-17", 110.0, 110.0]
["CDISCPILOT01", "DS", "01-705-1281", 2.0, "", "FINAL LAB VISIT", "FINAL LAB VISIT", "OTHER EVENT", 10.0, "WEEK 16", "FOLLOW-UP", "2014-03-17T09:50", "2014-03-17", 110.0, 110.0]
["CDISCPILOT01", "DS", "01-705-1282", 1.0, "", "PROTOCOL COMPLETED", "COMPLETED", "DISPOSITION EVENT", 13.0, "WEEK 26", "FOLLOW-UP", "2013-06-24", "2013-06-24", 181.0, 181.0]
["CDISCPILOT01", "DS", "01-705-1282", 2.0, "", "FINAL LAB VISIT", "FINAL LAB VISIT", "OTHER EVENT", 13.0, "WEEK 26", "FOLLOW-UP", "2013-06-24T15:25", "2013-06-24", 181.0, 181.0]
["CDISCPILOT01", "DS", "01-705-1292", 1.0, "", "PROTOCOL COMPLETED", "COMPLETED", "DISPOSITION EVENT", 13.0, "WEEK 26", "FOLLOW-UP", "2014-05-14", "2014-05-14", 213.0, 213.0]
["CDISCPILOT01", "DS", "01-705-1292", 2.0, "", "FINAL LAB VISIT", "FINAL LAB VISIT", "OTHER EVENT", 13.0, "WEEK 26", "FOLLOW-UP", "2014-05-14T13:33", "2014-05-14", 213.0, 213.0]
["CDISCPILOT01", "DS", "01-705-1303", 1.0, "3", "ADVERSE EVENT", "ADVERSE EVENT", "DISPOSITION EVENT", 11.0, "WEEK 20", "FOLLOW-UP", "2014-06-02", "2014-06-02", 169.0, 169.0]
["CDISCPILOT01", "DS", "01-705-1303", 2.0, "", "FINAL LAB VISIT", "FINAL LAB VISIT", "OTHER EVENT", 10.0, "WEEK 16", "TREATMENT", "2014-04-07T14:27", "2014-04-07", 113.0, 113.0]
["CDISCPILOT01", "DS", "01-705-1310", 1.0, "3", "ADVERSE EVENT", "ADVERSE EVENT", "DISPOSITION EVENT", 9.0, "WEEK 12", "FOLLOW-UP", "2014-01-23", "2014-01-23", 83.0, 83.0]
["CDISCPILOT01", "DS", "01-705-1310", 2.0, "", "FINAL LAB VISIT", "FINAL LAB VISIT", "OTHER EVENT", 9.0, "WEEK 12", "FOLLOW-UP", "2014-01-23T09:40", "2014-01-23", 83.0, 83.0]
["CDISCPILOT01", "DS", "01-705-1349", 1.0, "", "PROTOCOL COMPLETED", "COMPLETED", "DISPOSITION EVENT", 13.0, "WEEK 26", "FOLLOW-UP", "2013-09-08", "2013-09-08", 183.0, 183.0]
["CDISCPILOT01", "DS", "01-705-1349", 2.0, "", "FINAL LAB VISIT", "FINAL LAB VISIT", "OTHER EVENT", 13.0, "WEEK 26", "FOLLOW-UP", "2013-09-08T10:10", "2013-09-08", 183.0, 183.0]
["CDISCPILOT01", "DS", "01-705-1377", 1.0, "", "PATIENT WITHDREW CONSENT", "WITHDRAWAL BY SUBJECT", "DISPOSITION EVENT", 7.0, "WEEK 6", "FOLLOW-UP", "2014-03-07", "2014-03-07", 63.0, 63.0]
["CDISCPILOT01", "DS", "01-705-1377", 2.0, "", "FINAL LAB VISIT", "FINAL LAB VISIT", "OTHER EVENT", 5.0, "WEEK 4", "TREATMENT", "2014-02-07T09:25", "2014-02-07", 35.0, 35.0]
["CDISCPILOT01", "DS", "01-705-1382", 1.0, "", "PROTOCOL ENTRY CRITERIA NOT MET", "PROTOCOL DEVIATION", "DISPOSITION EVENT", 4.0, "WEEK 2", "FOLLOW-UP", "2013-05-13", "2013-05-13", 1.0, 1.0]
["CDISCPILOT01", "DS", "01-705-1382", 2.0, "", "FINAL LAB VISIT", "FINAL LAB VISIT", "OTHER EVENT", 1.0, "SCREENING 1", "SCREENING", "2013-05-09T11:15", "2013-05-09", -4.0, -4.0]
["CDISCPILOT01", "DS", "01-705-1393", 1.0, "6", "ADVERSE EVENT", "ADVERSE EVENT", "DISPOSITION EVENT", 11.0, "WEEK 20", "FOLLOW-UP", "2013-02-20", "2013-02-20", 167.0, 167.0]
["CDISCPILOT01", "DS", "01-705-1393", 2.0, "", "FINAL LAB VISIT", "FINAL LAB VISIT", "OTHER EVENT", 11.0, "WEEK 20", "FOLLOW-UP", "2013-02-20T16:35", "2013-02-20", 167.0, 167.0]
["CDISCPILOT01", "DS", "01-705-1421", 1.0, "", "SCREEN FAILURE", "SCREEN FAILURE", "DISPOSITION EVENT", 1.0, "SCREENING 1", "SCREENING", "2013-01-14", "2013-01-14", null, null]
["CDISCPILOT01", "DS", "01-705-1431", 1.0, "", "PROTOCOL COMPLETED", "COMPLETED", "DISPOSITION EVENT", 13.0, "WEEK 26", "FOLLOW-UP", "2013-12-19", "2013-12-19", 180.0, 180.0]
["CDISCPILOT01", "DS", "01-705-1431", 2.0, "", "FINAL LAB VISIT", "FINAL LAB VISIT", "OTHER EVENT", 13.0, "WEEK 26", "FOLLOW-UP", "2013-12-19T10:05", "2013-12-19", 180.0, 180.0]
["CDISCPILOT01", "DS", "01-706-1041", 1.0, "", "PROTOCOL COMPLETED", "COMPLETED", "DISPOSITION EVENT", 13.0, "WEEK 26", "FOLLOW-UP", "2014-07-29", "2014-07-29", 211.0, 211.0]
["CDISCPILOT01", "DS", "01-706-1041", 2.0, "", "FINAL LAB VISIT", "FINAL LAB VISIT", "OTHER EVENT", 13.0, "WEEK 26", "FOLLOW-UP", "2014-07-29T13:45", "2014-07-29", 211.0, 211.0]
["CDISCPILOT01", "DS", "01-706-1049", 1.0, "5", "ADVERSE EVENT", "ADVERSE EVENT", "DISPOSITION EVENT", 7.0, "WEEK 6", "FOLLOW-UP", "2013-06-25", "2013-06-25", 43.0, 43.0]
["CDISCPILOT01", "DS", "01-706-1049", 2.0, "", "FINAL LAB VISIT", "FINAL LAB VISIT", "OTHER EVENT", 7.0, "WEEK 6", "FOLLOW-UP", "2013-06-25T11:00", "2013-06-25", 43.0, 43.0]
["CDISCPILOT01", "DS", "01-706-1049", 3.0, "", "FINAL RETRIEVAL VISIT", "FINAL RETRIEVAL VISIT", "OTHER EVENT", 201.0, "RETRIEVAL", "FOLLOW-UP", "2013-11-26", "2013-11-26", 197.0, 197.0]
["CDISCPILOT01", "DS", "01-706-1384", 1.0, "14", "ADVERSE EVENT", "ADVERSE EVENT", "DISPOSITION EVENT", 4.0, "WEEK 2", "FOLLOW-UP", "2012-09-29", "2012-09-29", 15.0, 15.0]
["CDISCPILOT01", "DS", "01-706-1384", 2.0, "", "FINAL LAB VISIT", "FINAL LAB VISIT", "OTHER EVENT", 4.0, "WEEK 2", "FOLLOW-UP", "2012-09-29T10:00", "2012-09-29", 15.0, 15.0]
["CDISCPILOT01", "DS", "01-706-1384", 3.0, "", "FINAL RETRIEVAL VISIT", "FINAL RETRIEVAL VISIT", "OTHER EVENT", 201.0, "RETRIEVAL", "FOLLOW-UP", "2013-06-22", "2013-06-22", 281.0, 281.0]
["CDISCPILOT01", "DS", "01-707-1037", 1.0, "", "WITHDRAWS CONSENT", "WITHDRAWAL BY SUBJECT", "DISPOSITION EVENT", 4.0, "WEEK 2", "FOLLOW-UP", "2014-01-08", "2014-01-08", 20.0, 20.0]
["CDISCPILOT01", "DS", "01-707-1037", 2.0, "", "FINAL LAB VISIT", "FINAL LAB VISIT", "OTHER EVENT", 4.0, "WEEK 2", "FOLLOW-UP", "2014-01-08T12:40", "2014-01-08", 20.0, 20.0]
["CDISCPILOT01", "DS", "01-707-1206", 1.0, "", "PROTOCOL COMPLETED", "COMPLETED", "DISPOSITION EVENT", 13.0, "WEEK 26", "FOLLOW-UP", "2014-04-27", "2014-04-27", 182.0, 182.0]
["CDISCPILOT01", "DS", "01-707-1206", 2.0, "", "FINAL LAB VISIT", "FINAL LAB VISIT", "OTHER EVENT", 13.0, "WEEK 26", "FOLLOW-UP", "2014-04-27T08:00", "2014-04-27", 182.0, 182.0]
["CDISCPILOT01", "DS", "01-707-1276", 1.0, "", "SCREEN FAILURE", "SCREEN FAILURE", "DISPOSITION EVENT", 1.0, "SCREENING 1", "SCREENING", "2012-10-12", "2012-10-12", null, null]
["CDISCPILOT01", "DS", "01-707-1430", 1.0, "", "SCREEN FAILURE", "SCREEN FAILURE", "DISPOSITION EVENT", 1.0, "SCREENING 1", "SCREENING", "2014-02-14", "2014-02-14", null, null]
["CDISCPILOT01", "DS", "01-707-1434", 1.0, "", "SCREEN FAILURE", "SCREEN FAILURE", "DISPOSITION EVENT", 1.0, "SCREENING 1", "SCREENING", "2013-07-25", "2013-07-25", null, null]
["CDISCPILOT01", "DS", "01-708-1013", 1.0, "", "SCREEN FAILURE", "SCREEN FAILURE", "DISPOSITION EVENT", 1.0, "SCREENING 1", "SCREENING", "2012-10-13", "2012-10-13", null, null]
["CDISCPILOT01", "DS", "01-708-1019", 1.0, "6", "ADVERSE EVENT", "ADVERSE EVENT", "DISPOSITION EVENT", 4.0, "WEEK 2", "FOLLOW-UP", "2014-01-23", "2014-01-23", 35.0, 35.0]
["CDISCPILOT01", "DS", "01-708-1019", 2.0, "", "FINAL LAB VISIT", "FINAL LAB VISIT", "OTHER EVENT", 4.0, "WEEK 2", "FOLLOW-UP", "2014-01-23T10:10", "2014-01-23", 35.0, 35.0]
["CDISCPILOT01", "DS", "01-708-1032", 1.0, "5", "ADVERSE EVENT", "ADVERSE EVENT", "DISPOSITION EVENT", 5.0, "WEEK 4", "FOLLOW-UP", "2013-03-09", "2013-03-09", 29.0, 29.0]
["CDISCPILOT01", "DS", "01-708-1032", 2.0, "", "FINAL LAB VISIT", "FINAL LAB VISIT", "OTHER EVENT", 5.0, "WEEK 4", "FOLLOW-UP", "2013-03-09T10:45", "2013-03-09", 29.0, 29.0]
["CDISCPILOT01", "DS", "01-708-1054", 1.0, "", "SCREEN FAILURE", "SCREEN FAILURE", "DISPOSITION EVENT", 1.0, "SCREENING 1", "SCREENING", "2014-02-14", "2014-02-14", null, null]
["CDISCPILOT01", "DS", "01-708-1067", 1.0, "", "SCREEN FAILURE", "SCREEN FAILURE", "DISPOSITION EVENT", 1.0, "SCREENING 1", "SCREENING", "2013-02-07", "2013-02-07", null, null]
["CDISCPILOT01", "DS", "01-708-1084", 1.0, "", "PROTOCOL COMPLETED", "COMPLETED", "DISPOSITION EVENT", 13.0, "WEEK 26", "FOLLOW-UP", "2013-11-11", "2013-11-11", 187.0, 187.0]
["CDISCPILOT01", "DS", "01-708-1084", 2.0, "", "FINAL LAB VISIT", "FINAL LAB VISIT", "OTHER EVENT", 13.0, "WEEK 26", "FOLLOW-UP", "2013-11-11T10:00", "2013-11-11", 187.0, 187.0]
["CDISCPILOT01", "DS", "01-708-1087", 1.0, "", "PROTOCOL COMPLETED", "COMPLETED", "DISPOSITION EVENT", 13.0, "WEEK 26", "FOLLOW-UP", "2013-04-28", "2013-04-28", 189.0, 189.0]
["CDISCPILOT01", "DS", "01-708-1087", 2.0, "", "FINAL LAB VISIT", "FINAL LAB VISIT", "OTHER EVENT", 13.0, "WEEK 26", "FOLLOW-UP", "2013-04-28T12:40", "2013-04-28", 189.0, 189.0]
["CDISCPILOT01", "DS", "01-708-1104", 1.0, "", "SCREEN FAILURE", "SCREEN FAILURE", "DISPOSITION EVENT", 1.0, "SCREENING 1", "SCREENING", "2014-01-23", "2014-01-23", null, null]
["CDISCPILOT01", "DS", "01-708-1158", 1.0, "8", "ADVERSE EVENT", "ADVERSE EVENT", "DISPOSITION EVENT", 7.0, "WEEK 6", "FOLLOW-UP", "2014-03-22", "2014-03-22", 43.0, 43.0]
["CDISCPILOT01", "DS", "01-708-1158", 2.0, "", "FINAL LAB VISIT", "FINAL LAB VISIT", "OTHER EVENT", 7.0, "WEEK 6", "FOLLOW-UP", "2014-03-22T11:15", "2014-03-22", 43.0, 43.0]
["CDISCPILOT01", "DS", "01-708-1171", 1.0, "", "PROTOCOL COMPLETED", "COMPLETED", "DISPOSITION EVENT", 13.0, "WEEK 26", "FOLLOW-UP", "2013-06-04", "2013-06-04", 181.0, 181.0]
["CDISCPILOT01", "DS", "01-708-1171", 2.0, "", "FINAL LAB VISIT", "FINAL LAB VISIT", "OTHER EVENT", 13.0, "WEEK 26", "TREATMENT", "2013-06-03T10:40", "2013-06-03", 180.0, 180.0]
["CDISCPILOT01", "DS", "01-708-1178", 1.0, "", "DR PUT PT ON AN EXCLUDED MEDICATION", "PHYSICIAN DECISION", "DISPOSITION EVENT", 9.0, "WEEK 12", "FOLLOW-UP", "2014-04-06", "2014-04-06", 99.0, 99.0]
["CDISCPILOT01", "DS", "01-708-1178", 2.0, "", "FINAL LAB VISIT", "FINAL LAB VISIT", "OTHER EVENT", 9.0, "WEEK 12", "FOLLOW-UP", "2014-04-06T08:50", "2014-04-06", 99.0, 99.0]
["CDISCPILOT01", "DS", "01-708-1184", 1.0, "", "SCREEN FAILURE", "SCREEN FAILURE", "DISPOSITION EVENT", 1.0, "SCREENING 1", "SCREENING", "2013-01-14", "2013-01-14", null, null]
["CDISCPILOT01", "DS", "01-708-1213", 1.0, "4", "ADVERSE EVENT", "ADVERSE EVENT", "DISPOSITION EVENT", 5.0, "WEEK 4", "FOLLOW-UP", "2013-02-26", "2013-02-26", 18.0, 18.0]
["CDISCPILOT01", "DS", "01-708-1213", 2.0, "", "FINAL LAB VISIT", "FINAL LAB VISIT", "OTHER EVENT", 4.0, "WEEK 2", "TREATMENT", "2013-02-22T11:05", "2013-02-22", 14.0, 14.0]
["CDISCPILOT01", "DS", "01-708-1216", 1.0, "4", "ADVERSE EVENT", "ADVERSE EVENT", "DISPOSITION EVENT", 7.0, "WEEK 6", "FOLLOW-UP", "2012-12-06", "2012-12-06", 44.0, 44.0]
["CDISCPILOT01", "DS", "01-708-1216", 2.0, "", "FINAL LAB VISIT", "FINAL LAB VISIT", "OTHER EVENT", 7.0, "WEEK 6", "FOLLOW-UP", "2012-12-06T11:50", "2012-12-06", 44.0, 44.0]
["CDISCPILOT01", "DS", "01-708-1236", 1.0, "", "PATIENT WITHDREW CONSENT", "WITHDRAWAL BY SUBJECT", "DISPOSITION EVENT", 4.0, "WEEK 2", "FOLLOW-UP", "2013-09-26", "2013-09-26", 6.0, 6.0]
["CDISCPILOT01", "DS", "01-708-1236", 2.0, "", "FINAL LAB VISIT", "FINAL LAB VISIT", "OTHER EVENT", 1.1, "UNSCHEDULED 1.1", "SCREENING", "2013-09-19T10:35", "2013-09-19", -2.0, -2.0]
["CDISCPILOT01", "DS", "01-708-1242", 1.0, "", "SCREEN FAILURE", "SCREEN FAILURE", "DISPOSITION EVENT", 1.0, "SCREENING 1", "SCREENING", "2012-08-13", "2012-08-13", null, null]
["CDISCPILOT01", "DS", "01-708-1253", 1.0, "", "PROTOCOL COMPLETED", "COMPLETED", "DISPOSITION EVENT", 13.0, "WEEK 26", "FOLLOW-UP", "2013-11-05", "2013-11-05", 183.0, 183.0]
["CDISCPILOT01", "DS", "01-708-1253", 2.0, "", "FINAL LAB VISIT", "FINAL LAB VISIT", "OTHER EVENT", 13.0, "WEEK 26", "TREATMENT", "2013-11-04T13:40", "2013-11-04", 182.0, 182.0]
["CDISCPILOT01", "DS", "01-708-1272", 1.0, "", "PATCH DISCOMFORT", "WITHDRAWAL BY SUBJECT", "DISPOSITION EVENT", 8.0, "WEEK 8", "FOLLOW-UP", "2013-04-04", "2013-04-04", 58.0, 58.0]
["CDISCPILOT01", "DS", "01-708-1272", 2.0, "", "FINAL LAB VISIT", "FINAL LAB VISIT", "OTHER EVENT", 8.0, "WEEK 8", "FOLLOW-UP", "2013-04-04T11:05", "2013-04-04", 58.0, 58.0]
["CDISCPILOT01", "DS", "01-708-1286", 1.0, "", "PROTOCOL COMPLETED", "COMPLETED", "DISPOSITION EVENT", 13.0, "WEEK 26", "FOLLOW-UP", "2014-03-08", "2014-03-08", 180.0, 180.0]
["CDISCPILOT01", "DS", "01-708-1286", 2.0, "", "FINAL LAB VISIT", "FINAL LAB VISIT", "OTHER EVENT", 13.0, "WEEK 26", "FOLLOW-UP", "2014-03-08T09:50", "2014-03-08", 180.0, 180.0]
["CDISCPILOT01", "DS", "01-708-1296", 1.0, "", "PROTOCOL COMPLETED", "COMPLETED", "DISPOSITION EVENT", 13.0, "WEEK 26", "FOLLOW-UP", "2013-12-12", "2013-12-12", 182.0, 182.0]
["CDISCPILOT01", "DS", "01-708-1296", 2.0, "", "FINAL LAB VISIT", "FINAL LAB VISIT", "OTHER EVENT", 13.0, "WEEK 26", "FOLLOW-UP", "2013-12-12T09:30", "2013-12-12", 182.0, 182.0]
["CDISCPILOT01", "DS", "01-708-1297", 1.0, "4", "ADVERSE EVENT", "ADVERSE EVENT", "DISPOSITION EVENT", 10.0, "WEEK 16", "FOLLOW-UP", "2013-05-08", "2013-05-08", 104.0, 104.0]
["CDISCPILOT01", "DS", "01-708-1297", 2.0, "", "FINAL LAB VISIT", "FINAL LAB VISIT", "OTHER EVENT", 10.0, "WEEK 16", "FOLLOW-UP", "2013-05-08T10:30", "2013-05-08", 104.0, 104.0]
["CDISCPILOT01", "DS", "01-708-1316", 1.0, "", "PROTOCOL COMPLETED", "COMPLETED", "DISPOSITION EVENT", 13.0, "WEEK 26", "FOLLOW-UP", "2014-03-01", "2014-03-01", 191.0, 191.0]
["CDISCPILOT01", "DS", "01-708-1316", 2.0, "", "FINAL LAB VISIT", "FINAL LAB VISIT", "OTHER EVENT", 13.0, "WEEK 26", "FOLLOW-UP", "2014-03-01T10:25", "2014-03-01", 191.0, 191.0]
["CDISCPILOT01", "DS", "01-708-1336", 1.0, "", "PROTOCOL COMPLETED", "COMPLETED", "DISPOSITION EVENT", 13.0, "WEEK 26", "FOLLOW-UP", "2013-06-05", "2013-06-05", 181.0, 181.0]
["CDISCPILOT01", "DS", "01-708-1336", 2.0, "", "FINAL LAB VISIT", "FINAL LAB VISIT", "OTHER EVENT", 13.0, "WEEK 26", "FOLLOW-UP", "2013-06-05", "2013-06-05", 181.0, 181.0]
["CDISCPILOT01", "DS", "01-708-1342", 1.0, "", "PROTOCOL COMPLETED", "COMPLETED", "DISPOSITION EVENT", 13.0, "WEEK 26", "FOLLOW-UP", "2013-06-28", "2013-06-28", 182.0, 182.0]
["CDISCPILOT01", "DS", "01-708-1342", 2.0, "", "FINAL LAB VISIT", "FINAL LAB VISIT", "OTHER EVENT", 13.0, "WEEK 26", "FOLLOW-UP", "2013-06-28T09:40", "2013-06-28", 182.0, 182.0]
["CDISCPILOT01", "DS", "01-708-1347", 1.0, "5", "ADVERSE EVENT", "ADVERSE EVENT", "DISPOSITION EVENT", 9.0, "WEEK 12", "FOLLOW-UP", "2013-06-18", "2013-06-18", 60.0, 60.0]
["CDISCPILOT01", "DS", "01-708-1347", 2.0, "", "FINAL LAB VISIT", "FINAL LAB VISIT", "OTHER EVENT", 9.0, "WEEK 12", "FOLLOW-UP", "2013-06-18T09:20", "2013-06-18", 60.0, 60.0]
["CDISCPILOT01", "DS", "01-708-1348", 1.0, "", "PROTOCOL COMPLETED", "COMPLETED", "DISPOSITION EVENT", 13.0, "WEEK 26", "FOLLOW-UP", "2014-02-13", "2014-02-13", 193.0, 193.0]
["CDISCPILOT01", "DS", "01-708-1348", 2.0, "", "FINAL LAB VISIT", "FINAL LAB VISIT", "OTHER EVENT", 13.0, "WEEK 26", "FOLLOW-UP", "2014-02-13T10:25", "2014-02-13", 193.0, 193.0]
["CDISCPILOT01", "DS", "01-708-1352", 1.0, "", "SCREEN FAILURE", "SCREEN FAILURE", "DISPOSITION EVENT", 1.0, "SCREENING 1", "SCREENING", "2013-09-16", "2013-09-16", null, null]
["CDISCPILOT01", "DS", "01-708-1353", 1.0, "7", "ADVERSE EVENT", "ADVERSE EVENT", "DISPOSITION EVENT", 8.0, "WEEK 8", "FOLLOW-UP", "2013-09-10", "2013-09-10", 69.0, 69.0]
["CDISCPILOT01", "DS", "01-708-1353", 2.0, "", "FINAL LAB VISIT", "FINAL LAB VISIT", "OTHER EVENT", 8.0, "WEEK 8", "FOLLOW-UP", "2013-09-10T13:15", "2013-09-10", 69.0, 69.0]
["CDISCPILOT01", "DS", "01-708-1372", 1.0, "", "PROTOCOL ENTRY CRITERIA NOT MET", "PROTOCOL DEVIATION", "DISPOSITION EVENT", 4.0, "WEEK 2", "FOLLOW-UP", "2013-05-10", "2013-05-10", 29.0, 29.0]
["CDISCPILOT01", "DS", "01-708-1372", 2.0, "", "FINAL LAB VISIT", "FINAL LAB VISIT", "OTHER EVENT", 1.0, "SCREENING 1", "SCREENING", "2013-04-03T11:00", "2013-04-03", -9.0, -9.0]
["CDISCPILOT01", "DS", "01-708-1378", 1.0, "", "SPONSOR DECISION (STUDY OR PATIENT DISCONTINUED BY THE SPONSOR)", "STUDY TERMINATED BY SPONSOR", "DISPOSITION EVENT", 11.0, "WEEK 20", "FOLLOW-UP", "2014-01-28", "2014-01-28", 148.0, 148.0]
["CDISCPILOT01", "DS", "01-708-1378", 2.0, "", "FINAL LAB VISIT", "FINAL LAB VISIT", "OTHER EVENT", 11.0, "WEEK 20", "FOLLOW-UP", "2014-01-28T13:00", "2014-01-28", 148.0, 148.0]
["CDISCPILOT01", "DS", "01-708-1406", 1.0, "", "PROTOCOL COMPLETED", "COMPLETED", "DISPOSITION EVENT", 13.0, "WEEK 26", "FOLLOW-UP", "2014-07-02", "2014-07-02", 189.0, 189.0]
["CDISCPILOT01", "DS", "01-708-1406", 2.0, "", "FINAL LAB VISIT", "FINAL LAB VISIT", "OTHER EVENT", 13.0, "WEEK 26", "FOLLOW-UP", "2014-07-02T13:45", "2014-07-02", 189.0, 189.0]
["CDISCPILOT01", "DS", "01-708-1428", 1.0, "2", "ADVERSE EVENT", "ADVERSE EVENT", "DISPOSITION EVENT", 8.0, "WEEK 8", "FOLLOW-UP", "2014-01-31", "2014-01-31", 84.0, 84.0]
["CDISCPILOT01", "DS", "01-708-1428", 2.0, "", "FINAL LAB VISIT", "FINAL LAB VISIT", "OTHER EVENT", 8.0, "WEEK 8", "FOLLOW-UP", "2014-01-31T11:10", "2014-01-31", 84.0, 84.0]
["CDISCPILOT01", "DS", "01-709-1001", 1.0, "", "PROTOCOL COMPLETED", "COMPLETED", "DISPOSITION EVENT", 13.0, "WEEK 26", "FOLLOW-UP", "2014-04-08", "2014-04-08", 183.0, 183.0]
["CDISCPILOT01", "DS", "01-709-1001", 2.0, "", "FINAL LAB VISIT", "FINAL LAB VISIT", "OTHER EVENT", 12.0, "WEEK 24", "TREATMENT", "2014-03-17T11:10", "2014-03-17", 161.0, 161.0]
["CDISCPILOT01", "DS", "01-709-1007", 1.0, "4", "ADVERSE EVENT", "ADVERSE EVENT", "DISPOSITION EVENT", 5.0, "WEEK 4", "FOLLOW-UP", "2012-09-01", "2012-09-01", 33.0, 33.0]
["CDISCPILOT01", "DS", "01-709-1007", 2.0, "", "FINAL LAB VISIT", "FINAL LAB VISIT", "OTHER EVENT", 5.0, "WEEK 4", "FOLLOW-UP", "2012-09-01T12:30", "2012-09-01", 33.0, 33.0]
["CDISCPILOT01", "DS", "01-709-1020", 1.0, "", "PROTOCOL COMPLETED", "COMPLETED", "DISPOSITION EVENT", 13.0, "WEEK 26", "FOLLOW-UP", "2013-06-01", "2013-06-01", 183.0, 183.0]
["CDISCPILOT01", "DS", "01-709-1020", 2.0, "", "FINAL LAB VISIT", "FINAL LAB VISIT", "OTHER EVENT", 13.0, "WEEK 26", "FOLLOW-UP", "2013-06-01T10:40", "2013-06-01", 183.0, 183.0]
["CDISCPILOT01", "DS", "01-709-1029", 1.0, "", "PROTOCOL COMPLETED", "COMPLETED", "DISPOSITION EVENT", 13.0, "WEEK 26", "FOLLOW-UP", "2013-06-26", "2013-06-26", 184.0, 184.0]
["CDISCPILOT01", "DS", "01-709-1029", 2.0, "", "FINAL LAB VISIT", "FINAL LAB VISIT", "OTHER EVENT", 13.0, "WEEK 26", "FOLLOW-UP", "2013-06-26T10:58", "2013-06-26", 184.0, 184.0]
["CDISCPILOT01", "DS", "01-709-1081", 1.0, "8", "ADVERSE EVENT", "ADVERSE EVENT", "DISPOSITION EVENT", 10.0, "WEEK 16", "FOLLOW-UP", "2014-05-10", "2014-05-10", 113.0, 113.0]
["CDISCPILOT01", "DS", "01-709-1081", 2.0, "", "FINAL LAB VISIT", "FINAL LAB VISIT", "OTHER EVENT", 10.0, "WEEK 16", "FOLLOW-UP", "2014-05-10T11:15", "2014-05-10", 113.0, 113.0]
["CDISCPILOT01", "DS", "01-709-1088", 1.0, "", "PROTOCOL COMPLETED", "COMPLETED", "DISPOSITION EVENT", 13.0, "WEEK 26", "FOLLOW-UP", "2014-10-09", "2014-10-09", 181.0, 181.0]
["CDISCPILOT01", "DS", "01-709-1088", 2.0, "", "FINAL LAB VISIT", "FINAL LAB VISIT", "OTHER EVENT", 13.0, "WEEK 26", "FOLLOW-UP", "2014-10-09T13:25", "2014-10-09", 181.0, 181.0]
["CDISCPILOT01", "DS", "01-709-1099", 1.0, "", "PROTOCOL COMPLETED", "COMPLETED", "DISPOSITION EVENT", 13.0, "WEEK 26", "FOLLOW-UP", "2014-04-25", "2014-04-25", 183.0, 183.0]
["CDISCPILOT01", "DS", "01-709-1099", 2.0, "", "FINAL LAB VISIT", "FINAL LAB VISIT", "OTHER EVENT", 13.0, "WEEK 26", "FOLLOW-UP", "2014-04-25T09:10", "2014-04-25", 183.0, 183.0]
["CDISCPILOT01", "DS", "01-709-1102", 1.0, "4", "ADVERSE EVENT", "ADVERSE EVENT", "DISPOSITION EVENT", 9.0, "WEEK 12", "FOLLOW-UP", "2013-03-31", "2013-03-31", 76.0, 76.0]
["CDISCPILOT01", "DS", "01-709-1102", 2.0, "", "FINAL LAB VISIT", "FINAL LAB VISIT", "OTHER EVENT", 9.0, "WEEK 12", "FOLLOW-UP", "2013-03-31T12:15", "2013-03-31", 76.0, 76.0]
["CDISCPILOT01", "DS", "01-709-1168", 1.0, "3", "ADVERSE EVENT", "ADVERSE EVENT", "DISPOSITION EVENT", 8.0, "WEEK 8", "FOLLOW-UP", "2013-09-27", "2013-09-27", 57.0, 57.0]
["CDISCPILOT01", "DS", "01-709-1168", 2.0, "", "FINAL LAB VISIT", "FINAL LAB VISIT", "OTHER EVENT", 8.0, "WEEK 8", "FOLLOW-UP", "2013-09-27T10:05", "2013-09-27", 57.0, 57.0]
["CDISCPILOT01", "DS", "01-709-1217", 1.0, "14", "ADVERSE EVENT", "ADVERSE EVENT", "DISPOSITION EVENT", 10.0, "WEEK 16", "FOLLOW-UP", "2013-06-25", "2013-06-25", 114.0, 114.0]
["CDISCPILOT01", "DS", "01-709-1217", 2.0, "", "FINAL LAB VISIT", "FINAL LAB VISIT", "OTHER EVENT", 10.0, "WEEK 16", "FOLLOW-UP", "2013-06-25T10:35", "2013-06-25", 114.0, 114.0]
["CDISCPILOT01", "DS", "01-709-1224", 1.0, "", "SCREEN FAILURE", "SCREEN FAILURE", "DISPOSITION EVENT", 1.0, "SCREENING 1", "SCREENING", "2013-11-18", "2013-11-18", null, null]
["CDISCPILOT01", "DS", "01-709-1237", 1.0, "", "SCREEN FAILURE", "SCREEN FAILURE", "DISPOSITION EVENT", 1.0, "SCREENING 1", "SCREENING", "2014-01-17", "2014-01-17", null, null]
["CDISCPILOT01", "DS", "01-709-1238", 1.0, "9", "ADVERSE EVENT", "ADVERSE EVENT", "DISPOSITION EVENT", 9.0, "WEEK 12", "FOLLOW-UP", "2013-08-07", "2013-08-07", 85.0, 85.0]
["CDISCPILOT01", "DS", "01-709-1238", 2.0, "", "FINAL LAB VISIT", "FINAL LAB VISIT", "OTHER EVENT", 9.0, "WEEK 12", "FOLLOW-UP", "2013-08-07T13:20", "2013-08-07", 85.0, 85.0]
["CDISCPILOT01", "DS", "01-709-1259", 1.0, "", "LACK OF EFFICACY, PATIENT CAREGIVER PERCEPTION", "LACK OF EFFICACY", "DISPOSITION EVENT", 11.0, "WEEK 20", "FOLLOW-UP", "2013-06-13", "2013-06-13", 139.0, 139.0]
["CDISCPILOT01", "DS", "01-709-1259", 2.0, "", "FINAL LAB VISIT", "FINAL LAB VISIT", "OTHER EVENT", 11.0, "WEEK 20", "FOLLOW-UP", "2013-06-13T12:23", "2013-06-13", 139.0, 139.0]
["CDISCPILOT01", "DS", "01-709-1285", 1.0, "", "SPONSOR DECISION (STUDY OR PATIENT DISCONTINUED BY THE SPONSOR)", "STUDY TERMINATED BY SPONSOR", "DISPOSITION EVENT", 9.0, "WEEK 12", "FOLLOW-UP", "2013-05-31", "2013-05-31", 69.0, 69.0]
["CDISCPILOT01", "DS", "01-709-1285", 2.0, "", "FINAL LAB VISIT", "FINAL LAB VISIT", "OTHER EVENT", 9.0, "WEEK 12", "FOLLOW-UP", "2013-05-31T13:15", "2013-05-31", 69.0, 69.0]
["CDISCPILOT01", "DS", "01-709-1301", 1.0, "", "PROTOCOL COMPLETED", "COMPLETED", "DISPOSITION EVENT", 13.0, "WEEK 26", "FOLLOW-UP", "2014-01-17", "2014-01-17", 183.0, 183.0]
["CDISCPILOT01", "DS", "01-709-1301", 2.0, "", "FINAL LAB VISIT", "FINAL LAB VISIT", "OTHER EVENT", 13.0, "WEEK 26", "FOLLOW-UP", "2014-01-17T10:07", "2014-01-17", 183.0, 183.0]
["CDISCPILOT01", "DS", "01-709-1306", 1.0, "3", "ADVERSE EVENT", "ADVERSE EVENT", "DISPOSITION EVENT", 11.0, "WEEK 20", "FOLLOW-UP", "2014-06-25", "2014-06-25", 143.0, 143.0]
["CDISCPILOT01", "DS", "01-709-1306", 2.0, "", "FINAL LAB VISIT", "FINAL LAB VISIT", "OTHER EVENT", 11.0, "WEEK 20", "FOLLOW-UP", "2014-06-25T10:45", "2014-06-25", 143.0, 143.0]
["CDISCPILOT01", "DS", "01-709-1309", 1.0, "", "PROTOCOL COMPLETED", "COMPLETED", "DISPOSITION EVENT", 13.0, "WEEK 26", "FOLLOW-UP", "2013-12-19", "2013-12-19", 184.0, 184.0]
["CDISCPILOT01", "DS", "01-709-1309", 2.0, "", "FINAL LAB VISIT", "FINAL LAB VISIT", "OTHER EVENT", 13.0, "WEEK 26", "FOLLOW-UP", "2013-12-19T10:35", "2013-12-19", 184.0, 184.0]
["CDISCPILOT01", "DS", "01-709-1312", 1.0, "", "PROTOCOL COMPLETED", "COMPLETED", "DISPOSITION EVENT", 13.0, "WEEK 26", "FOLLOW-UP", "2014-10-19", "2014-10-19", 183.0, 183.0]
["CDISCPILOT01", "DS", "01-709-1312", 2.0, "", "FINAL LAB VISIT", "FINAL LAB VISIT", "OTHER EVENT", 13.0, "WEEK 26", "FOLLOW-UP", "2014-10-19T10:00", "2014-10-19", 183.0, 183.0]
["CDISCPILOT01", "DS", "01-709-1326", 1.0, "", "PROTOCOL COMPLETED", "COMPLETED", "DISPOSITION EVENT", 13.0, "WEEK 26", "FOLLOW-UP", "2013-10-02", "2013-10-02", 181.0, 181.0]
["CDISCPILOT01", "DS", "01-709-1326", 2.0, "", "FINAL LAB VISIT", "FINAL LAB VISIT", "OTHER EVENT", 13.0, "WEEK 26", "FOLLOW-UP", "2013-10-02T09:40", "2013-10-02", 181.0, 181.0]
["CDISCPILOT01", "DS", "01-709-1329", 1.0, "", "CAREGIVER BURDEN", "WITHDRAWAL BY SUBJECT", "DISPOSITION EVENT", 4.0, "WEEK 2", "FOLLOW-UP", "2013-08-29", "2013-08-29", 15.0, 15.0]
["CDISCPILOT01", "DS", "01-709-1329", 2.0, "", "FINAL LAB VISIT", "FINAL LAB VISIT", "OTHER EVENT", 4.0, "WEEK 2", "FOLLOW-UP", "2013-08-29T10:35", "2013-08-29", 15.0, 15.0]
["CDISCPILOT01", "DS", "01-709-1339", 1.0, "", "PROTOCOL COMPLETED", "COMPLETED", "DISPOSITION EVENT", 13.0, "WEEK 26", "FOLLOW-UP", "2013-06-24", "2013-06-24", 184.0, 184.0]
["CDISCPILOT01", "DS", "01-709-1339", 2.0, "", "FINAL LAB VISIT", "FINAL LAB VISIT", "OTHER EVENT", 13.0, "WEEK 26", "FOLLOW-UP", "2013-06-24T10:10", "2013-06-24", 184.0, 184.0]
["CDISCPILOT01", "DS", "01-709-1424", 1.0, "7", "ADVERSE EVENT", "ADVERSE EVENT", "DISPOSITION EVENT", 4.0, "WEEK 2", "TREATMENT", "2013-03-08", "2013-03-08", 6.0, 6.0]
["CDISCPILOT01", "DS", "01-709-1424", 2.0, "", "FINAL LAB VISIT", "FINAL LAB VISIT", "OTHER EVENT", 4.1, "UNSCHEDULED 4.1", "FOLLOW-UP", "2013-03-17", "2013-03-17", 15.0, 15.0]
["CDISCPILOT01", "DS", "01-710-1002", 1.0, "6", "ADVERSE EVENT", "ADVERSE EVENT", "DISPOSITION EVENT", 4.0, "WEEK 2", "FOLLOW-UP", "2014-01-18", "2014-01-18", 5.0, 5.0]
["CDISCPILOT01", "DS", "01-710-1002", 2.0, "", "FINAL LAB VISIT", "FINAL LAB VISIT", "OTHER EVENT", 4.0, "WEEK 2", "FOLLOW-UP", "2014-01-18T15:00", "2014-01-18", 5.0, 5.0]
["CDISCPILOT01", "DS", "01-710-1006", 1.0, "", "PROTOCOL COMPLETED", "COMPLETED", "DISPOSITION EVENT", 13.0, "WEEK 26", "FOLLOW-UP", "2013-08-10", "2013-08-10", 182.0, 182.0]
["CDISCPILOT01", "DS", "01-710-1006", 2.0, "", "FINAL LAB VISIT", "FINAL LAB VISIT", "OTHER EVENT", 13.0, "WEEK 26", "FOLLOW-UP", "2013-08-10T10:10", "2013-08-10", 182.0, 182.0]
["CDISCPILOT01", "DS", "01-710-1021", 1.0, "5", "ADVERSE EVENT", "ADVERSE EVENT", "DISPOSITION EVENT", 7.0, "WEEK 6", "FOLLOW-UP", "2013-11-12", "2013-11-12", 47.0, 47.0]
["CDISCPILOT01", "DS", "01-710-1021", 2.0, "", "FINAL LAB VISIT", "FINAL LAB VISIT", "OTHER EVENT", 7.0, "WEEK 6", "FOLLOW-UP", "2013-11-12T16:35", "2013-11-12", 47.0, 47.0]
["CDISCPILOT01", "DS", "01-710-1027", 1.0, "", "PROTOCOL COMPLETED", "COMPLETED", "DISPOSITION EVENT", 13.0, "WEEK 26", "FOLLOW-UP", "2014-08-29", "2014-08-29", 183.0, 183.0]
["CDISCPILOT01", "DS", "01-710-1027", 2.0, "", "FINAL LAB VISIT", "FINAL LAB VISIT", "OTHER EVENT", 13.0, "WEEK 26", "FOLLOW-UP", "2014-08-29T11:05", "2014-08-29", 183.0, 183.0]
["CDISCPILOT01", "DS", "01-710-1045", 1.0, "8", "ADVERSE EVENT", "ADVERSE EVENT", "DISPOSITION EVENT", 9.0, "WEEK 12", "FOLLOW-UP", "2013-08-17", "2013-08-17", 76.0, 76.0]
["CDISCPILOT01", "DS", "01-710-1045", 2.0, "", "FINAL LAB VISIT", "FINAL LAB VISIT", "OTHER EVENT", 9.0, "WEEK 12", "FOLLOW-UP", "2013-08-17T12:30", "2013-08-17", 76.0, 76.0]
["CDISCPILOT01", "DS", "01-710-1053", 1.0, "5", "ADVERSE EVENT", "ADVERSE EVENT", "DISPOSITION EVENT", 8.0, "WEEK 8", "TREATMENT", "2013-02-15", "2013-02-15", 52.0, 52.0]
["CDISCPILOT01", "DS", "01-710-1053", 2.0, "", "FINAL LAB VISIT", "FINAL LAB VISIT", "OTHER EVENT", 8.2, "UNSCHEDULED 8.2", "FOLLOW-UP", "2013-02-26T13:25", "2013-02-26", 63.0, 63.0]
["CDISCPILOT01", "DS", "01-710-1060", 1.0, "", "PROTOCOL COMPLETED", "COMPLETED", "DISPOSITION EVENT", 13.0, "WEEK 26", "FOLLOW-UP", "2013-07-05", "2013-07-05", 186.0, 186.0]
["CDISCPILOT01", "DS", "01-710-1060", 2.0, "", "FINAL LAB VISIT", "FINAL LAB VISIT", "OTHER EVENT", 13.0, "WEEK 26", "FOLLOW-UP", "2013-07-05T14:40", "2013-07-05", 186.0, 186.0]
["CDISCPILOT01", "DS", "01-710-1070", 1.0, "15", "ADVERSE EVENT", "ADVERSE EVENT", "DISPOSITION EVENT", 11.0, "WEEK 20", "FOLLOW-UP", "2013-02-23", "2013-02-23", 169.0, 169.0]
["CDISCPILOT01", "DS", "01-710-1070", 2.0, "", "FINAL LAB VISIT", "FINAL LAB VISIT", "OTHER EVENT", 10.0, "WEEK 16", "TREATMENT", "2012-12-28T11:55", "2012-12-28", 112.0, 112.0]
["CDISCPILOT01", "DS", "01-710-1077", 1.0, "", "PROTOCOL COMPLETED", "COMPLETED", "DISPOSITION EVENT", 13.0, "WEEK 26", "FOLLOW-UP", "2014-05-18", "2014-05-18", 183.0, 183.0]
["CDISCPILOT01", "DS", "01-710-1077", 2.0, "", "FINAL LAB VISIT", "FINAL LAB VISIT", "OTHER EVENT", 13.0, "WEEK 26", "FOLLOW-UP", "2014-05-18T09:50", "2014-05-18", 183.0, 183.0]
["CDISCPILOT01", "DS", "01-710-1078", 1.0, "", "PROTOCOL COMPLETED", "COMPLETED", "DISPOSITION EVENT", 13.0, "WEEK 26", "FOLLOW-UP", "2014-03-23", "2014-03-23", 188.0, 188.0]
["CDISCPILOT01", "DS", "01-710-1078", 2.0, "", "FINAL LAB VISIT", "FINAL LAB VISIT", "OTHER EVENT", 13.0, "WEEK 26", "FOLLOW-UP", "2014-03-23T16:00", "2014-03-23", 188.0, 188.0]
["CDISCPILOT01", "DS", "01-710-1083", 1.0, "6", "DEATH", "DEATH", "DISPOSITION EVENT", 4.0, "WEEK 2", "FOLLOW-UP", "2013-08-03", "2013-08-02", 13.0, 12.0]
["CDISCPILOT01", "DS", "01-710-1083", 2.0, "", "FINAL LAB VISIT", "FINAL LAB VISIT", "OTHER EVENT", 1.0, "SCREENING 1", "SCREENING", "2013-07-09T16:35", "2013-07-09", -13.0, -13.0]
["CDISCPILOT01", "DS", "01-710-1129", 1.0, "", "SCREEN FAILURE", "SCREEN FAILURE", "DISPOSITION EVENT", 1.0, "SCREENING 1", "SCREENING", "2013-03-05", "2013-03-05", null, null]
["CDISCPILOT01", "DS", "01-710-1137", 1.0, "7", "ADVERSE EVENT", "ADVERSE EVENT", "DISPOSITION EVENT", 7.0, "WEEK 6", "FOLLOW-UP", "2013-11-13", "2013-11-13", 34.0, 34.0]
["CDISCPILOT01", "DS", "01-710-1137", 2.0, "", "FINAL LAB VISIT", "FINAL LAB VISIT", "OTHER EVENT", 7.0, "WEEK 6", "FOLLOW-UP", "2013-11-13T11:30", "2013-11-13", 34.0, 34.0]
["CDISCPILOT01", "DS", "01-710-1142", 1.0, "9", "ADVERSE EVENT", "ADVERSE EVENT", "DISPOSITION EVENT", 5.0, "WEEK 4", "FOLLOW-UP", "2012-10-23", "2012-10-23", 22.0, 22.0]
["CDISCPILOT01", "DS", "01-710-1142", 2.0, "", "FINAL LAB VISIT", "FINAL LAB VISIT", "OTHER EVENT", 5.0, "WEEK 4", "FOLLOW-UP", "2012-10-23T15:20", "2012-10-23", 22.0, 22.0]
["CDISCPILOT01", "DS", "01-710-1149", 1.0, "", "SCREEN FAILURE", "SCREEN FAILURE", "DISPOSITION EVENT", 1.0, "SCREENING 1", "SCREENING", "2013-11-16", "2013-11-16", null, null]
["CDISCPILOT01", "DS", "01-710-1154", 1.0, "4", "ADVERSE EVENT", "ADVERSE EVENT", "DISPOSITION EVENT", 7.0, "WEEK 6", "FOLLOW-UP", "2014-05-09", "2014-05-09", 42.0, 42.0]
["CDISCPILOT01", "DS", "01-710-1154", 2.0, "", "FINAL LAB VISIT", "FINAL LAB VISIT", "OTHER EVENT", 7.0, "WEEK 6", "FOLLOW-UP", "2014-05-09T10:55", "2014-05-09", 42.0, 42.0]
["CDISCPILOT01", "DS", "01-710-1166", 1.0, "10", "ADVERSE EVENT", "ADVERSE EVENT", "DISPOSITION EVENT", 10.0, "WEEK 16", "FOLLOW-UP", "2013-03-30", "2013-03-30", 121.0, 121.0]
["CDISCPILOT01", "DS", "01-710-1166", 2.0, "", "FINAL LAB VISIT", "FINAL LAB VISIT", "OTHER EVENT", 10.0, "WEEK 16", "FOLLOW-UP", "2013-03-30T09:35", "2013-03-30", 121.0, 121.0]
["CDISCPILOT01", "DS", "01-710-1183", 1.0, "", "PROTOCOL COMPLETED", "COMPLETED", "DISPOSITION EVENT", 13.0, "WEEK 26", "FOLLOW-UP", "2014-05-17", "2014-05-17", 183.0, 183.0]
["CDISCPILOT01", "DS", "01-710-1183", 2.0, "", "FINAL LAB VISIT", "FINAL LAB VISIT", "OTHER EVENT", 13.0, "WEEK 26", "FOLLOW-UP", "2014-05-17T11:55", "2014-05-17", 183.0, 183.0]
["CDISCPILOT01", "DS", "01-710-1187", 1.0, "", "PROTOCOL COMPLETED", "COMPLETED", "DISPOSITION EVENT", 13.0, "WEEK 26", "FOLLOW-UP", "2013-05-12", "2013-05-12", 184.0, 184.0]
["CDISCPILOT01", "DS", "01-710-1187", 2.0, "", "FINAL LAB VISIT", "FINAL LAB VISIT", "OTHER EVENT", 13.0, "WEEK 26", "FOLLOW-UP", "2013-05-12T11:05", "2013-05-12", 184.0, 184.0]
["CDISCPILOT01", "DS", "01-710-1235", 1.0, "", "PROTOCOL COMPLETED", "COMPLETED", "DISPOSITION EVENT", 13.0, "WEEK 26", "FOLLOW-UP", "2013-03-27", "2013-03-27", 183.0, 183.0]
["CDISCPILOT01", "DS", "01-710-1235", 2.0, "", "FINAL LAB VISIT", "FINAL LAB VISIT", "OTHER EVENT", 13.0, "WEEK 26", "FOLLOW-UP", "2013-03-27T09:35", "2013-03-27", 183.0, 183.0]
["CDISCPILOT01", "DS", "01-710-1249", 1.0, "", "PROTOCOL COMPLETED", "COMPLETED", "DISPOSITION EVENT", 13.0, "WEEK 26", "FOLLOW-UP", "2014-06-28", "2014-06-28", 183.0, 183.0]
["CDISCPILOT01", "DS", "01-710-1249", 2.0, "", "FINAL LAB VISIT", "FINAL LAB VISIT", "OTHER EVENT", 13.0, "WEEK 26", "FOLLOW-UP", "2014-06-28T11:05", "2014-06-28", 183.0, 183.0]
["CDISCPILOT01", "DS", "01-710-1257", 1.0, "", "SCREEN FAILURE", "SCREEN FAILURE", "DISPOSITION EVENT", 1.0, "SCREENING 1", "SCREENING", "2013-11-29", "2013-11-29", null, null]
["CDISCPILOT01", "DS", "01-710-1264", 1.0, "16", "ADVERSE EVENT", "ADVERSE EVENT", "DISPOSITION EVENT", 11.0, "WEEK 20", "FOLLOW-UP", "2013-10-12", "2013-10-12", 122.0, 122.0]
["CDISCPILOT01", "DS", "01-710-1264", 2.0, "", "FINAL LAB VISIT", "FINAL LAB VISIT", "OTHER EVENT", 11.0, "WEEK 20", "FOLLOW-UP", "2013-10-12T12:18", "2013-10-12", 122.0, 122.0]
["CDISCPILOT01", "DS", "01-710-1270", 1.0, "5", "ADVERSE EVENT", "ADVERSE EVENT", "DISPOSITION EVENT", 4.0, "WEEK 2", "FOLLOW-UP", "2014-03-01", "2014-03-01", 18.0, 18.0]
["CDISCPILOT01", "DS", "01-710-1270", 2.0, "", "FINAL LAB VISIT", "FINAL LAB VISIT", "OTHER EVENT", 4.0, "WEEK 2", "FOLLOW-UP", "2014-03-01T12:05", "2014-03-01", 18.0, 18.0]
["CDISCPILOT01", "DS", "01-710-1271", 1.0, "12", "ADVERSE EVENT", "ADVERSE EVENT", "DISPOSITION EVENT", 8.0, "WEEK 8", "FOLLOW-UP", "2012-12-02", "2012-12-02", 67.0, 67.0]
["CDISCPILOT01", "DS", "01-710-1271", 2.0, "", "FINAL LAB VISIT", "FINAL LAB VISIT", "OTHER EVENT", 7.0, "WEEK 6", "TREATMENT", "2012-11-08T16:30", "2012-11-08", 43.0, 43.0]
["CDISCPILOT01", "DS", "01-710-1278", 1.0, "10", "ADVERSE EVENT", "ADVERSE EVENT", "DISPOSITION EVENT", 9.0, "WEEK 12", "FOLLOW-UP", "2013-03-03", "2013-03-03", 70.0, 70.0]
["CDISCPILOT01", "DS", "01-710-1278", 2.0, "", "FINAL LAB VISIT", "FINAL LAB VISIT", "OTHER EVENT", 9.0, "WEEK 12", "FOLLOW-UP", "2013-03-07T11:45", "2013-03-07", 74.0, 74.0]
["CDISCPILOT01", "DS", "01-710-1300", 1.0, "4", "ADVERSE EVENT", "ADVERSE EVENT", "DISPOSITION EVENT", 9.0, "WEEK 12", "FOLLOW-UP", "2013-02-19", "2013-02-19", 67.0, 67.0]
["CDISCPILOT01", "DS", "01-710-1300", 2.0, "", "FINAL LAB VISIT", "FINAL LAB VISIT", "OTHER EVENT", 9.0, "WEEK 12", "FOLLOW-UP", "2013-02-19T15:50", "2013-02-19", 67.0, 67.0]
["CDISCPILOT01", "DS", "01-710-1314", 1.0, "", "PATIENT REFUSES TO CONTINUE", "WITHDRAWAL BY SUBJECT", "DISPOSITION EVENT", 6.0, "AMBUL ECG REMOVAL", "FOLLOW-UP", "2013-05-25", "2013-05-25", 32.0, 32.0]
["CDISCPILOT01", "DS", "01-710-1314", 2.0, "", "FINAL LAB VISIT", "FINAL LAB VISIT", "OTHER EVENT", 5.0, "WEEK 4", "TREATMENT", "2013-05-23T14:45", "2013-05-23", 30.0, 30.0]
["CDISCPILOT01", "DS", "01-710-1315", 1.0, "3", "ADVERSE EVENT", "ADVERSE EVENT", "DISPOSITION EVENT", 11.0, "WEEK 20", "FOLLOW-UP", "2013-07-16", "2013-07-16", 140.0, 140.0]
["CDISCPILOT01", "DS", "01-710-1315", 2.0, "", "FINAL LAB VISIT", "FINAL LAB VISIT", "OTHER EVENT", 11.0, "WEEK 20", "FOLLOW-UP", "2013-07-16T12:05", "2013-07-16", 140.0, 140.0]
["CDISCPILOT01", "DS", "01-710-1337", 1.0, "", "SCREEN FAILURE", "SCREEN FAILURE", "DISPOSITION EVENT", 1.0, "SCREENING 1", "SCREENING", "2013-12-30", "2013-12-30", null, null]
["CDISCPILOT01", "DS", "01-710-1354", 1.0, "", "PROTOCOL COMPLETED", "COMPLETED", "DISPOSITION EVENT", 13.0, "WEEK 26", "FOLLOW-UP", "2013-05-01", "2013-05-01", 172.0, 172.0]
["CDISCPILOT01", "DS", "01-710-1354", 2.0, "", "FINAL LAB VISIT", "FINAL LAB VISIT", "OTHER EVENT", 13.0, "WEEK 26", "FOLLOW-UP", "2013-05-01T14:05", "2013-05-01", 172.0, 172.0]
["CDISCPILOT01", "DS", "01-710-1358", 1.0, "", "CAREGIVER WAS HOSPITALIZED;SEE COMMENTS", "WITHDRAWAL BY SUBJECT", "DISPOSITION EVENT", 12.0, "WEEK 24", "FOLLOW-UP", "2013-03-12", "2013-03-12", 177.0, 177.0]
["CDISCPILOT01", "DS", "01-710-1358", 2.0, "", "FINAL LAB VISIT", "FINAL LAB VISIT", "OTHER EVENT", 11.0, "WEEK 20", "TREATMENT", "2013-02-06T11:25", "2013-02-06", 143.0, 143.0]
["CDISCPILOT01", "DS", "01-710-1368", 1.0, "", "PROTOCOL COMPLETED", "COMPLETED", "DISPOSITION EVENT", 13.0, "WEEK 26", "FOLLOW-UP", "2014-04-24", "2014-04-24", 184.0, 184.0]
["CDISCPILOT01", "DS", "01-710-1368", 2.0, "", "FINAL LAB VISIT", "FINAL LAB VISIT", "OTHER EVENT", 13.0, "WEEK 26", "FOLLOW-UP", "2014-04-24T10:10", "2014-04-24", 184.0, 184.0]
["CDISCPILOT01", "DS", "01-710-1376", 1.0, "", "SCREEN FAILURE", "SCREEN FAILURE", "DISPOSITION EVENT", 1.0, "SCREENING 1", "SCREENING", "2014-04-21", "2014-04-21", null, null]
["CDISCPILOT01", "DS", "01-710-1380", 1.0, "", "SCREEN FAILURE", "SCREEN FAILURE", "DISPOSITION EVENT", 1.0, "SCREENING 1", "SCREENING", "2013-06-02", "2013-06-02", null, null]
["CDISCPILOT01", "DS", "01-710-1385", 1.0, "15", "ADVERSE EVENT", "ADVERSE EVENT", "DISPOSITION EVENT", 10.0, "WEEK 16", "TREATMENT", "2013-02-18", "2013-02-18", 113.0, 113.0]
["CDISCPILOT01", "DS", "01-710-1385", 2.0, "", "FINAL LAB VISIT", "FINAL LAB VISIT", "OTHER EVENT", 10.0, "WEEK 16", "TREATMENT", "2013-02-18T13:40", "2013-02-18", 113.0, 113.0]
["CDISCPILOT01", "DS", "01-710-1408", 1.0, "", "PROTOCOL COMPLETED", "COMPLETED", "DISPOSITION EVENT", 13.0, "WEEK 26", "FOLLOW-UP", "2013-07-12", "2013-07-12", 189.0, 189.0]
["CDISCPILOT01", "DS", "01-710-1408", 2.0, "", "FINAL LAB VISIT", "FINAL LAB VISIT", "OTHER EVENT", 13.0, "WEEK 26", "FOLLOW-UP", "2013-07-12T14:35", "2013-07-12", 189.0, 189.0]
["CDISCPILOT01", "DS", "01-710-1443", 1.0, "", "SCREEN FAILURE", "SCREEN FAILURE", "DISPOSITION EVENT", 1.0, "SCREENING 1", "SCREENING", "2013-12-13", "2013-12-13", null, null]
["CDISCPILOT01", "DS", "01-711-1012", 1.0, "9", "ADVERSE EVENT", "ADVERSE EVENT", "DISPOSITION EVENT", 5.0, "WEEK 4", "FOLLOW-UP", "2013-05-02", "2013-05-02", 30.0, 30.0]
["CDISCPILOT01", "DS", "01-711-1012", 2.0, "", "FINAL LAB VISIT", "FINAL LAB VISIT", "OTHER EVENT", 5.0, "WEEK 4", "FOLLOW-UP", "2013-05-02T09:40", "2013-05-02", 30.0, 30.0]
["CDISCPILOT01", "DS", "01-711-1012", 3.0, "", "FINAL RETRIEVAL VISIT", "FINAL RETRIEVAL VISIT", "OTHER EVENT", 201.0, "RETRIEVAL", "FOLLOW-UP", "2013-09-18", "2013-09-18", 169.0, 169.0]
["CDISCPILOT01", "DS", "01-711-1022", 1.0, "", "SCREEN FAILURE", "SCREEN FAILURE", "DISPOSITION EVENT", 1.0, "SCREENING 1", "SCREENING", "2014-03-17", "2014-03-17", null, null]
["CDISCPILOT01", "DS", "01-711-1036", 1.0, "", "PROTOCOL COMPLETED", "COMPLETED", "DISPOSITION EVENT", 13.0, "WEEK 26", "FOLLOW-UP", "2013-02-10", "2013-02-10", 197.0, 197.0]
["CDISCPILOT01", "DS", "01-711-1036", 2.0, "", "FINAL LAB VISIT", "FINAL LAB VISIT", "OTHER EVENT", 13.0, "WEEK 26", "FOLLOW-UP", "2013-02-10T10:25", "2013-02-10", 197.0, 197.0]
["CDISCPILOT01", "DS", "01-711-1143", 1.0, "25", "ADVERSE EVENT", "ADVERSE EVENT", "DISPOSITION EVENT", 9.0, "WEEK 12", "TREATMENT", "2013-06-01", "2013-06-01", 60.0, 60.0]
["CDISCPILOT01", "DS", "01-711-1143", 2.0, "", "FINAL LAB VISIT", "FINAL LAB VISIT", "OTHER EVENT", 9.0, "WEEK 12", "TREATMENT", "2013-06-01T13:11", "2013-06-01", 60.0, 60.0]
["CDISCPILOT01", "DS", "01-711-1143", 3.0, "", "FINAL RETRIEVAL VISIT", "FINAL RETRIEVAL VISIT", "OTHER EVENT", 201.0, "RETRIEVAL", "FOLLOW-UP", "2013-09-22", "2013-09-22", 173.0, 173.0]
["CDISCPILOT01", "DS", "01-711-1163", 1.0, "", "SCREEN FAILURE", "SCREEN FAILURE", "DISPOSITION EVENT", 1.0, "SCREENING 1", "SCREENING", "2012-11-08", "2012-11-08", null, null]
["CDISCPILOT01", "DS", "01-711-1173", 1.0, "", "SCREEN FAILURE", "SCREEN FAILURE", "DISPOSITION EVENT", 1.0, "SCREENING 1", "SCREENING", "2012-10-04", "2012-10-04", null, null]
["CDISCPILOT01", "DS", "01-711-1226", 1.0, "", "SCREEN FAILURE", "SCREEN FAILURE", "DISPOSITION EVENT", 1.0, "SCREENING 1", "SCREENING", "2013-10-24", "2013-10-24", null, null]
["CDISCPILOT01", "DS", "01-711-1251", 1.0, "", "SCREEN FAILURE", "SCREEN FAILURE", "DISPOSITION EVENT", 1.0, "SCREENING 1", "SCREENING", "2014-02-28", "2014-02-28", null, null]
["CDISCPILOT01", "DS", "01-711-1283", 1.0, "", "SCREEN FAILURE", "SCREEN FAILURE", "DISPOSITION EVENT", 1.0, "SCREENING 1", "SCREENING", "2014-03-27", "2014-03-27", null, null]
["CDISCPILOT01", "DS", "01-711-1284", 1.0, "", "SCREEN FAILURE", "SCREEN FAILURE", "DISPOSITION EVENT", 1.0, "SCREENING 1", "SCREENING", "2013-08-05", "2013-08-05", null, null]
["CDISCPILOT01", "DS", "01-711-1290", 1.0, "", "SCREEN FAILURE", "SCREEN FAILURE", "DISPOSITION EVENT", 1.0, "SCREENING 1", "SCREENING", "2013-12-20", "2013-12-20", null, null]
["CDISCPILOT01", "DS", "01-711-1433", 1.0, "15", "ADVERSE EVENT", "ADVERSE EVENT", "DISPOSITION EVENT", 4.0, "WEEK 2", "FOLLOW-UP", "2013-02-06", "2013-02-06", 11.0, 11.0]
["CDISCPILOT01", "DS", "01-711-1433", 2.0, "", "FINAL LAB VISIT", "FINAL LAB VISIT", "OTHER EVENT", 4.0, "WEEK 2", "FOLLOW-UP", "2013-02-06T10:52", "2013-02-06", 11.0, 11.0]
["CDISCPILOT01", "DS", "01-713-1043", 1.0, "", "PROTOCOL COMPLETED", "COMPLETED", "DISPOSITION EVENT", 13.0, "WEEK 26", "FOLLOW-UP", "2014-03-24", "2014-03-24", 191.0, 191.0]
["CDISCPILOT01", "DS", "01-713-1043", 2.0, "", "FINAL LAB VISIT", "FINAL LAB VISIT", "OTHER EVENT", 13.0, "WEEK 26", "FOLLOW-UP", "2014-03-24T14:30", "2014-03-24", 191.0, 191.0]
["CDISCPILOT01", "DS", "01-713-1073", 1.0, "", "PROTOCOL COMPLETED", "COMPLETED", "DISPOSITION EVENT", 13.0, "WEEK 26", "FOLLOW-UP", "2014-10-05", "2014-10-05", 190.0, 190.0]
["CDISCPILOT01", "DS", "01-713-1073", 2.0, "", "FINAL LAB VISIT", "FINAL LAB VISIT", "OTHER EVENT", 13.0, "WEEK 26", "FOLLOW-UP", "2014-10-05T10:30", "2014-10-05", 190.0, 190.0]
["CDISCPILOT01", "DS", "01-713-1106", 1.0, "", "PROTOCOL COMPLETED", "COMPLETED", "DISPOSITION EVENT", 13.0, "WEEK 26", "FOLLOW-UP", "2013-05-06", "2013-05-06", 188.0, 188.0]
["CDISCPILOT01", "DS", "01-713-1106", 2.0, "", "FINAL LAB VISIT", "FINAL LAB VISIT", "OTHER EVENT", 13.0, "WEEK 26", "FOLLOW-UP", "2013-05-06T11:25", "2013-05-06", 188.0, 188.0]
["CDISCPILOT01", "DS", "01-713-1141", 1.0, "6", "ADVERSE EVENT", "ADVERSE EVENT", "DISPOSITION EVENT", 7.0, "WEEK 6", "FOLLOW-UP", "2013-08-06", "2013-08-06", 68.0, 68.0]
["CDISCPILOT01", "DS", "01-713-1141", 2.0, "", "FINAL LAB VISIT", "FINAL LAB VISIT", "OTHER EVENT", 7.0, "WEEK 6", "FOLLOW-UP", "2013-08-06T12:00", "2013-08-06", 68.0, 68.0]
["CDISCPILOT01", "DS", "01-713-1179", 1.0, "", "PROTOCOL COMPLETED", "COMPLETED", "DISPOSITION EVENT", 13.0, "WEEK 26", "FOLLOW-UP", "2014-02-05", "2014-02-05", 181.0, 181.0]
["CDISCPILOT01", "DS", "01-713-1179", 2.0, "", "FINAL LAB VISIT", "FINAL LAB VISIT", "OTHER EVENT", 13.0, "WEEK 26", "FOLLOW-UP", "2014-02-05T15:15", "2014-02-05", 181.0, 181.0]
["CDISCPILOT01", "DS", "01-713-1209", 1.0, "", "PROTOCOL COMPLETED", "COMPLETED", "DISPOSITION EVENT", 13.0, "WEEK 26", "FOLLOW-UP", "2013-11-22", "2013-11-22", 180.0, 180.0]
["CDISCPILOT01", "DS", "01-713-1209", 2.0, "", "FINAL LAB VISIT", "FINAL LAB VISIT", "OTHER EVENT", 13.0, "WEEK 26", "FOLLOW-UP", "2013-11-22T10:05", "2013-11-22", 180.0, 180.0]
["CDISCPILOT01", "DS", "01-713-1256", 1.0, "", "PROTOCOL COMPLETED", "COMPLETED", "DISPOSITION EVENT", 13.0, "WEEK 26", "FOLLOW-UP", "2013-03-25", "2013-03-25", 188.0, 188.0]
["CDISCPILOT01", "DS", "01-713-1256", 2.0, "", "FINAL LAB VISIT", "FINAL LAB VISIT", "OTHER EVENT", 13.0, "WEEK 26", "FOLLOW-UP", "2013-03-25T10:30", "2013-03-25", 188.0, 188.0]
["CDISCPILOT01", "DS", "01-713-1269", 1.0, "", "PROTOCOL COMPLETED", "COMPLETED", "DISPOSITION EVENT", 13.0, "WEEK 26", "FOLLOW-UP", "2014-07-28", "2014-07-28", 183.0, 183.0]
["CDISCPILOT01", "DS", "01-713-1269", 2.0, "", "FINAL LAB VISIT", "FINAL LAB VISIT", "OTHER EVENT", 13.0, "WEEK 26", "FOLLOW-UP", "2014-07-28T14:00", "2014-07-28", 183.0, 183.0]
["CDISCPILOT01", "DS", "01-713-1448", 1.0, "8", "ADVERSE EVENT", "ADVERSE EVENT", "DISPOSITION EVENT", 10.0, "WEEK 16", "FOLLOW-UP", "2014-05-17", "2014-05-17", 119.0, 119.0]
["CDISCPILOT01", "DS", "01-713-1448", 2.0, "", "FINAL LAB VISIT", "FINAL LAB VISIT", "OTHER EVENT", 10.0, "WEEK 16", "FOLLOW-UP", "2014-05-17T11:00", "2014-05-17", 119.0, 119.0]
["CDISCPILOT01", "DS", "01-713-1448", 3.0, "", "FINAL RETRIEVAL VISIT", "FINAL RETRIEVAL VISIT", "OTHER EVENT", 201.0, "RETRIEVAL", "FOLLOW-UP", "2014-07-27", "2014-07-27", 190.0, 190.0]
["CDISCPILOT01", "DS", "01-714-1035", 1.0, "", "PROTOCOL COMPLETED", "COMPLETED", "DISPOSITION EVENT", 13.0, "WEEK 26", "FOLLOW-UP", "2014-10-16", "2014-10-16", 183.0, 183.0]
["CDISCPILOT01", "DS", "01-714-1035", 2.0, "", "FINAL LAB VISIT", "FINAL LAB VISIT", "OTHER EVENT", 13.0, "WEEK 26", "FOLLOW-UP", "2014-10-16T12:00", "2014-10-16", 183.0, 183.0]
["CDISCPILOT01", "DS", "01-714-1068", 1.0, "9", "ADVERSE EVENT", "ADVERSE EVENT", "DISPOSITION EVENT", 9.0, "WEEK 12", "FOLLOW-UP", "2013-10-16", "2013-10-16", 70.0, 70.0]
["CDISCPILOT01", "DS", "01-714-1068", 2.0, "", "FINAL LAB VISIT", "FINAL LAB VISIT", "OTHER EVENT", 9.0, "WEEK 12", "FOLLOW-UP", "2013-10-16T15:10", "2013-10-16", 70.0, 70.0]
["CDISCPILOT01", "DS", "01-714-1195", 1.0, "", "PROTOCOL COMPLETED", "COMPLETED", "DISPOSITION EVENT", 13.0, "WEEK 26", "FOLLOW-UP", "2013-10-23", "2013-10-23", 181.0, 181.0]
["CDISCPILOT01", "DS", "01-714-1195", 2.0, "", "FINAL LAB VISIT", "FINAL LAB VISIT", "OTHER EVENT", 13.0, "WEEK 26", "FOLLOW-UP", "2013-10-23T10:55", "2013-10-23", 181.0, 181.0]
["CDISCPILOT01", "DS", "01-714-1288", 1.0, "", "PROTOCOL COMPLETED", "COMPLETED", "DISPOSITION EVENT", 13.0, "WEEK 26", "FOLLOW-UP", "2014-06-17", "2014-06-17", 196.0, 196.0]
["CDISCPILOT01", "DS", "01-714-1288", 2.0, "", "FINAL LAB VISIT", "FINAL LAB VISIT", "OTHER EVENT", 13.0, "WEEK 26", "FOLLOW-UP", "2014-06-17T13:00", "2014-06-17", 196.0, 196.0]
["CDISCPILOT01", "DS", "01-714-1375", 1.0, "", "PROTOCOL COMPLETED", "COMPLETED", "DISPOSITION EVENT", 13.0, "WEEK 26", "FOLLOW-UP", "2013-09-07", "2013-09-07", 194.0, 194.0]
["CDISCPILOT01", "DS", "01-714-1375", 2.0, "", "FINAL LAB VISIT", "FINAL LAB VISIT", "OTHER EVENT", 13.0, "WEEK 26", "FOLLOW-UP", "2013-09-07T13:58", "2013-09-07", 194.0, 194.0]
["CDISCPILOT01", "DS", "01-714-1425", 1.0, "", "SPONSOR DECISION (STUDY OR PATIENT DISCONTINUED BY THE SPONSOR)", "STUDY TERMINATED BY SPONSOR", "DISPOSITION EVENT", 4.0, "WEEK 2", "FOLLOW-UP", "2013-08-22", "2013-08-22", 8.0, 8.0]
["CDISCPILOT01", "DS", "01-714-1425", 2.0, "", "FINAL LAB VISIT", "FINAL LAB VISIT", "OTHER EVENT", 4.0, "WEEK 2", "FOLLOW-UP", "2013-08-22T14:55", "2013-08-22", 8.0, 8.0]
["CDISCPILOT01", "DS", "01-715-1085", 1.0, "", "PROTOCOL COMPLETED", "COMPLETED", "DISPOSITION EVENT", 13.0, "WEEK 26", "FOLLOW-UP", "2013-08-18", "2013-08-18", 184.0, 184.0]
["CDISCPILOT01", "DS", "01-715-1085", 2.0, "", "FINAL LAB VISIT", "FINAL LAB VISIT", "OTHER EVENT", 13.0, "WEEK 26", "FOLLOW-UP", "2013-08-18T10:22", "2013-08-18", 184.0, 184.0]
["CDISCPILOT01", "DS", "01-715-1107", 1.0, "1", "ADVERSE EVENT", "ADVERSE EVENT", "DISPOSITION EVENT", 9.0, "WEEK 12", "FOLLOW-UP", "2013-05-13", "2013-05-13", 77.0, 77.0]
["CDISCPILOT01", "DS", "01-715-1107", 2.0, "", "FINAL LAB VISIT", "FINAL LAB VISIT", "OTHER EVENT", 201.0, "RETRIEVAL", "FOLLOW-UP", "2013-08-14T09:52", "2013-08-14", 170.0, 170.0]
["CDISCPILOT01", "DS", "01-715-1107", 3.0, "", "FINAL RETRIEVAL VISIT", "FINAL RETRIEVAL VISIT", "OTHER EVENT", 201.0, "RETRIEVAL", "FOLLOW-UP", "2013-08-14", "2013-08-14", 170.0, 170.0]
["CDISCPILOT01", "DS", "01-715-1134", 1.0, "", "SCREEN FAILURE", "SCREEN FAILURE", "DISPOSITION EVENT", 1.0, "SCREENING 1", "SCREENING", "2014-04-17", "2014-04-17", null, null]
["CDISCPILOT01", "DS", "01-715-1155", 1.0, "", "CAREGIVER WITHDREW FROM STUDY", "WITHDRAWAL BY SUBJECT", "DISPOSITION EVENT", 7.0, "WEEK 6", "FOLLOW-UP", "2014-04-26", "2014-04-26", 135.0, 135.0]
["CDISCPILOT01", "DS", "01-715-1155", 2.0, "", "FINAL LAB VISIT", "FINAL LAB VISIT", "OTHER EVENT", 5.0, "WEEK 4", "TREATMENT", "2014-01-10T08:45", "2014-01-10", 29.0, 29.0]
["CDISCPILOT01", "DS", "01-715-1207", 1.0, "", "PROTOCOL COMPLETED", "COMPLETED", "DISPOSITION EVENT", 13.0, "WEEK 26", "FOLLOW-UP", "2013-06-01", "2013-06-01", 196.0, 196.0]
["CDISCPILOT01", "DS", "01-715-1207", 2.0, "", "FINAL LAB VISIT", "FINAL LAB VISIT", "OTHER EVENT", 13.0, "WEEK 26", "FOLLOW-UP", "2013-06-01T09:30", "2013-06-01", 196.0, 196.0]
["CDISCPILOT01", "DS", "01-715-1225", 1.0, "", "SCREEN FAILURE", "SCREEN FAILURE", "DISPOSITION EVENT", 1.0, "SCREENING 1", "SCREENING", "2013-01-22", "2013-01-22", null, null]
["CDISCPILOT01", "DS", "01-715-1319", 1.0, "", "TOO MUCH TROUBLE FOR CAREGIVER", "WITHDRAWAL BY SUBJECT", "DISPOSITION EVENT", 5.0, "WEEK 4", "FOLLOW-UP", "2013-03-18", "2013-03-18", 30.0, 30.0]
["CDISCPILOT01", "DS", "01-715-1319", 2.0, "", "FINAL LAB VISIT", "FINAL LAB VISIT", "OTHER EVENT", 5.0, "WEEK 4", "FOLLOW-UP", "2013-03-18T10:28", "2013-03-18", 30.0, 30.0]
["CDISCPILOT01", "DS", "01-715-1321", 1.0, "3", "ADVERSE EVENT", "ADVERSE EVENT", "DISPOSITION EVENT", 9.0, "WEEK 12", "FOLLOW-UP", "2014-04-22", "2014-04-22", 71.0, 71.0]
["CDISCPILOT01", "DS", "01-715-1321", 2.0, "", "FINAL LAB VISIT", "FINAL LAB VISIT", "OTHER EVENT", 9.0, "WEEK 12", "FOLLOW-UP", "2014-04-22T11:12", "2014-04-22", 71.0, 71.0]
["CDISCPILOT01", "DS", "01-715-1333", 1.0, "", "SCREEN FAILURE", "SCREEN FAILURE", "DISPOSITION EVENT", 1.0, "SCREENING 1", "SCREENING", "2013-06-03", "2013-06-03", null, null]
["CDISCPILOT01", "DS", "01-715-1397", 1.0, "", "PROTOCOL COMPLETED", "COMPLETED", "DISPOSITION EVENT", 13.0, "WEEK 26", "FOLLOW-UP", "2013-10-03", "2013-10-03", 184.0, 184.0]
["CDISCPILOT01", "DS", "01-715-1397", 2.0, "", "FINAL LAB VISIT", "FINAL LAB VISIT", "OTHER EVENT", 13.0, "WEEK 26", "FOLLOW-UP", "2013-10-03T10:50", "2013-10-03", 184.0, 184.0]
["CDISCPILOT01", "DS", "01-715-1405", 1.0, "3", "ADVERSE EVENT", "ADVERSE EVENT", "DISPOSITION EVENT", 4.0, "WEEK 2", "FOLLOW-UP", "2013-07-13", "2013-07-13", 8.0, 8.0]
["CDISCPILOT01", "DS", "01-715-1405", 2.0, "", "FINAL LAB VISIT", "FINAL LAB VISIT", "OTHER EVENT", 4.0, "WEEK 2", "FOLLOW-UP", "2013-07-13T11:05", "2013-07-13", 8.0, 8.0]
["CDISCPILOT01", "DS", "01-715-1405", 3.0, "", "FINAL RETRIEVAL VISIT", "FINAL RETRIEVAL VISIT", "OTHER EVENT", 201.0, "RETRIEVAL", "FOLLOW-UP", "2014-01-11", "2014-01-11", 190.0, 190.0]
["CDISCPILOT01", "DS", "01-715-1407", 1.0, "", "SCREEN FAILURE", "SCREEN FAILURE", "DISPOSITION EVENT", 1.0, "SCREENING 1", "SCREENING", "2012-10-24", "2012-10-24", null, null]
["CDISCPILOT01", "DS", "01-716-1003", 1.0, "", "SCREEN FAILURE", "SCREEN FAILURE", "DISPOSITION EVENT", 1.0, "SCREENING 1", "SCREENING", "2014-03-29", "2014-03-29", null, null]
["CDISCPILOT01", "DS", "01-716-1024", 1.0, "", "PROTOCOL COMPLETED", "COMPLETED", "DISPOSITION EVENT", 13.0, "WEEK 26", "FOLLOW-UP", "2013-01-20", "2013-01-20", 196.0, 196.0]
["CDISCPILOT01", "DS", "01-716-1024", 2.0, "", "FINAL LAB VISIT", "FINAL LAB VISIT", "OTHER EVENT", 13.0, "WEEK 26", "FOLLOW-UP", "2013-01-20T11:10", "2013-01-20", 196.0, 196.0]
["CDISCPILOT01", "DS", "01-716-1026", 1.0, "", "PROTOCOL COMPLETED", "COMPLETED", "DISPOSITION EVENT", 13.0, "WEEK 26", "FOLLOW-UP", "2014-10-16", "2014-10-16", 198.0, 198.0]
["CDISCPILOT01", "DS", "01-716-1026", 2.0, "", "FINAL LAB VISIT", "FINAL LAB VISIT", "OTHER EVENT", 13.0, "WEEK 26", "FOLLOW-UP", "2014-10-16T13:35", "2014-10-16", 198.0, 198.0]
["CDISCPILOT01", "DS", "01-716-1030", 1.0, "", "PT KEPT REMOVING PATCHES", "WITHDRAWAL BY SUBJECT", "DISPOSITION EVENT", 4.0, "WEEK 2", "FOLLOW-UP", "2014-01-10", "2014-01-10", 14.0, 14.0]
["CDISCPILOT01", "DS", "01-716-1030", 2.0, "", "FINAL LAB VISIT", "FINAL LAB VISIT", "OTHER EVENT", 4.0, "WEEK 2", "FOLLOW-UP", "2014-01-10T12:30", "2014-01-10", 14.0, 14.0]
["CDISCPILOT01", "DS", "01-716-1044", 1.0, "", "PROTOCOL COMPLETED", "COMPLETED", "DISPOSITION EVENT", 13.0, "WEEK 26", "FOLLOW-UP", "2013-11-03", "2013-11-03", 191.0, 191.0]
["CDISCPILOT01", "DS", "01-716-1044", 2.0, "", "FINAL LAB VISIT", "FINAL LAB VISIT", "OTHER EVENT", 13.0, "WEEK 26", "FOLLOW-UP", "2013-11-03T13:10", "2013-11-03", 191.0, 191.0]
["CDISCPILOT01", "DS", "01-716-1061", 1.0, "", "SCREEN FAILURE", "SCREEN FAILURE", "DISPOSITION EVENT", 1.0, "SCREENING 1", "SCREENING", "2014-02-14", "2014-02-14", null, null]
["CDISCPILOT01", "DS", "01-716-1063", 1.0, "17", "ADVERSE EVENT", "ADVERSE EVENT", "DISPOSITION EVENT", 10.0, "WEEK 16", "FOLLOW-UP", "2013-08-28", "2013-08-28", 112.0, 112.0]
["CDISCPILOT01", "DS", "01-716-1063", 2.0, "", "FINAL LAB VISIT", "FINAL LAB VISIT", "OTHER EVENT", 10.0, "WEEK 16", "FOLLOW-UP", "2013-08-28T15:20", "2013-08-28", 112.0, 112.0]
["CDISCPILOT01", "DS", "01-716-1063", 3.0, "", "FINAL RETRIEVAL VISIT", "FINAL RETRIEVAL VISIT", "OTHER EVENT", 201.0, "RETRIEVAL", "FOLLOW-UP", "2013-11-17", "2013-11-17", 193.0, 193.0]
["CDISCPILOT01", "DS", "01-716-1071", 1.0, "12", "ADVERSE EVENT", "ADVERSE EVENT", "DISPOSITION EVENT", 8.0, "WEEK 8", "FOLLOW-UP", "2013-08-01", "2013-08-01", 55.0, 55.0]
["CDISCPILOT01", "DS", "01-716-1071", 2.0, "", "FINAL LAB VISIT", "FINAL LAB VISIT", "OTHER EVENT", 8.0, "WEEK 8", "FOLLOW-UP", "2013-08-01T09:30", "2013-08-01", 55.0, 55.0]
["CDISCPILOT01", "DS", "01-716-1071", 3.0, "", "FINAL RETRIEVAL VISIT", "FINAL RETRIEVAL VISIT", "OTHER EVENT", 201.0, "RETRIEVAL", "FOLLOW-UP", "2013-12-16", "2013-12-16", 192.0, 192.0]
["CDISCPILOT01", "DS", "01-716-1094", 1.0, "11", "ADVERSE EVENT", "ADVERSE EVENT", "DISPOSITION EVENT", 7.0, "WEEK 6", "FOLLOW-UP", "2013-01-26", "2013-01-26", 39.0, 39.0]
["CDISCPILOT01", "DS", "01-716-1094", 2.0, "", "FINAL LAB VISIT", "FINAL LAB VISIT", "OTHER EVENT", 7.0, "WEEK 6", "FOLLOW-UP", "2013-01-26T11:20", "2013-01-26", 39.0, 39.0]
["CDISCPILOT01", "DS", "01-716-1094", 3.0, "", "FINAL RETRIEVAL VISIT", "FINAL RETRIEVAL VISIT", "OTHER EVENT", 201.0, "RETRIEVAL", "FOLLOW-UP", "2013-06-22", "2013-06-22", 186.0, 186.0]
["CDISCPILOT01", "DS", "01-716-1103", 1.0, "", "PROTOCOL COMPLETED", "COMPLETED", "DISPOSITION EVENT", 13.0, "WEEK 26", "FOLLOW-UP", "2014-09-20", "2014-09-20", 185.0, 185.0]
["CDISCPILOT01", "DS", "01-716-1103", 2.0, "", "FINAL LAB VISIT", "FINAL LAB VISIT", "OTHER EVENT", 13.0, "WEEK 26", "FOLLOW-UP", "2014-09-20T12:10", "2014-09-20", 185.0, 185.0]
["CDISCPILOT01", "DS", "01-716-1108", 1.0, "", "PROTOCOL COMPLETED", "COMPLETED", "DISPOSITION EVENT", 13.0, "WEEK 26", "FOLLOW-UP", "2013-08-10", "2013-08-10", 180.0, 180.0]
["CDISCPILOT01", "DS", "01-716-1108", 2.0, "", "FINAL LAB VISIT", "FINAL LAB VISIT", "OTHER EVENT", 13.0, "WEEK 26", "FOLLOW-UP", "2013-08-10T09:55", "2013-08-10", 180.0, 180.0]
["CDISCPILOT01", "DS", "01-716-1151", 1.0, "6", "ADVERSE EVENT", "ADVERSE EVENT", "DISPOSITION EVENT", 10.0, "WEEK 16", "FOLLOW-UP", "2013-06-07", "2013-06-07", 127.0, 127.0]
["CDISCPILOT01", "DS", "01-716-1151", 2.0, "", "FINAL LAB VISIT", "FINAL LAB VISIT", "OTHER EVENT", 10.0, "WEEK 16", "FOLLOW-UP", "2013-06-07T11:55", "2013-06-07", 127.0, 127.0]
["CDISCPILOT01", "DS", "01-716-1151", 3.0, "", "FINAL RETRIEVAL VISIT", "FINAL RETRIEVAL VISIT", "OTHER EVENT", 201.0, "RETRIEVAL", "FOLLOW-UP", "2013-08-13", "2013-08-13", 194.0, 194.0]
["CDISCPILOT01", "DS", "01-716-1157", 1.0, "", "PROTOCOL COMPLETED", "COMPLETED", "DISPOSITION EVENT", 13.0, "WEEK 26", "FOLLOW-UP", "2014-04-05", "2014-04-05", 186.0, 186.0]
["CDISCPILOT01", "DS", "01-716-1157", 2.0, "", "FINAL LAB VISIT", "FINAL LAB VISIT", "OTHER EVENT", 13.0, "WEEK 26", "FOLLOW-UP", "2014-04-05T11:10", "2014-04-05", 186.0, 186.0]
["CDISCPILOT01", "DS", "01-716-1160", 1.0, "", "PROTOCOL COMPLETED", "COMPLETED", "DISPOSITION EVENT", 13.0, "WEEK 26", "FOLLOW-UP", "2013-10-11", "2013-10-11", 190.0, 190.0]
["CDISCPILOT01", "DS", "01-716-1160", 2.0, "", "FINAL LAB VISIT", "FINAL LAB VISIT", "OTHER EVENT", 13.0, "WEEK 26", "FOLLOW-UP", "2013-10-11T13:30", "2013-10-11", 190.0, 190.0]
["CDISCPILOT01", "DS", "01-716-1167", 1.0, "", "PROTOCOL COMPLETED", "COMPLETED", "DISPOSITION EVENT", 13.0, "WEEK 26", "FOLLOW-UP", "2013-04-13", "2013-04-13", 188.0, 188.0]
["CDISCPILOT01", "DS", "01-716-1167", 2.0, "", "FINAL LAB VISIT", "FINAL LAB VISIT", "OTHER EVENT", 13.0, "WEEK 26", "FOLLOW-UP", "2013-04-13T11:10", "2013-04-13", 188.0, 188.0]
["CDISCPILOT01", "DS", "01-716-1177", 1.0, "", "PROTOCOL COMPLETED", "COMPLETED", "DISPOSITION EVENT", 13.0, "WEEK 26", "FOLLOW-UP", "2015-03-05", "2015-03-05", 185.0, 185.0]
["CDISCPILOT01", "DS", "01-716-1177", 2.0, "", "FINAL LAB VISIT", "FINAL LAB VISIT", "OTHER EVENT", 13.0, "WEEK 26", "FOLLOW-UP", "2015-03-05T14:40", "2015-03-05", 185.0, 185.0]
["CDISCPILOT01", "DS", "01-716-1189", 1.0, "11", "ADVERSE EVENT", "ADVERSE EVENT", "DISPOSITION EVENT", 11.0, "WEEK 20", "FOLLOW-UP", "2013-03-03", "2013-03-03", 146.0, 146.0]
["CDISCPILOT01", "DS", "01-716-1189", 2.0, "", "FINAL LAB VISIT", "FINAL LAB VISIT", "OTHER EVENT", 11.0, "WEEK 20", "FOLLOW-UP", "2013-03-03T10:45", "2013-03-03", 146.0, 146.0]
["CDISCPILOT01", "DS", "01-716-1189", 3.0, "", "FINAL RETRIEVAL VISIT", "FINAL RETRIEVAL VISIT", "OTHER EVENT", 201.0, "RETRIEVAL", "FOLLOW-UP", "2013-04-08", "2013-04-08", 182.0, 182.0]
["CDISCPILOT01", "DS", "01-716-1229", 1.0, "5", "ADVERSE EVENT", "ADVERSE EVENT", "DISPOSITION EVENT", 7.0, "WEEK 6", "FOLLOW-UP", "2013-04-02", "2013-04-02", 42.0, 42.0]
["CDISCPILOT01", "DS", "01-716-1229", 2.0, "", "FINAL LAB VISIT", "FINAL LAB VISIT", "OTHER EVENT", 7.0, "WEEK 6", "FOLLOW-UP", "2013-04-02T11:15", "2013-04-02", 42.0, 42.0]
["CDISCPILOT01", "DS", "01-716-1244", 1.0, "", "SCREEN FAILURE", "SCREEN FAILURE", "DISPOSITION EVENT", 1.0, "SCREENING 1", "SCREENING", "2013-08-15", "2013-08-15", null, null]
["CDISCPILOT01", "DS", "01-716-1298", 1.0, "12", "ADVERSE EVENT", "ADVERSE EVENT", "DISPOSITION EVENT", 9.0, "WEEK 12", "FOLLOW-UP", "2013-07-06", "2013-07-06", 90.0, 90.0]
["CDISCPILOT01", "DS", "01-716-1298", 2.0, "", "FINAL LAB VISIT", "FINAL LAB VISIT", "OTHER EVENT", 9.0, "WEEK 12", "FOLLOW-UP", "2013-07-06T10:30", "2013-07-06", 90.0, 90.0]
["CDISCPILOT01", "DS", "01-716-1298", 3.0, "", "FINAL RETRIEVAL VISIT", "FINAL RETRIEVAL VISIT", "OTHER EVENT", 201.0, "RETRIEVAL", "FOLLOW-UP", "2013-10-07", "2013-10-07", 183.0, 183.0]
["CDISCPILOT01", "DS", "01-716-1305", 1.0, "", "SCREEN FAILURE", "SCREEN FAILURE", "DISPOSITION EVENT", 1.0, "SCREENING 1", "SCREENING", "2013-08-06", "2013-08-06", null, null]
["CDISCPILOT01", "DS", "01-716-1308", 1.0, "", "PLACED IN NURSING HOME", "WITHDRAWAL BY SUBJECT", "DISPOSITION EVENT", 7.0, "WEEK 6", "FOLLOW-UP", "2013-10-07", "2013-10-07", 41.0, 41.0]
["CDISCPILOT01", "DS", "01-716-1308", 2.0, "", "FINAL LAB VISIT", "FINAL LAB VISIT", "OTHER EVENT", 7.0, "WEEK 6", "FOLLOW-UP", "2013-10-07T15:50", "2013-10-07", 41.0, 41.0]
["CDISCPILOT01", "DS", "01-716-1311", 1.0, "", "INSTITUTIONALIZED", "WITHDRAWAL BY SUBJECT", "DISPOSITION EVENT", 11.0, "WEEK 20", "FOLLOW-UP", "2014-09-30", "2014-09-30", 140.0, 140.0]
["CDISCPILOT01", "DS", "01-716-1311", 2.0, "", "FINAL LAB VISIT", "FINAL LAB VISIT", "OTHER EVENT", 11.0, "WEEK 20", "FOLLOW-UP", "2014-09-30T09:00", "2014-09-30", 140.0, 140.0]
["CDISCPILOT01", "DS", "01-716-1311", 3.0, "", "FINAL RETRIEVAL VISIT", "FINAL RETRIEVAL VISIT", "OTHER EVENT", 201.0, "RETRIEVAL", "FOLLOW-UP", "2014-11-15", "2014-11-15", 186.0, 186.0]
["CDISCPILOT01", "DS", "01-716-1331", 1.0, "", "SCREEN FAILURE", "SCREEN FAILURE", "DISPOSITION EVENT", 1.0, "SCREENING 1", "SCREENING", "2013-11-25", "2013-11-25", null, null]
["CDISCPILOT01", "DS", "01-716-1364", 1.0, "", "PROTOCOL COMPLETED", "COMPLETED", "DISPOSITION EVENT", 13.0, "WEEK 26", "FOLLOW-UP", "2014-01-09", "2014-01-09", 190.0, 190.0]
["CDISCPILOT01", "DS", "01-716-1364", 2.0, "", "FINAL LAB VISIT", "FINAL LAB VISIT", "OTHER EVENT", 13.0, "WEEK 26", "FOLLOW-UP", "2014-01-09T15:30", "2014-01-09", 190.0, 190.0]
["CDISCPILOT01", "DS", "01-716-1373", 1.0, "6", "ADVERSE EVENT", "ADVERSE EVENT", "DISPOSITION EVENT", 9.0, "WEEK 12", "FOLLOW-UP", "2013-02-28", "2013-02-28", 77.0, 77.0]
["CDISCPILOT01", "DS", "01-716-1373", 2.0, "", "FINAL LAB VISIT", "FINAL LAB VISIT", "OTHER EVENT", 9.0, "WEEK 12", "FOLLOW-UP", "2013-02-28T10:23", "2013-02-28", 77.0, 77.0]
["CDISCPILOT01", "DS", "01-716-1418", 1.0, "", "PROTOCOL COMPLETED", "COMPLETED", "DISPOSITION EVENT", 13.0, "WEEK 26", "FOLLOW-UP", "2013-11-20", "2013-11-20", 200.0, 200.0]
["CDISCPILOT01", "DS", "01-716-1418", 2.0, "", "FINAL LAB VISIT", "FINAL LAB VISIT", "OTHER EVENT", 13.0, "WEEK 26", "FOLLOW-UP", "2013-11-20T11:44", "2013-11-20", 200.0, 200.0]
["CDISCPILOT01", "DS", "01-716-1441", 1.0, "", "PROTOCOL COMPLETED", "COMPLETED", "DISPOSITION EVENT", 13.0, "WEEK 26", "FOLLOW-UP", "2014-07-22", "2014-07-22", 182.0, 182.0]
["CDISCPILOT01", "DS", "01-716-1441", 2.0, "", "FINAL LAB VISIT", "FINAL LAB VISIT", "OTHER EVENT", 13.0, "WEEK 26", "FOLLOW-UP", "2014-07-22T10:00", "2014-07-22", 182.0, 182.0]
["CDISCPILOT01", "DS", "01-716-1447", 1.0, "", "PROTOCOL COMPLETED", "COMPLETED", "DISPOSITION EVENT", 13.0, "WEEK 26", "FOLLOW-UP", "2014-06-17", "2014-06-17", 184.0, 184.0]
["CDISCPILOT01", "DS", "01-716-1447", 2.0, "", "FINAL LAB VISIT", "FINAL LAB VISIT", "OTHER EVENT", 13.0, "WEEK 26", "FOLLOW-UP", "2014-06-17T12:00", "2014-06-17", 184.0, 184.0]
["CDISCPILOT01", "DS", "01-717-1004", 1.0, "", "PROTOCOL COMPLETED", "COMPLETED", "DISPOSITION EVENT", 13.0, "WEEK 26", "FOLLOW-UP", "2014-07-16", "2014-07-16", 184.0, 184.0]
["CDISCPILOT01", "DS", "01-717-1004", 2.0, "", "FINAL LAB VISIT", "FINAL LAB VISIT", "OTHER EVENT", 13.0, "WEEK 26", "FOLLOW-UP", "2014-07-16T13:21", "2014-07-16", 184.0, 184.0]
["CDISCPILOT01", "DS", "01-717-1109", 1.0, "", "PROTOCOL COMPLETED", "COMPLETED", "DISPOSITION EVENT", 13.0, "WEEK 26", "FOLLOW-UP", "2014-07-28", "2014-07-28", 183.0, 183.0]
["CDISCPILOT01", "DS", "01-717-1109", 2.0, "", "FINAL LAB VISIT", "FINAL LAB VISIT", "OTHER EVENT", 13.0, "WEEK 26", "FOLLOW-UP", "2014-07-28T10:53", "2014-07-28", 183.0, 183.0]
["CDISCPILOT01", "DS", "01-717-1174", 1.0, "", "PROTOCOL COMPLETED", "COMPLETED", "DISPOSITION EVENT", 13.0, "WEEK 26", "FOLLOW-UP", "2013-07-24", "2013-07-24", 184.0, 184.0]
["CDISCPILOT01", "DS", "01-717-1174", 2.0, "", "FINAL LAB VISIT", "FINAL LAB VISIT", "OTHER EVENT", 13.0, "WEEK 26", "FOLLOW-UP", "2013-07-24T15:15", "2013-07-24", 184.0, 184.0]
["CDISCPILOT01", "DS", "01-717-1201", 1.0, "", "LACK OF EFFICACY, PATIENT CAREGIVER PERCEPTION", "LACK OF EFFICACY", "DISPOSITION EVENT", 8.0, "WEEK 8", "FOLLOW-UP", "2014-02-21", "2014-02-21", 65.0, 65.0]
["CDISCPILOT01", "DS", "01-717-1201", 2.0, "", "FINAL LAB VISIT", "FINAL LAB VISIT", "OTHER EVENT", 8.0, "WEEK 8", "FOLLOW-UP", "2014-02-21T11:14", "2014-02-21", 65.0, 65.0]
["CDISCPILOT01", "DS", "01-717-1344", 1.0, "", "LACK OF EFFICACY, PATIENT CAREGIVER PERCEPTION", "LACK OF EFFICACY", "DISPOSITION EVENT", 8.0, "WEEK 8", "FOLLOW-UP", "2014-03-14", "2014-03-14", 63.0, 63.0]
["CDISCPILOT01", "DS", "01-717-1344", 2.0, "", "FINAL LAB VISIT", "FINAL LAB VISIT", "OTHER EVENT", 8.0, "WEEK 8", "FOLLOW-UP", "2014-03-14T14:14", "2014-03-14", 63.0, 63.0]
["CDISCPILOT01", "DS", "01-717-1357", 1.0, "", "SPONSOR DECISION (STUDY OR PATIENT DISCONTINUED BY THE SPONSOR)", "STUDY TERMINATED BY SPONSOR", "DISPOSITION EVENT", 12.0, "WEEK 24", "FOLLOW-UP", "2013-10-20", "2013-10-20", 173.0, 173.0]
["CDISCPILOT01", "DS", "01-717-1357", 2.0, "", "FINAL LAB VISIT", "FINAL LAB VISIT", "OTHER EVENT", 12.0, "WEEK 24", "FOLLOW-UP", "2013-10-20T10:52", "2013-10-20", 173.0, 173.0]
["CDISCPILOT01", "DS", "01-717-1446", 1.0, "", "PROTOCOL COMPLETED", "COMPLETED", "DISPOSITION EVENT", 13.0, "WEEK 26", "TREATMENT", "2014-03-04", "2014-03-04", 185.0, 185.0]
["CDISCPILOT01", "DS", "01-717-1446", 2.0, "", "FINAL LAB VISIT", "FINAL LAB VISIT", "OTHER EVENT", 13.1, "UNSCHEDULED 13.1", "FOLLOW-UP", "2014-03-17T09:52", "2014-03-17", 198.0, 198.0]
["CDISCPILOT01", "DS", "01-718-1066", 1.0, "12", "ADVERSE EVENT", "ADVERSE EVENT", "DISPOSITION EVENT", 4.0, "WEEK 2", "FOLLOW-UP", "2013-07-30", "2013-07-30", 24.0, 24.0]
["CDISCPILOT01", "DS", "01-718-1066", 2.0, "", "FINAL LAB VISIT", "FINAL LAB VISIT", "OTHER EVENT", 4.0, "WEEK 2", "FOLLOW-UP", "2013-07-30T13:30", "2013-07-30", 24.0, 24.0]
["CDISCPILOT01", "DS", "01-718-1079", 1.0, "9", "ADVERSE EVENT", "ADVERSE EVENT", "DISPOSITION EVENT", 7.0, "WEEK 6", "FOLLOW-UP", "2012-11-06", "2012-11-06", 49.0, 49.0]
["CDISCPILOT01", "DS", "01-718-1079", 2.0, "", "FINAL LAB VISIT", "FINAL LAB VISIT", "OTHER EVENT", 7.0, "WEEK 6", "TREATMENT", "2012-10-31T16:30", "2012-10-31", 43.0, 43.0]
["CDISCPILOT01", "DS", "01-718-1079", 3.0, "", "FINAL RETRIEVAL VISIT", "FINAL RETRIEVAL VISIT", "OTHER EVENT", 201.0, "RETRIEVAL", "FOLLOW-UP", "2013-03-05", "2013-03-05", 168.0, 168.0]
["CDISCPILOT01", "DS", "01-718-1101", 1.0, "", "SPONSOR DECISION (STUDY OR PATIENT DISCONTINUED BY THE SPONSOR)", "STUDY TERMINATED BY SPONSOR", "DISPOSITION EVENT", 12.0, "WEEK 24", "FOLLOW-UP", "2013-08-02", "2013-08-02", 167.0, 167.0]
["CDISCPILOT01", "DS", "01-718-1101", 2.0, "", "FINAL LAB VISIT", "FINAL LAB VISIT", "OTHER EVENT", 12.0, "WEEK 24", "FOLLOW-UP", "2013-08-02T11:30", "2013-08-02", 167.0, 167.0]
["CDISCPILOT01", "DS", "01-718-1139", 1.0, "", "PROTOCOL COMPLETED", "COMPLETED", "DISPOSITION EVENT", 13.0, "WEEK 26", "FOLLOW-UP", "2013-11-17", "2013-11-17", 183.0, 183.0]
["CDISCPILOT01", "DS", "01-718-1139", 2.0, "", "FINAL LAB VISIT", "FINAL LAB VISIT", "OTHER EVENT", 13.0, "WEEK 26", "FOLLOW-UP", "2013-11-17T10:30", "2013-11-17", 183.0, 183.0]
["CDISCPILOT01", "DS", "01-718-1150", 1.0, "", "PROTOCOL COMPLETED", "COMPLETED", "DISPOSITION EVENT", 13.0, "WEEK 26", "FOLLOW-UP", "2013-07-31", "2013-07-31", 194.0, 194.0]
["CDISCPILOT01", "DS", "01-718-1150", 2.0, "", "FINAL LAB VISIT", "FINAL LAB VISIT", "OTHER EVENT", 13.0, "WEEK 26", "FOLLOW-UP", "2013-07-31T14:05", "2013-07-31", 194.0, 194.0]
["CDISCPILOT01", "DS", "01-718-1170", 1.0, "12", "ADVERSE EVENT", "ADVERSE EVENT", "DISPOSITION EVENT", 5.0, "WEEK 4", "FOLLOW-UP", "2013-11-03", "2013-11-03", 49.0, 49.0]
["CDISCPILOT01", "DS", "01-718-1170", 2.0, "", "FINAL LAB VISIT", "FINAL LAB VISIT", "OTHER EVENT", 5.0, "WEEK 4", "FOLLOW-UP", "2013-11-03T10:15", "2013-11-03", 49.0, 49.0]
["CDISCPILOT01", "DS", "01-718-1170", 3.0, "", "FINAL RETRIEVAL VISIT", "FINAL RETRIEVAL VISIT", "OTHER EVENT", 201.0, "RETRIEVAL", "FOLLOW-UP", "2014-03-15", "2014-03-15", 181.0, 181.0]
["CDISCPILOT01", "DS", "01-718-1172", 1.0, "", "PATIENT TO BEGIN COURSE OF ARICEPT", "WITHDRAWAL BY SUBJECT", "DISPOSITION EVENT", 9.0, "WEEK 12", "FOLLOW-UP", "2013-11-29", "2013-11-29", 70.0, 70.0]
["CDISCPILOT01", "DS", "01-718-1172", 2.0, "", "FINAL LAB VISIT", "FINAL LAB VISIT", "OTHER EVENT", 9.0, "WEEK 12", "FOLLOW-UP", "2013-11-29T15:45", "2013-11-29", 70.0, 70.0]
["CDISCPILOT01", "DS", "01-718-1172", 3.0, "", "FINAL RETRIEVAL VISIT", "FINAL RETRIEVAL VISIT", "OTHER EVENT", 201.0, "RETRIEVAL", "FOLLOW-UP", "2014-03-21", "2014-03-21", 182.0, 182.0]
["CDISCPILOT01", "DS", "01-718-1250", 1.0, "8", "ADVERSE EVENT", "ADVERSE EVENT", "DISPOSITION EVENT", 11.0, "WEEK 20", "FOLLOW-UP", "2014-02-08", "2014-02-08", 141.0, 141.0]
["CDISCPILOT01", "DS", "01-718-1250", 2.0, "", "FINAL LAB VISIT", "FINAL LAB VISIT", "OTHER EVENT", 11.0, "WEEK 20", "FOLLOW-UP", "2014-02-08T09:30", "2014-02-08", 141.0, 141.0]
["CDISCPILOT01", "DS", "01-718-1250", 3.0, "", "FINAL RETRIEVAL VISIT", "FINAL RETRIEVAL VISIT", "OTHER EVENT", 201.0, "RETRIEVAL", "FOLLOW-UP", "2014-03-08", "2014-03-08", 169.0, 169.0]
["CDISCPILOT01", "DS", "01-718-1254", 1.0, "", "PROTOCOL COMPLETED", "COMPLETED", "DISPOSITION EVENT", 13.0, "WEEK 26", "FOLLOW-UP", "2014-01-09", "2014-01-09", 184.0, 184.0]
["CDISCPILOT01", "DS", "01-718-1254", 2.0, "", "FINAL LAB VISIT", "FINAL LAB VISIT", "OTHER EVENT", 13.0, "WEEK 26", "FOLLOW-UP", "2014-01-09T11:10", "2014-01-09", 184.0, 184.0]
["CDISCPILOT01", "DS", "01-718-1328", 1.0, "", "PATIENT UNABLE TO TOLERATE DERMAL IRRITATION AT PATCH SITE", "WITHDRAWAL BY SUBJECT", "DISPOSITION EVENT", 9.0, "WEEK 12", "FOLLOW-UP", "2013-05-01", "2013-05-01", 90.0, 90.0]
["CDISCPILOT01", "DS", "01-718-1328", 2.0, "", "FINAL LAB VISIT", "FINAL LAB VISIT", "OTHER EVENT", 9.0, "WEEK 12", "FOLLOW-UP", "2013-05-01T15:15", "2013-05-01", 90.0, 90.0]
["CDISCPILOT01", "DS", "01-718-1328", 3.0, "", "FINAL RETRIEVAL VISIT", "FINAL RETRIEVAL VISIT", "OTHER EVENT", 201.0, "RETRIEVAL", "FOLLOW-UP", "2013-07-24", "2013-07-24", 174.0, 174.0]
["CDISCPILOT01", "DS", "01-718-1355", 1.0, "", "PROTOCOL COMPLETED", "COMPLETED", "DISPOSITION EVENT", 13.0, "WEEK 26", "FOLLOW-UP", "2013-08-29", "2013-08-29", 183.0, 183.0]
["CDISCPILOT01", "DS", "01-718-1355", 2.0, "", "FINAL LAB VISIT", "FINAL LAB VISIT", "OTHER EVENT", 13.0, "WEEK 26", "FOLLOW-UP", "2013-08-29T14:00", "2013-08-29", 183.0, 183.0]
["CDISCPILOT01", "DS", "01-718-1371", 1.0, "10", "ADVERSE EVENT", "ADVERSE EVENT", "DISPOSITION EVENT", 9.0, "WEEK 12", "FOLLOW-UP", "2013-08-08", "2013-08-08", 105.0, 105.0]
["CDISCPILOT01", "DS", "01-718-1371", 2.0, "", "FINAL LAB VISIT", "FINAL LAB VISIT", "OTHER EVENT", 9.0, "WEEK 12", "TREATMENT", "2013-08-01T14:55", "2013-08-01", 98.0, 98.0]
["CDISCPILOT01", "DS", "01-718-1427", 1.0, "", "LACK OF EFFICACY, PATIENT CAREGIVER PERCEPTION", "LACK OF EFFICACY", "DISPOSITION EVENT", 8.0, "WEEK 8", "FOLLOW-UP", "2013-02-18", "2013-02-18", 64.0, 64.0]
["CDISCPILOT01", "DS", "01-718-1427", 2.0, "", "FINAL LAB VISIT", "FINAL LAB VISIT", "OTHER EVENT", 8.2, "UNSCHEDULED 8.2", "FOLLOW-UP", "2013-02-18T12:30", "2013-02-18", 64.0, 64.0]
["CDISCPILOT01", "DS", "01-718-1427", 3.0, "", "FINAL RETRIEVAL VISIT", "FINAL RETRIEVAL VISIT", "OTHER EVENT", 201.0, "RETRIEVAL", "FOLLOW-UP", "2013-06-03", "2013-06-03", 169.0, 169.0]
