{"datasetJSONCreationDateTime": "2025-10-13T16:15:13", "datasetJSONVersion": "1.1.0", "itemGroupOID": "{LBCH", "records": 32740, "name": "LBCH", "label": "LBCH", "columns": [{"itemOID": "IT.STUDYID", "name": "STUDYID", "label": "Study Identifier", "dataType": "string"}, {"itemOID": "IT.DOMAIN", "name": "DOMAIN", "label": "Domain Abbreviation", "dataType": "string"}, {"itemOID": "IT.USUBJID", "name": "USUBJID", "label": "Unique Subject Identifier", "dataType": "string"}, {"itemOID": "IT.LBSEQ", "name": "LBSEQ", "label": "Sequence Number", "dataType": "double"}, {"itemOID": "IT.LBTESTCD", "name": "LBTESTCD", "label": "Lab Test or Examination Short Name", "dataType": "string"}, {"itemOID": "IT.LBTEST", "name": "LBTEST", "label": "Lab Test or Examination Name", "dataType": "string"}, {"itemOID": "IT.LBCAT", "name": "LBCAT", "label": "Category for Lab Test", "dataType": "string"}, {"itemOID": "IT.LBORRES", "name": "LBORRES", "label": "Result or Finding in Original Units", "dataType": "string"}, {"itemOID": "IT.LBORRESU", "name": "LBORRESU", "label": "Original Units", "dataType": "string"}, {"itemOID": "IT.LBORNRLO", "name": "LBORNRLO", "label": "Reference Range Lower Limit in Orig Unit", "dataType": "string"}, {"itemOID": "IT.LBORNRHI", "name": "LBORNRHI", "label": "Reference Range Upper Limit in Orig Unit", "dataType": "string"}, {"itemOID": "IT.LBSTRESC", "name": "LBSTRESC", "label": "Character Result/Finding in Std Format", "dataType": "string"}, {"itemOID": "IT.LBSTRESN", "name": "LBSTRESN", "label": "Numeric Result/Finding in Standard Units", "dataType": "double"}, {"itemOID": "IT.LBSTRESU", "name": "LBSTRESU", "label": "Standard Units", "dataType": "string"}, {"itemOID": "IT.LBSTNRLO", "name": "LBSTNRLO", "label": "Reference Range Lower Limit-Std Units", "dataType": "double"}, {"itemOID": "IT.LBSTNRHI", "name": "LBSTNRHI", "label": "Reference Range Upper Limit-Std Units", "dataType": "double"}, {"itemOID": "IT.LBNRIND", "name": "LBNRIND", "label": "Reference Range Indicator", "dataType": "string"}, {"itemOID": "IT.LBBLFL", "name": "LBBLFL", "label": "Baseline Flag", "dataType": "string"}, {"itemOID": "IT.VISITNUM", "name": "VISITNUM", "label": "Visit Number", "dataType": "double"}, {"itemOID": "IT.VISIT", "name": "VISIT", "label": "Visit Name", "dataType": "string"}, {"itemOID": "IT.VISITDY", "name": "VISITDY", "label": "Planned Study Day of Visit", "dataType": "double"}, {"itemOID": "IT.EPOCH", "name": "EPOCH", "label": "Epoch", "dataType": "string"}, {"itemOID": "IT.LBDTC", "name": "LBDTC", "label": "Date/Time of Specimen Collection", "dataType": "string"}, {"itemOID": "IT.LBDY", "name": "LBDY", "label": "Study Day of Specimen Collection", "dataType": "double"}]}
["CDISCPILOT01", "LB", "01-701-1015", 1.0, "ALB", "Albumin", "CHEMISTRY", "3.8", "g/dL", "3.3", "4.9", "38", 38.0, "g/L", 33.0, 49.0, "NORMAL", "Y", 1.0, "SCREENING 1", -7.0, "SCREENING", "2013-12-26T14:45", -7.0]
["CDISCPILOT01", "LB", "01-701-1015", 39.0, "ALB", "Albumin", "CHEMISTRY", "3.9", "g/dL", "3.3", "4.9", "39", 39.0, "g/L", 33.0, 49.0, "NORMAL", "", 4.0, "WEEK 2", 14.0, "TREATMENT", "2014-01-16T13:17", 15.0]
["CDISCPILOT01", "LB", "01-701-1015", 74.0, "ALB", "Albumin", "CHEMISTRY", "3.8", "g/dL", "3.3", "4.9", "38", 38.0, "g/L", 33.0, 49.0, "NORMAL", "", 5.0, "WEEK 4", 28.0, "TREATMENT", "2014-01-30T08:50", 29.0]
["CDISCPILOT01", "LB", "01-701-1015", 104.0, "ALB", "Albumin", "CHEMISTRY", "3.7", "g/dL", "3.3", "4.9", "37", 37.0, "g/L", 33.0, 49.0, "NORMAL", "", 7.0, "WEEK 6", 42.0, "TREATMENT", "2014-02-12T12:56", 42.0]
["CDISCPILOT01", "LB", "01-701-1015", 134.0, "ALB", "Albumin", "CHEMISTRY", "3.8", "g/dL", "3.3", "4.9", "38", 38.0, "g/L", 33.0, 49.0, "NORMAL", "", 8.0, "WEEK 8", 56.0, "TREATMENT", "2014-03-05T12:25", 63.0]
["CDISCPILOT01", "LB", "01-701-1015", 164.0, "ALB", "Albumin", "CHEMISTRY", "3.8", "g/dL", "3.3", "4.9", "38", 38.0, "g/L", 33.0, 49.0, "NORMAL", "", 9.0, "WEEK 12", 84.0, "TREATMENT", "2014-03-26T15:15", 84.0]
["CDISCPILOT01", "LB", "01-701-1015", 199.0, "ALB", "Albumin", "CHEMISTRY", "3.7", "g/dL", "3.3", "4.9", "37", 37.0, "g/L", 33.0, 49.0, "NORMAL", "", 10.0, "WEEK 16", 112.0, "TREATMENT", "2014-05-07T11:21", 126.0]
["CDISCPILOT01", "LB", "01-701-1015", 229.0, "ALB", "Albumin", "CHEMISTRY", "3.7", "g/dL", "3.3", "4.9", "37", 37.0, "g/L", 33.0, 49.0, "NORMAL", "", 11.0, "WEEK 20", 140.0, "TREATMENT", "2014-05-21T10:58", 140.0]
["CDISCPILOT01", "LB", "01-701-1015", 259.0, "ALB", "Albumin", "CHEMISTRY", "3.8", "g/dL", "3.3", "4.9", "38", 38.0, "g/L", 33.0, 49.0, "NORMAL", "", 12.0, "WEEK 24", 168.0, "TREATMENT", "2014-06-18T13:00", 168.0]
["CDISCPILOT01", "LB", "01-701-1015", 294.0, "ALB", "Albumin", "CHEMISTRY", "3.8", "g/dL", "3.3", "4.9", "38", 38.0, "g/L", 33.0, 49.0, "NORMAL", "", 13.0, "WEEK 26", 182.0, "TREATMENT", "2014-07-02T11:45", 182.0]
["CDISCPILOT01", "LB", "01-701-1015", 2.0, "ALP", "Alkaline Phosphatase", "CHEMISTRY", "34", "U/L", "35", "115", "34", 34.0, "U/L", 35.0, 115.0, "LOW", "Y", 1.0, "SCREENING 1", -7.0, "SCREENING", "2013-12-26T14:45", -7.0]
["CDISCPILOT01", "LB", "01-701-1015", 40.0, "ALP", "Alkaline Phosphatase", "CHEMISTRY", "50", "U/L", "35", "115", "50", 50.0, "U/L", 35.0, 115.0, "NORMAL", "", 4.0, "WEEK 2", 14.0, "TREATMENT", "2014-01-16T13:17", 15.0]
["CDISCPILOT01", "LB", "01-701-1015", 75.0, "ALP", "Alkaline Phosphatase", "CHEMISTRY", "41", "U/L", "35", "115", "41", 41.0, "U/L", 35.0, 115.0, "NORMAL", "", 5.0, "WEEK 4", 28.0, "TREATMENT", "2014-01-30T08:50", 29.0]
["CDISCPILOT01", "LB", "01-701-1015", 105.0, "ALP", "Alkaline Phosphatase", "CHEMISTRY", "43", "U/L", "35", "115", "43", 43.0, "U/L", 35.0, 115.0, "NORMAL", "", 7.0, "WEEK 6", 42.0, "TREATMENT", "2014-02-12T12:56", 42.0]
["CDISCPILOT01", "LB", "01-701-1015", 135.0, "ALP", "Alkaline Phosphatase", "CHEMISTRY", "47", "U/L", "35", "115", "47", 47.0, "U/L", 35.0, 115.0, "NORMAL", "", 8.0, "WEEK 8", 56.0, "TREATMENT", "2014-03-05T12:25", 63.0]
["CDISCPILOT01", "LB", "01-701-1015", 165.0, "ALP", "Alkaline Phosphatase", "CHEMISTRY", "53", "U/L", "35", "115", "53", 53.0, "U/L", 35.0, 115.0, "NORMAL", "", 9.0, "WEEK 12", 84.0, "TREATMENT", "2014-03-26T15:15", 84.0]
["CDISCPILOT01", "LB", "01-701-1015", 200.0, "ALP", "Alkaline Phosphatase", "CHEMISTRY", "41", "U/L", "35", "115", "41", 41.0, "U/L", 35.0, 115.0, "NORMAL", "", 10.0, "WEEK 16", 112.0, "TREATMENT", "2014-05-07T11:21", 126.0]
["CDISCPILOT01", "LB", "01-701-1015", 230.0, "ALP", "Alkaline Phosphatase", "CHEMISTRY", "45", "U/L", "35", "115", "45", 45.0, "U/L", 35.0, 115.0, "NORMAL", "", 11.0, "WEEK 20", 140.0, "TREATMENT", "2014-05-21T10:58", 140.0]
["CDISCPILOT01", "LB", "01-701-1015", 260.0, "ALP", "Alkaline Phosphatase", "CHEMISTRY", "46", "U/L", "35", "115", "46", 46.0, "U/L", 35.0, 115.0, "NORMAL", "", 12.0, "WEEK 24", 168.0, "TREATMENT", "2014-06-18T13:00", 168.0]
["CDISCPILOT01", "LB", "01-701-1015", 295.0, "ALP", "Alkaline Phosphatase", "CHEMISTRY", "44", "U/L", "35", "115", "44", 44.0, "U/L", 35.0, 115.0, "NORMAL", "", 13.0, "WEEK 26", 182.0, "TREATMENT", "2014-07-02T11:45", 182.0]
["CDISCPILOT01", "LB", "01-701-1015", 3.0, "ALT", "Alanine Aminotransferase", "CHEMISTRY", "27", "U/L", "6", "34", "27", 27.0, "U/L", 6.0, 34.0, "NORMAL", "Y", 1.0, "SCREENING 1", -7.0, "SCREENING", "2013-12-26T14:45", -7.0]
["CDISCPILOT01", "LB", "01-701-1015", 41.0, "ALT", "Alanine Aminotransferase", "CHEMISTRY", "41", "U/L", "6", "34", "41", 41.0, "U/L", 6.0, 34.0, "HIGH", "", 4.0, "WEEK 2", 14.0, "TREATMENT", "2014-01-16T13:17", 15.0]
["CDISCPILOT01", "LB", "01-701-1015", 76.0, "ALT", "Alanine Aminotransferase", "CHEMISTRY", "18", "U/L", "6", "34", "18", 18.0, "U/L", 6.0, 34.0, "NORMAL", "", 5.0, "WEEK 4", 28.0, "TREATMENT", "2014-01-30T08:50", 29.0]
["CDISCPILOT01", "LB", "01-701-1015", 106.0, "ALT", "Alanine Aminotransferase", "CHEMISTRY", "26", "U/L", "6", "34", "26", 26.0, "U/L", 6.0, 34.0, "NORMAL", "", 7.0, "WEEK 6", 42.0, "TREATMENT", "2014-02-12T12:56", 42.0]
["CDISCPILOT01", "LB", "01-701-1015", 136.0, "ALT", "Alanine Aminotransferase", "CHEMISTRY", "22", "U/L", "6", "34", "22", 22.0, "U/L", 6.0, 34.0, "NORMAL", "", 8.0, "WEEK 8", 56.0, "TREATMENT", "2014-03-05T12:25", 63.0]
["CDISCPILOT01", "LB", "01-701-1015", 166.0, "ALT", "Alanine Aminotransferase", "CHEMISTRY", "27", "U/L", "6", "34", "27", 27.0, "U/L", 6.0, 34.0, "NORMAL", "", 9.0, "WEEK 12", 84.0, "TREATMENT", "2014-03-26T15:15", 84.0]
["CDISCPILOT01", "LB", "01-701-1015", 201.0, "ALT", "Alanine Aminotransferase", "CHEMISTRY", "17", "U/L", "6", "34", "17", 17.0, "U/L", 6.0, 34.0, "NORMAL", "", 10.0, "WEEK 16", 112.0, "TREATMENT", "2014-05-07T11:21", 126.0]
["CDISCPILOT01", "LB", "01-701-1015", 231.0, "ALT", "Alanine Aminotransferase", "CHEMISTRY", "21", "U/L", "6", "34", "21", 21.0, "U/L", 6.0, 34.0, "NORMAL", "", 11.0, "WEEK 20", 140.0, "TREATMENT", "2014-05-21T10:58", 140.0]
["CDISCPILOT01", "LB", "01-701-1015", 261.0, "ALT", "Alanine Aminotransferase", "CHEMISTRY", "23", "U/L", "6", "34", "23", 23.0, "U/L", 6.0, 34.0, "NORMAL", "", 12.0, "WEEK 24", 168.0, "TREATMENT", "2014-06-18T13:00", 168.0]
["CDISCPILOT01", "LB", "01-701-1015", 296.0, "ALT", "Alanine Aminotransferase", "CHEMISTRY", "23", "U/L", "6", "34", "23", 23.0, "U/L", 6.0, 34.0, "NORMAL", "", 13.0, "WEEK 26", 182.0, "TREATMENT", "2014-07-02T11:45", 182.0]
["CDISCPILOT01", "LB", "01-701-1015", 5.0, "AST", "Aspartate Aminotransferase", "CHEMISTRY", "40", "U/L", "9", "34", "40", 40.0, "U/L", 9.0, 34.0, "HIGH", "Y", 1.0, "SCREENING 1", -7.0, "SCREENING", "2013-12-26T14:45", -7.0]
["CDISCPILOT01", "LB", "01-701-1015", 42.0, "AST", "Aspartate Aminotransferase", "CHEMISTRY", "33", "U/L", "9", "34", "33", 33.0, "U/L", 9.0, 34.0, "NORMAL", "", 4.0, "WEEK 2", 14.0, "TREATMENT", "2014-01-16T13:17", 15.0]
["CDISCPILOT01", "LB", "01-701-1015", 77.0, "AST", "Aspartate Aminotransferase", "CHEMISTRY", "21", "U/L", "9", "34", "21", 21.0, "U/L", 9.0, 34.0, "NORMAL", "", 5.0, "WEEK 4", 28.0, "TREATMENT", "2014-01-30T08:50", 29.0]
["CDISCPILOT01", "LB", "01-701-1015", 107.0, "AST", "Aspartate Aminotransferase", "CHEMISTRY", "26", "U/L", "9", "34", "26", 26.0, "U/L", 9.0, 34.0, "NORMAL", "", 7.0, "WEEK 6", 42.0, "TREATMENT", "2014-02-12T12:56", 42.0]
["CDISCPILOT01", "LB", "01-701-1015", 137.0, "AST", "Aspartate Aminotransferase", "CHEMISTRY", "21", "U/L", "9", "34", "21", 21.0, "U/L", 9.0, 34.0, "NORMAL", "", 8.0, "WEEK 8", 56.0, "TREATMENT", "2014-03-05T12:25", 63.0]
["CDISCPILOT01", "LB", "01-701-1015", 167.0, "AST", "Aspartate Aminotransferase", "CHEMISTRY", "22", "U/L", "9", "34", "22", 22.0, "U/L", 9.0, 34.0, "NORMAL", "", 9.0, "WEEK 12", 84.0, "TREATMENT", "2014-03-26T15:15", 84.0]
["CDISCPILOT01", "LB", "01-701-1015", 202.0, "AST", "Aspartate Aminotransferase", "CHEMISTRY", "23", "U/L", "9", "34", "23", 23.0, "U/L", 9.0, 34.0, "NORMAL", "", 10.0, "WEEK 16", 112.0, "TREATMENT", "2014-05-07T11:21", 126.0]
["CDISCPILOT01", "LB", "01-701-1015", 232.0, "AST", "Aspartate Aminotransferase", "CHEMISTRY", "19", "U/L", "9", "34", "19", 19.0, "U/L", 9.0, 34.0, "NORMAL", "", 11.0, "WEEK 20", 140.0, "TREATMENT", "2014-05-21T10:58", 140.0]
["CDISCPILOT01", "LB", "01-701-1015", 262.0, "AST", "Aspartate Aminotransferase", "CHEMISTRY", "23", "U/L", "9", "34", "23", 23.0, "U/L", 9.0, 34.0, "NORMAL", "", 12.0, "WEEK 24", 168.0, "TREATMENT", "2014-06-18T13:00", 168.0]
["CDISCPILOT01", "LB", "01-701-1015", 297.0, "AST", "Aspartate Aminotransferase", "CHEMISTRY", "19", "U/L", "9", "34", "19", 19.0, "U/L", 9.0, 34.0, "NORMAL", "", 13.0, "WEEK 26", 182.0, "TREATMENT", "2014-07-02T11:45", 182.0]
["CDISCPILOT01", "LB", "01-701-1015", 7.0, "BILI", "Bilirubin", "CHEMISTRY", "0.6", "mg/dL", "0.2", "1.2", "10.26", 10.26, "umol/L", 3.0, 21.0, "NORMAL", "Y", 1.0, "SCREENING 1", -7.0, "SCREENING", "2013-12-26T14:45", -7.0]
["CDISCPILOT01", "LB", "01-701-1015", 44.0, "BILI", "Bilirubin", "CHEMISTRY", "0.5", "mg/dL", "0.2", "1.2", "8.55", 8.549999999999999, "umol/L", 3.0, 21.0, "NORMAL", "", 4.0, "WEEK 2", 14.0, "TREATMENT", "2014-01-16T13:17", 15.0]
["CDISCPILOT01", "LB", "01-701-1015", 79.0, "BILI", "Bilirubin", "CHEMISTRY", "0.4", "mg/dL", "0.2", "1.2", "6.84", 6.84, "umol/L", 3.0, 21.0, "NORMAL", "", 5.0, "WEEK 4", 28.0, "TREATMENT", "2014-01-30T08:50", 29.0]
["CDISCPILOT01", "LB", "01-701-1015", 109.0, "BILI", "Bilirubin", "CHEMISTRY", "0.3", "mg/dL", "0.2", "1.2", "5.13", 5.13, "umol/L", 3.0, 21.0, "NORMAL", "", 7.0, "WEEK 6", 42.0, "TREATMENT", "2014-02-12T12:56", 42.0]
["CDISCPILOT01", "LB", "01-701-1015", 139.0, "BILI", "Bilirubin", "CHEMISTRY", "0.5", "mg/dL", "0.2", "1.2", "8.55", 8.549999999999999, "umol/L", 3.0, 21.0, "NORMAL", "", 8.0, "WEEK 8", 56.0, "TREATMENT", "2014-03-05T12:25", 63.0]
["CDISCPILOT01", "LB", "01-701-1015", 169.0, "BILI", "Bilirubin", "CHEMISTRY", "0.4", "mg/dL", "0.2", "1.2", "6.84", 6.84, "umol/L", 3.0, 21.0, "NORMAL", "", 9.0, "WEEK 12", 84.0, "TREATMENT", "2014-03-26T15:15", 84.0]
["CDISCPILOT01", "LB", "01-701-1015", 204.0, "BILI", "Bilirubin", "CHEMISTRY", "0.4", "mg/dL", "0.2", "1.2", "6.84", 6.84, "umol/L", 3.0, 21.0, "NORMAL", "", 10.0, "WEEK 16", 112.0, "TREATMENT", "2014-05-07T11:21", 126.0]
["CDISCPILOT01", "LB", "01-701-1015", 234.0, "BILI", "Bilirubin", "CHEMISTRY", "0.4", "mg/dL", "0.2", "1.2", "6.84", 6.84, "umol/L", 3.0, 21.0, "NORMAL", "", 11.0, "WEEK 20", 140.0, "TREATMENT", "2014-05-21T10:58", 140.0]
["CDISCPILOT01", "LB", "01-701-1015", 264.0, "BILI", "Bilirubin", "CHEMISTRY", "0.4", "mg/dL", "0.2", "1.2", "6.84", 6.84, "umol/L", 3.0, 21.0, "NORMAL", "", 12.0, "WEEK 24", 168.0, "TREATMENT", "2014-06-18T13:00", 168.0]
["CDISCPILOT01", "LB", "01-701-1015", 299.0, "BILI", "Bilirubin", "CHEMISTRY", "0.3", "mg/dL", "0.2", "1.2", "5.13", 5.13, "umol/L", 3.0, 21.0, "NORMAL", "", 13.0, "WEEK 26", 182.0, "TREATMENT", "2014-07-02T11:45", 182.0]
["CDISCPILOT01", "LB", "01-701-1015", 8.0, "UREAN", "Urea Nitrogen", "CHEMISTRY", "10", "mg/dL", "4", "24", "3.57", 3.57, "mmol/L", 1.4, 8.6, "NORMAL", "Y", 1.0, "SCREENING 1", -7.0, "SCREENING", "2013-12-26T14:45", -7.0]
["CDISCPILOT01", "LB", "01-701-1015", 45.0, "UREAN", "Urea Nitrogen", "CHEMISTRY", "10", "mg/dL", "4", "24", "3.57", 3.57, "mmol/L", 1.4, 8.6, "NORMAL", "", 4.0, "WEEK 2", 14.0, "TREATMENT", "2014-01-16T13:17", 15.0]
["CDISCPILOT01", "LB", "01-701-1015", 80.0, "UREAN", "Urea Nitrogen", "CHEMISTRY", "8", "mg/dL", "4", "24", "2.856", 2.856, "mmol/L", 1.4, 8.6, "NORMAL", "", 5.0, "WEEK 4", 28.0, "TREATMENT", "2014-01-30T08:50", 29.0]
["CDISCPILOT01", "LB", "01-701-1015", 110.0, "UREAN", "Urea Nitrogen", "CHEMISTRY", "12", "mg/dL", "4", "24", "4.284", 4.284, "mmol/L", 1.4, 8.6, "NORMAL", "", 7.0, "WEEK 6", 42.0, "TREATMENT", "2014-02-12T12:56", 42.0]
["CDISCPILOT01", "LB", "01-701-1015", 140.0, "UREAN", "Urea Nitrogen", "CHEMISTRY", "11", "mg/dL", "4", "24", "3.927", 3.927, "mmol/L", 1.4, 8.6, "NORMAL", "", 8.0, "WEEK 8", 56.0, "TREATMENT", "2014-03-05T12:25", 63.0]
["CDISCPILOT01", "LB", "01-701-1015", 170.0, "UREAN", "Urea Nitrogen", "CHEMISTRY", "10", "mg/dL", "4", "24", "3.57", 3.57, "mmol/L", 1.4, 8.6, "NORMAL", "", 9.0, "WEEK 12", 84.0, "TREATMENT", "2014-03-26T15:15", 84.0]
["CDISCPILOT01", "LB", "01-701-1015", 205.0, "UREAN", "Urea Nitrogen", "CHEMISTRY", "10", "mg/dL", "4", "24", "3.57", 3.57, "mmol/L", 1.4, 8.6, "NORMAL", "", 10.0, "WEEK 16", 112.0, "TREATMENT", "2014-05-07T11:21", 126.0]
["CDISCPILOT01", "LB", "01-701-1015", 235.0, "UREAN", "Urea Nitrogen", "CHEMISTRY", "11", "mg/dL", "4", "24", "3.927", 3.927, "mmol/L", 1.4, 8.6, "NORMAL", "", 11.0, "WEEK 20", 140.0, "TREATMENT", "2014-05-21T10:58", 140.0]
["CDISCPILOT01", "LB", "01-701-1015", 265.0, "UREAN", "Urea Nitrogen", "CHEMISTRY", "12", "mg/dL", "4", "24", "4.284", 4.284, "mmol/L", 1.4, 8.6, "NORMAL", "", 12.0, "WEEK 24", 168.0, "TREATMENT", "2014-06-18T13:00", 168.0]
["CDISCPILOT01", "LB", "01-701-1015", 300.0, "UREAN", "Urea Nitrogen", "CHEMISTRY", "11", "mg/dL", "4", "24", "3.927", 3.927, "mmol/L", 1.4, 8.6, "NORMAL", "", 13.0, "WEEK 26", 182.0, "TREATMENT", "2014-07-02T11:45", 182.0]
["CDISCPILOT01", "LB", "01-701-1015", 9.0, "CA", "Calcium", "CHEMISTRY", "8.8", "mg/dL", "8.4", "10.3", "2.1956", 2.1955999999999998, "mmol/L", 2.1, 2.57, "NORMAL", "Y", 1.0, "SCREENING 1", -7.0, "SCREENING", "2013-12-26T14:45", -7.0]
["CDISCPILOT01", "LB", "01-701-1015", 46.0, "CA", "Calcium", "CHEMISTRY", "9.4", "mg/dL", "8.4", "10.3", "2.3453", 2.3453, "mmol/L", 2.1, 2.57, "NORMAL", "", 4.0, "WEEK 2", 14.0, "TREATMENT", "2014-01-16T13:17", 15.0]
["CDISCPILOT01", "LB", "01-701-1015", 81.0, "CA", "Calcium", "CHEMISTRY", "9.1", "mg/dL", "8.4", "10.3", "2.27045", 2.27045, "mmol/L", 2.1, 2.57, "NORMAL", "", 5.0, "WEEK 4", 28.0, "TREATMENT", "2014-01-30T08:50", 29.0]
["CDISCPILOT01", "LB", "01-701-1015", 111.0, "CA", "Calcium", "CHEMISTRY", "9.2", "mg/dL", "8.4", "10.3", "2.2954", 2.2954, "mmol/L", 2.1, 2.57, "NORMAL", "", 7.0, "WEEK 6", 42.0, "TREATMENT", "2014-02-12T12:56", 42.0]
["CDISCPILOT01", "LB", "01-701-1015", 141.0, "CA", "Calcium", "CHEMISTRY", "8.9", "mg/dL", "8.4", "10.3", "2.22055", 2.22055, "mmol/L", 2.1, 2.57, "NORMAL", "", 8.0, "WEEK 8", 56.0, "TREATMENT", "2014-03-05T12:25", 63.0]
["CDISCPILOT01", "LB", "01-701-1015", 171.0, "CA", "Calcium", "CHEMISTRY", "9.4", "mg/dL", "8.4", "10.3", "2.3453", 2.3453, "mmol/L", 2.1, 2.57, "NORMAL", "", 9.0, "WEEK 12", 84.0, "TREATMENT", "2014-03-26T15:15", 84.0]
["CDISCPILOT01", "LB", "01-701-1015", 206.0, "CA", "Calcium", "CHEMISTRY", "8.8", "mg/dL", "8.4", "10.3", "2.1956", 2.1955999999999998, "mmol/L", 2.1, 2.57, "NORMAL", "", 10.0, "WEEK 16", 112.0, "TREATMENT", "2014-05-07T11:21", 126.0]
["CDISCPILOT01", "LB", "01-701-1015", 236.0, "CA", "Calcium", "CHEMISTRY", "8.7", "mg/dL", "8.4", "10.3", "2.17065", 2.1706499999999997, "mmol/L", 2.1, 2.57, "NORMAL", "", 11.0, "WEEK 20", 140.0, "TREATMENT", "2014-05-21T10:58", 140.0]
["CDISCPILOT01", "LB", "01-701-1015", 266.0, "CA", "Calcium", "CHEMISTRY", "8.9", "mg/dL", "8.4", "10.3", "2.22055", 2.22055, "mmol/L", 2.1, 2.57, "NORMAL", "", 12.0, "WEEK 24", 168.0, "TREATMENT", "2014-06-18T13:00", 168.0]
["CDISCPILOT01", "LB", "01-701-1015", 301.0, "CA", "Calcium", "CHEMISTRY", "8.8", "mg/dL", "8.4", "10.3", "2.1956", 2.1955999999999998, "mmol/L", 2.1, 2.57, "NORMAL", "", 13.0, "WEEK 26", 182.0, "TREATMENT", "2014-07-02T11:45", 182.0]
["CDISCPILOT01", "LB", "01-701-1015", 10.0, "CHOL", "Cholesterol", "CHEMISTRY", "230", "mg/dL", "156", "300", "5.9478", 5.9478, "mmol/L", 4.029999999999999, 7.76, "NORMAL", "Y", 1.0, "SCREENING 1", -7.0, "SCREENING", "2013-12-26T14:45", -7.0]
["CDISCPILOT01", "LB", "01-701-1015", 47.0, "CHOL", "Cholesterol", "CHEMISTRY", "212", "mg/dL", "156", "300", "5.48232", 5.48232, "mmol/L", 4.029999999999999, 7.76, "NORMAL", "", 4.0, "WEEK 2", 14.0, "TREATMENT", "2014-01-16T13:17", 15.0]
["CDISCPILOT01", "LB", "01-701-1015", 82.0, "CHOL", "Cholesterol", "CHEMISTRY", "193", "mg/dL", "156", "300", "4.99098", 4.9909799999999995, "mmol/L", 4.029999999999999, 7.76, "NORMAL", "", 5.0, "WEEK 4", 28.0, "TREATMENT", "2014-01-30T08:50", 29.0]
["CDISCPILOT01", "LB", "01-701-1015", 112.0, "CHOL", "Cholesterol", "CHEMISTRY", "218", "mg/dL", "156", "300", "5.63748", 5.63748, "mmol/L", 4.029999999999999, 7.76, "NORMAL", "", 7.0, "WEEK 6", 42.0, "TREATMENT", "2014-02-12T12:56", 42.0]
["CDISCPILOT01", "LB", "01-701-1015", 142.0, "CHOL", "Cholesterol", "CHEMISTRY", "214", "mg/dL", "156", "300", "5.53404", 5.53404, "mmol/L", 4.029999999999999, 7.76, "NORMAL", "", 8.0, "WEEK 8", 56.0, "TREATMENT", "2014-03-05T12:25", 63.0]
["CDISCPILOT01", "LB", "01-701-1015", 172.0, "CHOL", "Cholesterol", "CHEMISTRY", "218", "mg/dL", "156", "300", "5.63748", 5.63748, "mmol/L", 4.029999999999999, 7.76, "NORMAL", "", 9.0, "WEEK 12", 84.0, "TREATMENT", "2014-03-26T15:15", 84.0]
["CDISCPILOT01", "LB", "01-701-1015", 207.0, "CHOL", "Cholesterol", "CHEMISTRY", "213", "mg/dL", "156", "300", "5.50818", 5.508179999999999, "mmol/L", 4.029999999999999, 7.76, "NORMAL", "", 10.0, "WEEK 16", 112.0, "TREATMENT", "2014-05-07T11:21", 126.0]
["CDISCPILOT01", "LB", "01-701-1015", 237.0, "CHOL", "Cholesterol", "CHEMISTRY", "207", "mg/dL", "156", "300", "5.35302", 5.35302, "mmol/L", 4.029999999999999, 7.76, "NORMAL", "", 11.0, "WEEK 20", 140.0, "TREATMENT", "2014-05-21T10:58", 140.0]
["CDISCPILOT01", "LB", "01-701-1015", 267.0, "CHOL", "Cholesterol", "CHEMISTRY", "201", "mg/dL", "156", "300", "5.19786", 5.1978599999999995, "mmol/L", 4.029999999999999, 7.76, "NORMAL", "", 12.0, "WEEK 24", 168.0, "TREATMENT", "2014-06-18T13:00", 168.0]
["CDISCPILOT01", "LB", "01-701-1015", 302.0, "CHOL", "Cholesterol", "CHEMISTRY", "214", "mg/dL", "156", "300", "5.53404", 5.53404, "mmol/L", 4.029999999999999, 7.76, "NORMAL", "", 13.0, "WEEK 26", 182.0, "TREATMENT", "2014-07-02T11:45", 182.0]
["CDISCPILOT01", "LB", "01-701-1015", 11.0, "CK", "Creatine Kinase", "CHEMISTRY", "70", "U/L", "21", "169", "70", 70.0, "U/L", 21.0, 169.0, "NORMAL", "Y", 1.0, "SCREENING 1", -7.0, "SCREENING", "2013-12-26T14:45", -7.0]
["CDISCPILOT01", "LB", "01-701-1015", 48.0, "CK", "Creatine Kinase", "CHEMISTRY", "54", "U/L", "21", "169", "54", 54.0, "U/L", 21.0, 169.0, "NORMAL", "", 4.0, "WEEK 2", 14.0, "TREATMENT", "2014-01-16T13:17", 15.0]
["CDISCPILOT01", "LB", "01-701-1015", 83.0, "CK", "Creatine Kinase", "CHEMISTRY", "45", "U/L", "21", "169", "45", 45.0, "U/L", 21.0, 169.0, "NORMAL", "", 5.0, "WEEK 4", 28.0, "TREATMENT", "2014-01-30T08:50", 29.0]
["CDISCPILOT01", "LB", "01-701-1015", 113.0, "CK", "Creatine Kinase", "CHEMISTRY", "64", "U/L", "21", "169", "64", 64.0, "U/L", 21.0, 169.0, "NORMAL", "", 7.0, "WEEK 6", 42.0, "TREATMENT", "2014-02-12T12:56", 42.0]
["CDISCPILOT01", "LB", "01-701-1015", 143.0, "CK", "Creatine Kinase", "CHEMISTRY", "49", "U/L", "21", "169", "49", 49.0, "U/L", 21.0, 169.0, "NORMAL", "", 8.0, "WEEK 8", 56.0, "TREATMENT", "2014-03-05T12:25", 63.0]
["CDISCPILOT01", "LB", "01-701-1015", 173.0, "CK", "Creatine Kinase", "CHEMISTRY", "56", "U/L", "21", "169", "56", 56.0, "U/L", 21.0, 169.0, "NORMAL", "", 9.0, "WEEK 12", 84.0, "TREATMENT", "2014-03-26T15:15", 84.0]
["CDISCPILOT01", "LB", "01-701-1015", 208.0, "CK", "Creatine Kinase", "CHEMISTRY", "50", "U/L", "21", "169", "50", 50.0, "U/L", 21.0, 169.0, "NORMAL", "", 10.0, "WEEK 16", 112.0, "TREATMENT", "2014-05-07T11:21", 126.0]
["CDISCPILOT01", "LB", "01-701-1015", 238.0, "CK", "Creatine Kinase", "CHEMISTRY", "50", "U/L", "21", "169", "50", 50.0, "U/L", 21.0, 169.0, "NORMAL", "", 11.0, "WEEK 20", 140.0, "TREATMENT", "2014-05-21T10:58", 140.0]
["CDISCPILOT01", "LB", "01-701-1015", 268.0, "CK", "Creatine Kinase", "CHEMISTRY", "42", "U/L", "21", "169", "42", 42.0, "U/L", 21.0, 169.0, "NORMAL", "", 12.0, "WEEK 24", 168.0, "TREATMENT", "2014-06-18T13:00", 168.0]
["CDISCPILOT01", "LB", "01-701-1015", 303.0, "CK", "Creatine Kinase", "CHEMISTRY", "44", "U/L", "21", "169", "44", 44.0, "U/L", 21.0, 169.0, "NORMAL", "", 13.0, "WEEK 26", 182.0, "TREATMENT", "2014-07-02T11:45", 182.0]
["CDISCPILOT01", "LB", "01-701-1015", 12.0, "CL", "Chloride", "CHEMISTRY", "106", "mEq/L", "94", "112", "106", 106.0, "mmol/L", 94.0, 112.0, "NORMAL", "Y", 1.0, "SCREENING 1", -7.0, "SCREENING", "2013-12-26T14:45", -7.0]
["CDISCPILOT01", "LB", "01-701-1015", 49.0, "CL", "Chloride", "CHEMISTRY", "103", "mEq/L", "94", "112", "103", 103.0, "mmol/L", 94.0, 112.0, "NORMAL", "", 4.0, "WEEK 2", 14.0, "TREATMENT", "2014-01-16T13:17", 15.0]
["CDISCPILOT01", "LB", "01-701-1015", 84.0, "CL", "Chloride", "CHEMISTRY", "107", "mEq/L", "94", "112", "107", 107.0, "mmol/L", 94.0, 112.0, "NORMAL", "", 5.0, "WEEK 4", 28.0, "TREATMENT", "2014-01-30T08:50", 29.0]
["CDISCPILOT01", "LB", "01-701-1015", 114.0, "CL", "Chloride", "CHEMISTRY", "105", "mEq/L", "94", "112", "105", 105.0, "mmol/L", 94.0, 112.0, "NORMAL", "", 7.0, "WEEK 6", 42.0, "TREATMENT", "2014-02-12T12:56", 42.0]
["CDISCPILOT01", "LB", "01-701-1015", 144.0, "CL", "Chloride", "CHEMISTRY", "105", "mEq/L", "94", "112", "105", 105.0, "mmol/L", 94.0, 112.0, "NORMAL", "", 8.0, "WEEK 8", 56.0, "TREATMENT", "2014-03-05T12:25", 63.0]
["CDISCPILOT01", "LB", "01-701-1015", 174.0, "CL", "Chloride", "CHEMISTRY", "99", "mEq/L", "94", "112", "99", 99.0, "mmol/L", 94.0, 112.0, "NORMAL", "", 9.0, "WEEK 12", 84.0, "TREATMENT", "2014-03-26T15:15", 84.0]
["CDISCPILOT01", "LB", "01-701-1015", 209.0, "CL", "Chloride", "CHEMISTRY", "103", "mEq/L", "94", "112", "103", 103.0, "mmol/L", 94.0, 112.0, "NORMAL", "", 10.0, "WEEK 16", 112.0, "TREATMENT", "2014-05-07T11:21", 126.0]
["CDISCPILOT01", "LB", "01-701-1015", 239.0, "CL", "Chloride", "CHEMISTRY", "108", "mEq/L", "94", "112", "108", 108.0, "mmol/L", 94.0, 112.0, "NORMAL", "", 11.0, "WEEK 20", 140.0, "TREATMENT", "2014-05-21T10:58", 140.0]
["CDISCPILOT01", "LB", "01-701-1015", 269.0, "CL", "Chloride", "CHEMISTRY", "103", "mEq/L", "94", "112", "103", 103.0, "mmol/L", 94.0, 112.0, "NORMAL", "", 12.0, "WEEK 24", 168.0, "TREATMENT", "2014-06-18T13:00", 168.0]
["CDISCPILOT01", "LB", "01-701-1015", 304.0, "CL", "Chloride", "CHEMISTRY", "104", "mEq/L", "94", "112", "104", 104.0, "mmol/L", 94.0, 112.0, "NORMAL", "", 13.0, "WEEK 26", 182.0, "TREATMENT", "2014-07-02T11:45", 182.0]
["CDISCPILOT01", "LB", "01-701-1015", 14.0, "CREAT", "Creatinine", "CHEMISTRY", "0.9", "mg/dL", "0.7", "1.4", "79.56", 79.55999999999999, "umol/L", 62.0, 124.0, "NORMAL", "Y", 1.0, "SCREENING 1", -7.0, "SCREENING", "2013-12-26T14:45", -7.0]
["CDISCPILOT01", "LB", "01-701-1015", 51.0, "CREAT", "Creatinine", "CHEMISTRY", "1.0", "mg/dL", "0.7", "1.4", "88.4", 88.39999999999999, "umol/L", 62.0, 124.0, "NORMAL", "", 4.0, "WEEK 2", 14.0, "TREATMENT", "2014-01-16T13:17", 15.0]
["CDISCPILOT01", "LB", "01-701-1015", 85.0, "CREAT", "Creatinine", "CHEMISTRY", "0.8", "mg/dL", "0.7", "1.4", "70.72", 70.72, "umol/L", 62.0, 124.0, "NORMAL", "", 5.0, "WEEK 4", 28.0, "TREATMENT", "2014-01-30T08:50", 29.0]
["CDISCPILOT01", "LB", "01-701-1015", 115.0, "CREAT", "Creatinine", "CHEMISTRY", "1.0", "mg/dL", "0.7", "1.4", "88.4", 88.39999999999999, "umol/L", 62.0, 124.0, "NORMAL", "", 7.0, "WEEK 6", 42.0, "TREATMENT", "2014-02-12T12:56", 42.0]
["CDISCPILOT01", "LB", "01-701-1015", 145.0, "CREAT", "Creatinine", "CHEMISTRY", "1.0", "mg/dL", "0.7", "1.4", "88.4", 88.39999999999999, "umol/L", 62.0, 124.0, "NORMAL", "", 8.0, "WEEK 8", 56.0, "TREATMENT", "2014-03-05T12:25", 63.0]
["CDISCPILOT01", "LB", "01-701-1015", 176.0, "CREAT", "Creatinine", "CHEMISTRY", "0.9", "mg/dL", "0.7", "1.4", "79.56", 79.55999999999999, "umol/L", 62.0, 124.0, "NORMAL", "", 9.0, "WEEK 12", 84.0, "TREATMENT", "2014-03-26T15:15", 84.0]
["CDISCPILOT01", "LB", "01-701-1015", 210.0, "CREAT", "Creatinine", "CHEMISTRY", "1.0", "mg/dL", "0.7", "1.4", "88.4", 88.39999999999999, "umol/L", 62.0, 124.0, "NORMAL", "", 10.0, "WEEK 16", 112.0, "TREATMENT", "2014-05-07T11:21", 126.0]
["CDISCPILOT01", "LB", "01-701-1015", 240.0, "CREAT", "Creatinine", "CHEMISTRY", "0.9", "mg/dL", "0.7", "1.4", "79.56", 79.55999999999999, "umol/L", 62.0, 124.0, "NORMAL", "", 11.0, "WEEK 20", 140.0, "TREATMENT", "2014-05-21T10:58", 140.0]
["CDISCPILOT01", "LB", "01-701-1015", 271.0, "CREAT", "Creatinine", "CHEMISTRY", "0.9", "mg/dL", "0.7", "1.4", "79.56", 79.55999999999999, "umol/L", 62.0, 124.0, "NORMAL", "", 12.0, "WEEK 24", 168.0, "TREATMENT", "2014-06-18T13:00", 168.0]
["CDISCPILOT01", "LB", "01-701-1015", 305.0, "CREAT", "Creatinine", "CHEMISTRY", "1.0", "mg/dL", "0.7", "1.4", "88.4", 88.39999999999999, "umol/L", 62.0, 124.0, "NORMAL", "", 13.0, "WEEK 26", 182.0, "TREATMENT", "2014-07-02T11:45", 182.0]
["CDISCPILOT01", "LB", "01-701-1015", 16.0, "GGT", "Gamma Glutamyl Transferase", "CHEMISTRY", "15", "U/L", "5", "50", "15", 15.0, "U/L", 5.0, 50.0, "NORMAL", "Y", 1.0, "SCREENING 1", -7.0, "SCREENING", "2013-12-26T14:45", -7.0]
["CDISCPILOT01", "LB", "01-701-1015", 53.0, "GGT", "Gamma Glutamyl Transferase", "CHEMISTRY", "19", "U/L", "5", "50", "19", 19.0, "U/L", 5.0, 50.0, "NORMAL", "", 4.0, "WEEK 2", 14.0, "TREATMENT", "2014-01-16T13:17", 15.0]
["CDISCPILOT01", "LB", "01-701-1015", 87.0, "GGT", "Gamma Glutamyl Transferase", "CHEMISTRY", "15", "U/L", "5", "50", "15", 15.0, "U/L", 5.0, 50.0, "NORMAL", "", 5.0, "WEEK 4", 28.0, "TREATMENT", "2014-01-30T08:50", 29.0]
["CDISCPILOT01", "LB", "01-701-1015", 117.0, "GGT", "Gamma Glutamyl Transferase", "CHEMISTRY", "14", "U/L", "5", "50", "14", 14.0, "U/L", 5.0, 50.0, "NORMAL", "", 7.0, "WEEK 6", 42.0, "TREATMENT", "2014-02-12T12:56", 42.0]
["CDISCPILOT01", "LB", "01-701-1015", 147.0, "GGT", "Gamma Glutamyl Transferase", "CHEMISTRY", "14", "U/L", "5", "50", "14", 14.0, "U/L", 5.0, 50.0, "NORMAL", "", 8.0, "WEEK 8", 56.0, "TREATMENT", "2014-03-05T12:25", 63.0]
["CDISCPILOT01", "LB", "01-701-1015", 178.0, "GGT", "Gamma Glutamyl Transferase", "CHEMISTRY", "23", "U/L", "5", "50", "23", 23.0, "U/L", 5.0, 50.0, "NORMAL", "", 9.0, "WEEK 12", 84.0, "TREATMENT", "2014-03-26T15:15", 84.0]
["CDISCPILOT01", "LB", "01-701-1015", 212.0, "GGT", "Gamma Glutamyl Transferase", "CHEMISTRY", "15", "U/L", "5", "50", "15", 15.0, "U/L", 5.0, 50.0, "NORMAL", "", 10.0, "WEEK 16", 112.0, "TREATMENT", "2014-05-07T11:21", 126.0]
["CDISCPILOT01", "LB", "01-701-1015", 242.0, "GGT", "Gamma Glutamyl Transferase", "CHEMISTRY", "17", "U/L", "5", "50", "17", 17.0, "U/L", 5.0, 50.0, "NORMAL", "", 11.0, "WEEK 20", 140.0, "TREATMENT", "2014-05-21T10:58", 140.0]
["CDISCPILOT01", "LB", "01-701-1015", 273.0, "GGT", "Gamma Glutamyl Transferase", "CHEMISTRY", "20", "U/L", "5", "50", "20", 20.0, "U/L", 5.0, 50.0, "NORMAL", "", 12.0, "WEEK 24", 168.0, "TREATMENT", "2014-06-18T13:00", 168.0]
["CDISCPILOT01", "LB", "01-701-1015", 307.0, "GGT", "Gamma Glutamyl Transferase", "CHEMISTRY", "16", "U/L", "5", "50", "16", 16.0, "U/L", 5.0, 50.0, "NORMAL", "", 13.0, "WEEK 26", 182.0, "TREATMENT", "2014-07-02T11:45", 182.0]
["CDISCPILOT01", "LB", "01-701-1015", 17.0, "GLUC", "Glucose", "CHEMISTRY", "85", "mg/dL", "50", "250", "4.71835", 4.71835, "mmol/L", 2.8, 13.899999999999999, "NORMAL", "Y", 1.0, "SCREENING 1", -7.0, "SCREENING", "2013-12-26T14:45", -7.0]
["CDISCPILOT01", "LB", "01-701-1015", 54.0, "GLUC", "Glucose", "CHEMISTRY", "84", "mg/dL", "50", "250", "4.66284", 4.66284, "mmol/L", 2.8, 13.899999999999999, "NORMAL", "", 4.0, "WEEK 2", 14.0, "TREATMENT", "2014-01-16T13:17", 15.0]
["CDISCPILOT01", "LB", "01-701-1015", 88.0, "GLUC", "Glucose", "CHEMISTRY", "79", "mg/dL", "50", "250", "4.38529", 4.3852899999999995, "mmol/L", 2.8, 13.899999999999999, "NORMAL", "", 5.0, "WEEK 4", 28.0, "TREATMENT", "2014-01-30T08:50", 29.0]
["CDISCPILOT01", "LB", "01-701-1015", 118.0, "GLUC", "Glucose", "CHEMISTRY", "92", "mg/dL", "50", "250", "5.10692", 5.10692, "mmol/L", 2.8, 13.899999999999999, "NORMAL", "", 7.0, "WEEK 6", 42.0, "TREATMENT", "2014-02-12T12:56", 42.0]
["CDISCPILOT01", "LB", "01-701-1015", 148.0, "GLUC", "Glucose", "CHEMISTRY", "82", "mg/dL", "50", "250", "4.55182", 4.551819999999999, "mmol/L", 2.8, 13.899999999999999, "NORMAL", "", 8.0, "WEEK 8", 56.0, "TREATMENT", "2014-03-05T12:25", 63.0]
["CDISCPILOT01", "LB", "01-701-1015", 179.0, "GLUC", "Glucose", "CHEMISTRY", "87", "mg/dL", "50", "250", "4.82937", 4.82937, "mmol/L", 2.8, 13.899999999999999, "NORMAL", "", 9.0, "WEEK 12", 84.0, "TREATMENT", "2014-03-26T15:15", 84.0]
["CDISCPILOT01", "LB", "01-701-1015", 213.0, "GLUC", "Glucose", "CHEMISTRY", "86", "mg/dL", "50", "250", "4.77386", 4.77386, "mmol/L", 2.8, 13.899999999999999, "NORMAL", "", 10.0, "WEEK 16", 112.0, "TREATMENT", "2014-05-07T11:21", 126.0]
["CDISCPILOT01", "LB", "01-701-1015", 243.0, "GLUC", "Glucose", "CHEMISTRY", "88", "mg/dL", "50", "250", "4.88488", 4.88488, "mmol/L", 2.8, 13.899999999999999, "NORMAL", "", 11.0, "WEEK 20", 140.0, "TREATMENT", "2014-05-21T10:58", 140.0]
["CDISCPILOT01", "LB", "01-701-1015", 274.0, "GLUC", "Glucose", "CHEMISTRY", "81", "mg/dL", "50", "250", "4.49631", 4.496309999999999, "mmol/L", 2.8, 13.899999999999999, "NORMAL", "", 12.0, "WEEK 24", 168.0, "TREATMENT", "2014-06-18T13:00", 168.0]
["CDISCPILOT01", "LB", "01-701-1015", 308.0, "GLUC", "Glucose", "CHEMISTRY", "92", "mg/dL", "50", "250", "5.10692", 5.10692, "mmol/L", 2.8, 13.899999999999999, "NORMAL", "", 13.0, "WEEK 26", 182.0, "TREATMENT", "2014-07-02T11:45", 182.0]
["CDISCPILOT01", "LB", "01-701-1015", 20.0, "K", "Potassium", "CHEMISTRY", "4.5", "mEq/L", "3.4", "5.4", "4.5", 4.5, "mmol/L", 3.4, 5.3999999999999995, "NORMAL", "Y", 1.0, "SCREENING 1", -7.0, "SCREENING", "2013-12-26T14:45", -7.0]
["CDISCPILOT01", "LB", "01-701-1015", 57.0, "K", "Potassium", "CHEMISTRY", "4.4", "mEq/L", "3.4", "5.4", "4.4", 4.3999999999999995, "mmol/L", 3.4, 5.3999999999999995, "NORMAL", "", 4.0, "WEEK 2", 14.0, "TREATMENT", "2014-01-16T13:17", 15.0]
["CDISCPILOT01", "LB", "01-701-1015", 91.0, "K", "Potassium", "CHEMISTRY", "4.5", "mEq/L", "3.4", "5.4", "4.5", 4.5, "mmol/L", 3.4, 5.3999999999999995, "NORMAL", "", 5.0, "WEEK 4", 28.0, "TREATMENT", "2014-01-30T08:50", 29.0]
["CDISCPILOT01", "LB", "01-701-1015", 121.0, "K", "Potassium", "CHEMISTRY", "4.6", "mEq/L", "3.4", "5.4", "4.6", 4.6, "mmol/L", 3.4, 5.3999999999999995, "NORMAL", "", 7.0, "WEEK 6", 42.0, "TREATMENT", "2014-02-12T12:56", 42.0]
["CDISCPILOT01", "LB", "01-701-1015", 151.0, "K", "Potassium", "CHEMISTRY", "4.1", "mEq/L", "3.4", "5.4", "4.1", 4.1, "mmol/L", 3.4, 5.3999999999999995, "NORMAL", "", 8.0, "WEEK 8", 56.0, "TREATMENT", "2014-03-05T12:25", 63.0]
["CDISCPILOT01", "LB", "01-701-1015", 182.0, "K", "Potassium", "CHEMISTRY", "3.6", "mEq/L", "3.4", "5.4", "3.6", 3.6, "mmol/L", 3.4, 5.3999999999999995, "NORMAL", "", 9.0, "WEEK 12", 84.0, "TREATMENT", "2014-03-26T15:15", 84.0]
["CDISCPILOT01", "LB", "01-701-1015", 216.0, "K", "Potassium", "CHEMISTRY", "4.1", "mEq/L", "3.4", "5.4", "4.1", 4.1, "mmol/L", 3.4, 5.3999999999999995, "NORMAL", "", 10.0, "WEEK 16", 112.0, "TREATMENT", "2014-05-07T11:21", 126.0]
["CDISCPILOT01", "LB", "01-701-1015", 246.0, "K", "Potassium", "CHEMISTRY", "4.3", "mEq/L", "3.4", "5.4", "4.3", 4.3, "mmol/L", 3.4, 5.3999999999999995, "NORMAL", "", 11.0, "WEEK 20", 140.0, "TREATMENT", "2014-05-21T10:58", 140.0]
["CDISCPILOT01", "LB", "01-701-1015", 277.0, "K", "Potassium", "CHEMISTRY", "4.1", "mEq/L", "3.4", "5.4", "4.1", 4.1, "mmol/L", 3.4, 5.3999999999999995, "NORMAL", "", 12.0, "WEEK 24", 168.0, "TREATMENT", "2014-06-18T13:00", 168.0]
["CDISCPILOT01", "LB", "01-701-1015", 311.0, "K", "Potassium", "CHEMISTRY", "4.5", "mEq/L", "3.4", "5.4", "4.5", 4.5, "mmol/L", 3.4, 5.3999999999999995, "NORMAL", "", 13.0, "WEEK 26", 182.0, "TREATMENT", "2014-07-02T11:45", 182.0]
["CDISCPILOT01", "LB", "01-701-1015", 27.0, "SODIUM", "Sodium", "CHEMISTRY", "140", "mEq/L", "135", "145", "140", 140.0, "mmol/L", 135.0, 145.0, "NORMAL", "Y", 1.0, "SCREENING 1", -7.0, "SCREENING", "2013-12-26T14:45", -7.0]
["CDISCPILOT01", "LB", "01-701-1015", 64.0, "SODIUM", "Sodium", "CHEMISTRY", "142", "mEq/L", "135", "145", "142", 142.0, "mmol/L", 135.0, 145.0, "NORMAL", "", 4.0, "WEEK 2", 14.0, "TREATMENT", "2014-01-16T13:17", 15.0]
["CDISCPILOT01", "LB", "01-701-1015", 97.0, "SODIUM", "Sodium", "CHEMISTRY", "140", "mEq/L", "135", "145", "140", 140.0, "mmol/L", 135.0, 145.0, "NORMAL", "", 5.0, "WEEK 4", 28.0, "TREATMENT", "2014-01-30T08:50", 29.0]
["CDISCPILOT01", "LB", "01-701-1015", 127.0, "SODIUM", "Sodium", "CHEMISTRY", "140", "mEq/L", "135", "145", "140", 140.0, "mmol/L", 135.0, 145.0, "NORMAL", "", 7.0, "WEEK 6", 42.0, "TREATMENT", "2014-02-12T12:56", 42.0]
["CDISCPILOT01", "LB", "01-701-1015", 157.0, "SODIUM", "Sodium", "CHEMISTRY", "141", "mEq/L", "135", "145", "141", 141.0, "mmol/L", 135.0, 145.0, "NORMAL", "", 8.0, "WEEK 8", 56.0, "TREATMENT", "2014-03-05T12:25", 63.0]
["CDISCPILOT01", "LB", "01-701-1015", 189.0, "SODIUM", "Sodium", "CHEMISTRY", "139", "mEq/L", "135", "145", "139", 139.0, "mmol/L", 135.0, 145.0, "NORMAL", "", 9.0, "WEEK 12", 84.0, "TREATMENT", "2014-03-26T15:15", 84.0]
["CDISCPILOT01", "LB", "01-701-1015", 222.0, "SODIUM", "Sodium", "CHEMISTRY", "141", "mEq/L", "135", "145", "141", 141.0, "mmol/L", 135.0, 145.0, "NORMAL", "", 10.0, "WEEK 16", 112.0, "TREATMENT", "2014-05-07T11:21", 126.0]
["CDISCPILOT01", "LB", "01-701-1015", 252.0, "SODIUM", "Sodium", "CHEMISTRY", "142", "mEq/L", "135", "145", "142", 142.0, "mmol/L", 135.0, 145.0, "NORMAL", "", 11.0, "WEEK 20", 140.0, "TREATMENT", "2014-05-21T10:58", 140.0]
["CDISCPILOT01", "LB", "01-701-1015", 284.0, "SODIUM", "Sodium", "CHEMISTRY", "140", "mEq/L", "135", "145", "140", 140.0, "mmol/L", 135.0, 145.0, "NORMAL", "", 12.0, "WEEK 24", 168.0, "TREATMENT", "2014-06-18T13:00", 168.0]
["CDISCPILOT01", "LB", "01-701-1015", 317.0, "SODIUM", "Sodium", "CHEMISTRY", "140", "mEq/L", "135", "145", "140", 140.0, "mmol/L", 135.0, 145.0, "NORMAL", "", 13.0, "WEEK 26", 182.0, "TREATMENT", "2014-07-02T11:45", 182.0]
["CDISCPILOT01", "LB", "01-701-1015", 29.0, "PHOS", "Phosphate", "CHEMISTRY", "3.8", "mg/dL", "2.2", "5.1", "1.22702", 1.22702, "mmol/L", 0.71, 1.65, "NORMAL", "Y", 1.0, "SCREENING 1", -7.0, "SCREENING", "2013-12-26T14:45", -7.0]
["CDISCPILOT01", "LB", "01-701-1015", 66.0, "PHOS", "Phosphate", "CHEMISTRY", "3.9", "mg/dL", "2.2", "5.1", "1.25931", 1.25931, "mmol/L", 0.71, 1.65, "NORMAL", "", 4.0, "WEEK 2", 14.0, "TREATMENT", "2014-01-16T13:17", 15.0]
["CDISCPILOT01", "LB", "01-701-1015", 98.0, "PHOS", "Phosphate", "CHEMISTRY", "3.5", "mg/dL", "2.2", "5.1", "1.13015", 1.13015, "mmol/L", 0.71, 1.65, "NORMAL", "", 5.0, "WEEK 4", 28.0, "TREATMENT", "2014-01-30T08:50", 29.0]
["CDISCPILOT01", "LB", "01-701-1015", 128.0, "PHOS", "Phosphate", "CHEMISTRY", "3.8", "mg/dL", "2.2", "5.1", "1.22702", 1.22702, "mmol/L", 0.71, 1.65, "NORMAL", "", 7.0, "WEEK 6", 42.0, "TREATMENT", "2014-02-12T12:56", 42.0]
["CDISCPILOT01", "LB", "01-701-1015", 158.0, "PHOS", "Phosphate", "CHEMISTRY", "3.6", "mg/dL", "2.2", "5.1", "1.16244", 1.16244, "mmol/L", 0.71, 1.65, "NORMAL", "", 8.0, "WEEK 8", 56.0, "TREATMENT", "2014-03-05T12:25", 63.0]
["CDISCPILOT01", "LB", "01-701-1015", 191.0, "PHOS", "Phosphate", "CHEMISTRY", "3.8", "mg/dL", "2.2", "5.1", "1.22702", 1.22702, "mmol/L", 0.71, 1.65, "NORMAL", "", 9.0, "WEEK 12", 84.0, "TREATMENT", "2014-03-26T15:15", 84.0]
["CDISCPILOT01", "LB", "01-701-1015", 223.0, "PHOS", "Phosphate", "CHEMISTRY", "4.0", "mg/dL", "2.2", "5.1", "1.2916", 1.2916, "mmol/L", 0.71, 1.65, "NORMAL", "", 10.0, "WEEK 16", 112.0, "TREATMENT", "2014-05-07T11:21", 126.0]
["CDISCPILOT01", "LB", "01-701-1015", 253.0, "PHOS", "Phosphate", "CHEMISTRY", "3.4", "mg/dL", "2.2", "5.1", "1.09786", 1.09786, "mmol/L", 0.71, 1.65, "NORMAL", "", 11.0, "WEEK 20", 140.0, "TREATMENT", "2014-05-21T10:58", 140.0]
["CDISCPILOT01", "LB", "01-701-1015", 286.0, "PHOS", "Phosphate", "CHEMISTRY", "3.9", "mg/dL", "2.2", "5.1", "1.25931", 1.25931, "mmol/L", 0.71, 1.65, "NORMAL", "", 12.0, "WEEK 24", 168.0, "TREATMENT", "2014-06-18T13:00", 168.0]
["CDISCPILOT01", "LB", "01-701-1015", 318.0, "PHOS", "Phosphate", "CHEMISTRY", "4.2", "mg/dL", "2.2", "5.1", "1.35618", 1.35618, "mmol/L", 0.71, 1.65, "NORMAL", "", 13.0, "WEEK 26", 182.0, "TREATMENT", "2014-07-02T11:45", 182.0]
["CDISCPILOT01", "LB", "01-701-1015", 31.0, "PROT", "Protein", "CHEMISTRY", "6.1", "g/dL", "6", "8", "61", 61.0, "g/L", 60.0, 80.0, "NORMAL", "Y", 1.0, "SCREENING 1", -7.0, "SCREENING", "2013-12-26T14:45", -7.0]
["CDISCPILOT01", "LB", "01-701-1015", 68.0, "PROT", "Protein", "CHEMISTRY", "7.7", "g/dL", "6", "8", "77", 77.0, "g/L", 60.0, 80.0, "NORMAL", "", 4.0, "WEEK 2", 14.0, "TREATMENT", "2014-01-16T13:17", 15.0]
["CDISCPILOT01", "LB", "01-701-1015", 100.0, "PROT", "Protein", "CHEMISTRY", "6.9", "g/dL", "6", "8", "69", 69.0, "g/L", 60.0, 80.0, "NORMAL", "", 5.0, "WEEK 4", 28.0, "TREATMENT", "2014-01-30T08:50", 29.0]
["CDISCPILOT01", "LB", "01-701-1015", 130.0, "PROT", "Protein", "CHEMISTRY", "6.8", "g/dL", "6", "8", "68", 68.0, "g/L", 60.0, 80.0, "NORMAL", "", 7.0, "WEEK 6", 42.0, "TREATMENT", "2014-02-12T12:56", 42.0]
["CDISCPILOT01", "LB", "01-701-1015", 160.0, "PROT", "Protein", "CHEMISTRY", "6.9", "g/dL", "6", "8", "69", 69.0, "g/L", 60.0, 80.0, "NORMAL", "", 8.0, "WEEK 8", 56.0, "TREATMENT", "2014-03-05T12:25", 63.0]
["CDISCPILOT01", "LB", "01-701-1015", 193.0, "PROT", "Protein", "CHEMISTRY", "7.0", "g/dL", "6", "8", "70", 70.0, "g/L", 60.0, 80.0, "NORMAL", "", 9.0, "WEEK 12", 84.0, "TREATMENT", "2014-03-26T15:15", 84.0]
["CDISCPILOT01", "LB", "01-701-1015", 225.0, "PROT", "Protein", "CHEMISTRY", "6.8", "g/dL", "6", "8", "68", 68.0, "g/L", 60.0, 80.0, "NORMAL", "", 10.0, "WEEK 16", 112.0, "TREATMENT", "2014-05-07T11:21", 126.0]
["CDISCPILOT01", "LB", "01-701-1015", 255.0, "PROT", "Protein", "CHEMISTRY", "6.8", "g/dL", "6", "8", "68", 68.0, "g/L", 60.0, 80.0, "NORMAL", "", 11.0, "WEEK 20", 140.0, "TREATMENT", "2014-05-21T10:58", 140.0]
["CDISCPILOT01", "LB", "01-701-1015", 288.0, "PROT", "Protein", "CHEMISTRY", "6.6", "g/dL", "6", "8", "66", 66.0, "g/L", 60.0, 80.0, "NORMAL", "", 12.0, "WEEK 24", 168.0, "TREATMENT", "2014-06-18T13:00", 168.0]
["CDISCPILOT01", "LB", "01-701-1015", 320.0, "PROT", "Protein", "CHEMISTRY", "6.9", "g/dL", "6", "8", "69", 69.0, "g/L", 60.0, 80.0, "NORMAL", "", 13.0, "WEEK 26", 182.0, "TREATMENT", "2014-07-02T11:45", 182.0]
["CDISCPILOT01", "LB", "01-701-1015", 35.0, "URATE", "Urate", "CHEMISTRY", "4.5", "mg/dL", "2.5", "7.5", "267.66", 267.66, "umol/L", 149.0, 446.0, "NORMAL", "Y", 1.0, "SCREENING 1", -7.0, "SCREENING", "2013-12-26T14:45", -7.0]
["CDISCPILOT01", "LB", "01-701-1015", 71.0, "URATE", "Urate", "CHEMISTRY", "4.9", "mg/dL", "2.5", "7.5", "291.452", 291.452, "umol/L", 149.0, 446.0, "NORMAL", "", 4.0, "WEEK 2", 14.0, "TREATMENT", "2014-01-16T13:17", 15.0]
["CDISCPILOT01", "LB", "01-701-1015", 102.0, "URATE", "Urate", "CHEMISTRY", "4.4", "mg/dL", "2.5", "7.5", "261.712", 261.712, "umol/L", 149.0, 446.0, "NORMAL", "", 5.0, "WEEK 4", 28.0, "TREATMENT", "2014-01-30T08:50", 29.0]
["CDISCPILOT01", "LB", "01-701-1015", 132.0, "URATE", "Urate", "CHEMISTRY", "4.6", "mg/dL", "2.5", "7.5", "273.608", 273.608, "umol/L", 149.0, 446.0, "NORMAL", "", 7.0, "WEEK 6", 42.0, "TREATMENT", "2014-02-12T12:56", 42.0]
["CDISCPILOT01", "LB", "01-701-1015", 162.0, "URATE", "Urate", "CHEMISTRY", "4.6", "mg/dL", "2.5", "7.5", "273.608", 273.608, "umol/L", 149.0, 446.0, "NORMAL", "", 8.0, "WEEK 8", 56.0, "TREATMENT", "2014-03-05T12:25", 63.0]
["CDISCPILOT01", "LB", "01-701-1015", 196.0, "URATE", "Urate", "CHEMISTRY", "4.4", "mg/dL", "2.5", "7.5", "261.712", 261.712, "umol/L", 149.0, 446.0, "NORMAL", "", 9.0, "WEEK 12", 84.0, "TREATMENT", "2014-03-26T15:15", 84.0]
["CDISCPILOT01", "LB", "01-701-1015", 227.0, "URATE", "Urate", "CHEMISTRY", "4.3", "mg/dL", "2.5", "7.5", "255.764", 255.76399999999998, "umol/L", 149.0, 446.0, "NORMAL", "", 10.0, "WEEK 16", 112.0, "TREATMENT", "2014-05-07T11:21", 126.0]
["CDISCPILOT01", "LB", "01-701-1015", 257.0, "URATE", "Urate", "CHEMISTRY", "4.7", "mg/dL", "2.5", "7.5", "279.556", 279.556, "umol/L", 149.0, 446.0, "NORMAL", "", 11.0, "WEEK 20", 140.0, "TREATMENT", "2014-05-21T10:58", 140.0]
["CDISCPILOT01", "LB", "01-701-1015", 291.0, "URATE", "Urate", "CHEMISTRY", "5.1", "mg/dL", "2.5", "7.5", "303.348", 303.348, "umol/L", 149.0, 446.0, "NORMAL", "", 12.0, "WEEK 24", 168.0, "TREATMENT", "2014-06-18T13:00", 168.0]
["CDISCPILOT01", "LB", "01-701-1015", 322.0, "URATE", "Urate", "CHEMISTRY", "5.2", "mg/dL", "2.5", "7.5", "309.296", 309.296, "umol/L", 149.0, 446.0, "NORMAL", "", 13.0, "WEEK 26", 182.0, "TREATMENT", "2014-07-02T11:45", 182.0]
["CDISCPILOT01", "LB", "01-701-1023", 1.0, "ALB", "Albumin", "CHEMISTRY", "4.0", "g/dL", "3.3", "4.9", "40", 40.0, "g/L", 33.0, 49.0, "NORMAL", "Y", 1.0, "SCREENING 1", -7.0, "SCREENING", "2012-07-22T12:13", -14.0]
["CDISCPILOT01", "LB", "01-701-1023", 38.0, "ALB", "Albumin", "CHEMISTRY", "3.6", "g/dL", "3.3", "4.9", "36", 36.0, "g/L", 33.0, 49.0, "NORMAL", "", 4.0, "WEEK 2", 14.0, "TREATMENT", "2012-08-27T15:47", 23.0]
["CDISCPILOT01", "LB", "01-701-1023", 73.0, "ALB", "Albumin", "CHEMISTRY", "3.5", "g/dL", "3.3", "4.9", "35", 35.0, "g/L", 33.0, 49.0, "NORMAL", "", 5.0, "WEEK 4", 28.0, "TREATMENT", "2012-09-02T10:15", 29.0]
["CDISCPILOT01", "LB", "01-701-1023", 2.0, "ALP", "Alkaline Phosphatase", "CHEMISTRY", "98", "U/L", "35", "115", "98", 98.0, "U/L", 35.0, 115.0, "NORMAL", "Y", 1.0, "SCREENING 1", -7.0, "SCREENING", "2012-07-22T12:13", -14.0]
["CDISCPILOT01", "LB", "01-701-1023", 39.0, "ALP", "Alkaline Phosphatase", "CHEMISTRY", "90", "U/L", "35", "115", "90", 90.0, "U/L", 35.0, 115.0, "NORMAL", "", 4.0, "WEEK 2", 14.0, "TREATMENT", "2012-08-27T15:47", 23.0]
["CDISCPILOT01", "LB", "01-701-1023", 74.0, "ALP", "Alkaline Phosphatase", "CHEMISTRY", "99", "U/L", "35", "115", "99", 99.0, "U/L", 35.0, 115.0, "NORMAL", "", 5.0, "WEEK 4", 28.0, "TREATMENT", "2012-09-02T10:15", 29.0]
["CDISCPILOT01", "LB", "01-701-1023", 3.0, "ALT", "Alanine Aminotransferase", "CHEMISTRY", "23", "U/L", "6", "43", "23", 23.0, "U/L", 6.0, 43.0, "NORMAL", "Y", 1.0, "SCREENING 1", -7.0, "SCREENING", "2012-07-22T12:13", -14.0]
["CDISCPILOT01", "LB", "01-701-1023", 40.0, "ALT", "Alanine Aminotransferase", "CHEMISTRY", "30", "U/L", "6", "43", "30", 30.0, "U/L", 6.0, 43.0, "NORMAL", "", 4.0, "WEEK 2", 14.0, "TREATMENT", "2012-08-27T15:47", 23.0]
["CDISCPILOT01", "LB", "01-701-1023", 75.0, "ALT", "Alanine Aminotransferase", "CHEMISTRY", "38", "U/L", "6", "43", "38", 38.0, "U/L", 6.0, 43.0, "NORMAL", "", 5.0, "WEEK 4", 28.0, "TREATMENT", "2012-09-02T10:15", 29.0]
["CDISCPILOT01", "LB", "01-701-1023", 4.0, "AST", "Aspartate Aminotransferase", "CHEMISTRY", "21", "U/L", "11", "36", "21", 21.0, "U/L", 11.0, 36.0, "NORMAL", "Y", 1.0, "SCREENING 1", -7.0, "SCREENING", "2012-07-22T12:13", -14.0]
["CDISCPILOT01", "LB", "01-701-1023", 41.0, "AST", "Aspartate Aminotransferase", "CHEMISTRY", "25", "U/L", "11", "36", "25", 25.0, "U/L", 11.0, 36.0, "NORMAL", "", 4.0, "WEEK 2", 14.0, "TREATMENT", "2012-08-27T15:47", 23.0]
["CDISCPILOT01", "LB", "01-701-1023", 76.0, "AST", "Aspartate Aminotransferase", "CHEMISTRY", "30", "U/L", "11", "36", "30", 30.0, "U/L", 11.0, 36.0, "NORMAL", "", 5.0, "WEEK 4", 28.0, "TREATMENT", "2012-09-02T10:15", 29.0]
["CDISCPILOT01", "LB", "01-701-1023", 6.0, "BILI", "Bilirubin", "CHEMISTRY", "0.7", "mg/dL", "0.2", "1.2", "11.97", 11.969999999999999, "umol/L", 3.0, 21.0, "NORMAL", "Y", 1.0, "SCREENING 1", -7.0, "SCREENING", "2012-07-22T12:13", -14.0]
["CDISCPILOT01", "LB", "01-701-1023", 43.0, "BILI", "Bilirubin", "CHEMISTRY", "0.4", "mg/dL", "0.2", "1.2", "6.84", 6.84, "umol/L", 3.0, 21.0, "NORMAL", "", 4.0, "WEEK 2", 14.0, "TREATMENT", "2012-08-27T15:47", 23.0]
["CDISCPILOT01", "LB", "01-701-1023", 78.0, "BILI", "Bilirubin", "CHEMISTRY", "0.5", "mg/dL", "0.2", "1.2", "8.55", 8.549999999999999, "umol/L", 3.0, 21.0, "NORMAL", "", 5.0, "WEEK 4", 28.0, "TREATMENT", "2012-09-02T10:15", 29.0]
["CDISCPILOT01", "LB", "01-701-1023", 7.0, "UREAN", "Urea Nitrogen", "CHEMISTRY", "18", "mg/dL", "4", "24", "6.426", 6.425999999999999, "mmol/L", 1.4, 8.6, "NORMAL", "Y", 1.0, "SCREENING 1", -7.0, "SCREENING", "2012-07-22T12:13", -14.0]
["CDISCPILOT01", "LB", "01-701-1023", 44.0, "UREAN", "Urea Nitrogen", "CHEMISTRY", "21", "mg/dL", "4", "24", "7.497", 7.497, "mmol/L", 1.4, 8.6, "NORMAL", "", 4.0, "WEEK 2", 14.0, "TREATMENT", "2012-08-27T15:47", 23.0]
["CDISCPILOT01", "LB", "01-701-1023", 79.0, "UREAN", "Urea Nitrogen", "CHEMISTRY", "17", "mg/dL", "4", "24", "6.069", 6.069, "mmol/L", 1.4, 8.6, "NORMAL", "", 5.0, "WEEK 4", 28.0, "TREATMENT", "2012-09-02T10:15", 29.0]
["CDISCPILOT01", "LB", "01-701-1023", 8.0, "CA", "Calcium", "CHEMISTRY", "9.9", "mg/dL", "8.4", "10.3", "2.47005", 2.47005, "mmol/L", 2.1, 2.57, "NORMAL", "Y", 1.0, "SCREENING 1", -7.0, "SCREENING", "2012-07-22T12:13", -14.0]
["CDISCPILOT01", "LB", "01-701-1023", 45.0, "CA", "Calcium", "CHEMISTRY", "9.4", "mg/dL", "8.4", "10.3", "2.3453", 2.3453, "mmol/L", 2.1, 2.57, "NORMAL", "", 4.0, "WEEK 2", 14.0, "TREATMENT", "2012-08-27T15:47", 23.0]
["CDISCPILOT01", "LB", "01-701-1023", 80.0, "CA", "Calcium", "CHEMISTRY", "9.5", "mg/dL", "8.4", "10.3", "2.37025", 2.37025, "mmol/L", 2.1, 2.57, "NORMAL", "", 5.0, "WEEK 4", 28.0, "TREATMENT", "2012-09-02T10:15", 29.0]
["CDISCPILOT01", "LB", "01-701-1023", 9.0, "CHOL", "Cholesterol", "CHEMISTRY", "262", "mg/dL", "149", "286", "6.77532", 6.77532, "mmol/L", 3.85, 7.3999999999999995, "NORMAL", "Y", 1.0, "SCREENING 1", -7.0, "SCREENING", "2012-07-22T12:13", -14.0]
["CDISCPILOT01", "LB", "01-701-1023", 46.0, "CHOL", "Cholesterol", "CHEMISTRY", "237", "mg/dL", "149", "286", "6.12882", 6.128819999999999, "mmol/L", 3.85, 7.3999999999999995, "NORMAL", "", 4.0, "WEEK 2", 14.0, "TREATMENT", "2012-08-27T15:47", 23.0]
["CDISCPILOT01", "LB", "01-701-1023", 81.0, "CHOL", "Cholesterol", "CHEMISTRY", "235", "mg/dL", "149", "286", "6.0771", 6.0771, "mmol/L", 3.85, 7.3999999999999995, "NORMAL", "", 5.0, "WEEK 4", 28.0, "TREATMENT", "2012-09-02T10:15", 29.0]
["CDISCPILOT01", "LB", "01-701-1023", 10.0, "CK", "Creatine Kinase", "CHEMISTRY", "85", "U/L", "22", "198", "85", 85.0, "U/L", 22.0, 198.0, "NORMAL", "Y", 1.0, "SCREENING 1", -7.0, "SCREENING", "2012-07-22T12:13", -14.0]
["CDISCPILOT01", "LB", "01-701-1023", 47.0, "CK", "Creatine Kinase", "CHEMISTRY", "77", "U/L", "22", "198", "77", 77.0, "U/L", 22.0, 198.0, "NORMAL", "", 4.0, "WEEK 2", 14.0, "TREATMENT", "2012-08-27T15:47", 23.0]
["CDISCPILOT01", "LB", "01-701-1023", 82.0, "CK", "Creatine Kinase", "CHEMISTRY", "76", "U/L", "22", "198", "76", 76.0, "U/L", 22.0, 198.0, "NORMAL", "", 5.0, "WEEK 4", 28.0, "TREATMENT", "2012-09-02T10:15", 29.0]
["CDISCPILOT01", "LB", "01-701-1023", 11.0, "CL", "Chloride", "CHEMISTRY", "106", "mEq/L", "94", "112", "106", 106.0, "mmol/L", 94.0, 112.0, "NORMAL", "Y", 1.0, "SCREENING 1", -7.0, "SCREENING", "2012-07-22T12:13", -14.0]
["CDISCPILOT01", "LB", "01-701-1023", 48.0, "CL", "Chloride", "CHEMISTRY", "108", "mEq/L", "94", "112", "108", 108.0, "mmol/L", 94.0, 112.0, "NORMAL", "", 4.0, "WEEK 2", 14.0, "TREATMENT", "2012-08-27T15:47", 23.0]
["CDISCPILOT01", "LB", "01-701-1023", 83.0, "CL", "Chloride", "CHEMISTRY", "106", "mEq/L", "94", "112", "106", 106.0, "mmol/L", 94.0, 112.0, "NORMAL", "", 5.0, "WEEK 4", 28.0, "TREATMENT", "2012-09-02T10:15", 29.0]
["CDISCPILOT01", "LB", "01-701-1023", 13.0, "CREAT", "Creatinine", "CHEMISTRY", "1.4", "mg/dL", "0.8", "1.6", "123.76", 123.75999999999999, "umol/L", 71.0, 141.0, "NORMAL", "Y", 1.0, "SCREENING 1", -7.0, "SCREENING", "2012-07-22T12:13", -14.0]
["CDISCPILOT01", "LB", "01-701-1023", 50.0, "CREAT", "Creatinine", "CHEMISTRY", "1.5", "mg/dL", "0.8", "1.6", "132.6", 132.6, "umol/L", 71.0, 141.0, "NORMAL", "", 4.0, "WEEK 2", 14.0, "TREATMENT", "2012-08-27T15:47", 23.0]
["CDISCPILOT01", "LB", "01-701-1023", 85.0, "CREAT", "Creatinine", "CHEMISTRY", "1.3", "mg/dL", "0.8", "1.6", "114.92", 114.92, "umol/L", 71.0, 141.0, "NORMAL", "", 5.0, "WEEK 4", 28.0, "TREATMENT", "2012-09-02T10:15", 29.0]
["CDISCPILOT01", "LB", "01-701-1023", 15.0, "GGT", "Gamma Glutamyl Transferase", "CHEMISTRY", "18", "U/L", "10", "50", "18", 18.0, "U/L", 10.0, 50.0, "NORMAL", "Y", 1.0, "SCREENING 1", -7.0, "SCREENING", "2012-07-22T12:13", -14.0]
["CDISCPILOT01", "LB", "01-701-1023", 52.0, "GGT", "Gamma Glutamyl Transferase", "CHEMISTRY", "22", "U/L", "10", "50", "22", 22.0, "U/L", 10.0, 50.0, "NORMAL", "", 4.0, "WEEK 2", 14.0, "TREATMENT", "2012-08-27T15:47", 23.0]
["CDISCPILOT01", "LB", "01-701-1023", 87.0, "GGT", "Gamma Glutamyl Transferase", "CHEMISTRY", "22", "U/L", "10", "50", "22", 22.0, "U/L", 10.0, 50.0, "NORMAL", "", 5.0, "WEEK 4", 28.0, "TREATMENT", "2012-09-02T10:15", 29.0]
["CDISCPILOT01", "LB", "01-701-1023", 16.0, "GLUC", "Glucose", "CHEMISTRY", "96", "mg/dL", "50", "250", "5.32896", 5.3289599999999995, "mmol/L", 2.8, 13.899999999999999, "NORMAL", "Y", 1.0, "SCREENING 1", -7.0, "SCREENING", "2012-07-22T12:13", -14.0]
["CDISCPILOT01", "LB", "01-701-1023", 53.0, "GLUC", "Glucose", "CHEMISTRY", "104", "mg/dL", "50", "250", "5.77304", 5.77304, "mmol/L", 2.8, 13.899999999999999, "NORMAL", "", 4.0, "WEEK 2", 14.0, "TREATMENT", "2012-08-27T15:47", 23.0]
["CDISCPILOT01", "LB", "01-701-1023", 88.0, "GLUC", "Glucose", "CHEMISTRY", "98", "mg/dL", "50", "250", "5.43998", 5.439979999999999, "mmol/L", 2.8, 13.899999999999999, "NORMAL", "", 5.0, "WEEK 4", 28.0, "TREATMENT", "2012-09-02T10:15", 29.0]
["CDISCPILOT01", "LB", "01-701-1023", 19.0, "K", "Potassium", "CHEMISTRY", "4.9", "mEq/L", "3.4", "5.4", "4.9", 4.8999999999999995, "mmol/L", 3.4, 5.3999999999999995, "NORMAL", "Y", 1.0, "SCREENING 1", -7.0, "SCREENING", "2012-07-22T12:13", -14.0]
["CDISCPILOT01", "LB", "01-701-1023", 56.0, "K", "Potassium", "CHEMISTRY", "4.8", "mEq/L", "3.4", "5.4", "4.8", 4.8, "mmol/L", 3.4, 5.3999999999999995, "NORMAL", "", 4.0, "WEEK 2", 14.0, "TREATMENT", "2012-08-27T15:47", 23.0]
["CDISCPILOT01", "LB", "01-701-1023", 91.0, "K", "Potassium", "CHEMISTRY", "4.7", "mEq/L", "3.4", "5.4", "4.7", 4.699999999999999, "mmol/L", 3.4, 5.3999999999999995, "NORMAL", "", 5.0, "WEEK 4", 28.0, "TREATMENT", "2012-09-02T10:15", 29.0]
["CDISCPILOT01", "LB", "01-701-1023", 26.0, "SODIUM", "Sodium", "CHEMISTRY", "142", "mEq/L", "135", "145", "142", 142.0, "mmol/L", 135.0, 145.0, "NORMAL", "Y", 1.0, "SCREENING 1", -7.0, "SCREENING", "2012-07-22T12:13", -14.0]
["CDISCPILOT01", "LB", "01-701-1023", 63.0, "SODIUM", "Sodium", "CHEMISTRY", "140", "mEq/L", "135", "145", "140", 140.0, "mmol/L", 135.0, 145.0, "NORMAL", "", 4.0, "WEEK 2", 14.0, "TREATMENT", "2012-08-27T15:47", 23.0]
["CDISCPILOT01", "LB", "01-701-1023", 98.0, "SODIUM", "Sodium", "CHEMISTRY", "141", "mEq/L", "135", "145", "141", 141.0, "mmol/L", 135.0, 145.0, "NORMAL", "", 5.0, "WEEK 4", 28.0, "TREATMENT", "2012-09-02T10:15", 29.0]
["CDISCPILOT01", "LB", "01-701-1023", 28.0, "PHOS", "Phosphate", "CHEMISTRY", "4.0", "mg/dL", "2.2", "5.1", "1.2916", 1.2916, "mmol/L", 0.71, 1.65, "NORMAL", "Y", 1.0, "SCREENING 1", -7.0, "SCREENING", "2012-07-22T12:13", -14.0]
["CDISCPILOT01", "LB", "01-701-1023", 65.0, "PHOS", "Phosphate", "CHEMISTRY", "3.7", "mg/dL", "2.2", "5.1", "1.19473", 1.19473, "mmol/L", 0.71, 1.65, "NORMAL", "", 4.0, "WEEK 2", 14.0, "TREATMENT", "2012-08-27T15:47", 23.0]
["CDISCPILOT01", "LB", "01-701-1023", 100.0, "PHOS", "Phosphate", "CHEMISTRY", "3.4", "mg/dL", "2.2", "5.1", "1.09786", 1.09786, "mmol/L", 0.71, 1.65, "NORMAL", "", 5.0, "WEEK 4", 28.0, "TREATMENT", "2012-09-02T10:15", 29.0]
["CDISCPILOT01", "LB", "01-701-1023", 30.0, "PROT", "Protein", "CHEMISTRY", "7.4", "g/dL", "6", "8", "74", 74.0, "g/L", 60.0, 80.0, "NORMAL", "Y", 1.0, "SCREENING 1", -7.0, "SCREENING", "2012-07-22T12:13", -14.0]
["CDISCPILOT01", "LB", "01-701-1023", 67.0, "PROT", "Protein", "CHEMISTRY", "6.9", "g/dL", "6", "8", "69", 69.0, "g/L", 60.0, 80.0, "NORMAL", "", 4.0, "WEEK 2", 14.0, "TREATMENT", "2012-08-27T15:47", 23.0]
["CDISCPILOT01", "LB", "01-701-1023", 102.0, "PROT", "Protein", "CHEMISTRY", "7.1", "g/dL", "6", "8", "71", 71.0, "g/L", 60.0, 80.0, "NORMAL", "", 5.0, "WEEK 4", 28.0, "TREATMENT", "2012-09-02T10:15", 29.0]
["CDISCPILOT01", "LB", "01-701-1023", 34.0, "URATE", "Urate", "CHEMISTRY", "6.7", "mg/dL", "2.5", "7.5", "398.516", 398.516, "umol/L", 149.0, 446.0, "NORMAL", "Y", 1.0, "SCREENING 1", -7.0, "SCREENING", "2012-07-22T12:13", -14.0]
["CDISCPILOT01", "LB", "01-701-1023", 70.0, "URATE", "Urate", "CHEMISTRY", "6.2", "mg/dL", "2.5", "7.5", "368.776", 368.776, "umol/L", 149.0, 446.0, "NORMAL", "", 4.0, "WEEK 2", 14.0, "TREATMENT", "2012-08-27T15:47", 23.0]
["CDISCPILOT01", "LB", "01-701-1023", 105.0, "URATE", "Urate", "CHEMISTRY", "6.1", "mg/dL", "2.5", "7.5", "362.828", 362.828, "umol/L", 149.0, 446.0, "NORMAL", "", 5.0, "WEEK 4", 28.0, "TREATMENT", "2012-09-02T10:15", 29.0]
["CDISCPILOT01", "LB", "01-701-1028", 1.0, "ALB", "Albumin", "CHEMISTRY", "4.4", "g/dL", "3.5", "4.6", "44", 44.0, "g/L", 35.0, 46.0, "NORMAL", "Y", 1.0, "SCREENING 1", -7.0, "SCREENING", "2013-07-11T12:02", -8.0]
["CDISCPILOT01", "LB", "01-701-1028", 38.0, "ALB", "Albumin", "CHEMISTRY", "4.2", "g/dL", "3.5", "4.6", "42", 42.0, "g/L", 35.0, 46.0, "NORMAL", "", 4.0, "WEEK 2", 14.0, "TREATMENT", "2013-08-01T09:15", 14.0]
["CDISCPILOT01", "LB", "01-701-1028", 73.0, "ALB", "Albumin", "CHEMISTRY", "4.1", "g/dL", "3.5", "4.6", "41", 41.0, "g/L", 35.0, 46.0, "NORMAL", "", 5.0, "WEEK 4", 28.0, "TREATMENT", "2013-08-14T13:24", 27.0]
["CDISCPILOT01", "LB", "01-701-1028", 103.0, "ALB", "Albumin", "CHEMISTRY", "4.0", "g/dL", "3.5", "4.6", "40", 40.0, "g/L", 35.0, 46.0, "NORMAL", "", 7.0, "WEEK 6", 42.0, "TREATMENT", "2013-08-29T11:54", 42.0]
["CDISCPILOT01", "LB", "01-701-1028", 133.0, "ALB", "Albumin", "CHEMISTRY", "3.9", "g/dL", "3.5", "4.6", "39", 39.0, "g/L", 35.0, 46.0, "NORMAL", "", 8.0, "WEEK 8", 56.0, "TREATMENT", "2013-09-10T09:13", 54.0]
["CDISCPILOT01", "LB", "01-701-1028", 163.0, "ALB", "Albumin", "CHEMISTRY", "4.4", "g/dL", "3.5", "4.6", "44", 44.0, "g/L", 35.0, 46.0, "NORMAL", "", 9.0, "WEEK 12", 84.0, "TREATMENT", "2013-10-09T08:42", 83.0]
["CDISCPILOT01", "LB", "01-701-1028", 198.0, "ALB", "Albumin", "CHEMISTRY", "3.7", "g/dL", "3.5", "4.6", "37", 37.0, "g/L", 35.0, 46.0, "NORMAL", "", 10.0, "WEEK 16", 112.0, "TREATMENT", "2013-11-06T10:08", 111.0]
["CDISCPILOT01", "LB", "01-701-1028", 230.0, "ALB", "Albumin", "CHEMISTRY", "4.0", "g/dL", "3.5", "4.6", "40", 40.0, "g/L", 35.0, 46.0, "NORMAL", "", 11.0, "WEEK 20", 140.0, "TREATMENT", "2013-12-04T15:10", 139.0]
["CDISCPILOT01", "LB", "01-701-1028", 261.0, "ALB", "Albumin", "CHEMISTRY", "4.2", "g/dL", "3.5", "4.6", "42", 42.0, "g/L", 35.0, 46.0, "NORMAL", "", 12.0, "WEEK 24", 168.0, "TREATMENT", "2014-01-06T10:00", 172.0]
["CDISCPILOT01", "LB", "01-701-1028", 298.0, "ALB", "Albumin", "CHEMISTRY", "4.5", "g/dL", "3.5", "4.6", "45", 45.0, "g/L", 35.0, 46.0, "NORMAL", "", 13.0, "WEEK 26", 182.0, "TREATMENT", "2014-01-14T11:10", 180.0]
["CDISCPILOT01", "LB", "01-701-1028", 2.0, "ALP", "Alkaline Phosphatase", "CHEMISTRY", "44", "U/L", "35", "115", "44", 44.0, "U/L", 35.0, 115.0, "NORMAL", "Y", 1.0, "SCREENING 1", -7.0, "SCREENING", "2013-07-11T12:02", -8.0]
["CDISCPILOT01", "LB", "01-701-1028", 39.0, "ALP", "Alkaline Phosphatase", "CHEMISTRY", "46", "U/L", "35", "115", "46", 46.0, "U/L", 35.0, 115.0, "NORMAL", "", 4.0, "WEEK 2", 14.0, "TREATMENT", "2013-08-01T09:15", 14.0]
["CDISCPILOT01", "LB", "01-701-1028", 74.0, "ALP", "Alkaline Phosphatase", "CHEMISTRY", "38", "U/L", "35", "115", "38", 38.0, "U/L", 35.0, 115.0, "NORMAL", "", 5.0, "WEEK 4", 28.0, "TREATMENT", "2013-08-14T13:24", 27.0]
["CDISCPILOT01", "LB", "01-701-1028", 104.0, "ALP", "Alkaline Phosphatase", "CHEMISTRY", "40", "U/L", "35", "115", "40", 40.0, "U/L", 35.0, 115.0, "NORMAL", "", 7.0, "WEEK 6", 42.0, "TREATMENT", "2013-08-29T11:54", 42.0]
["CDISCPILOT01", "LB", "01-701-1028", 134.0, "ALP", "Alkaline Phosphatase", "CHEMISTRY", "40", "U/L", "35", "115", "40", 40.0, "U/L", 35.0, 115.0, "NORMAL", "", 8.0, "WEEK 8", 56.0, "TREATMENT", "2013-09-10T09:13", 54.0]
["CDISCPILOT01", "LB", "01-701-1028", 164.0, "ALP", "Alkaline Phosphatase", "CHEMISTRY", "41", "U/L", "35", "115", "41", 41.0, "U/L", 35.0, 115.0, "NORMAL", "", 9.0, "WEEK 12", 84.0, "TREATMENT", "2013-10-09T08:42", 83.0]
["CDISCPILOT01", "LB", "01-701-1028", 199.0, "ALP", "Alkaline Phosphatase", "CHEMISTRY", "36", "U/L", "35", "115", "36", 36.0, "U/L", 35.0, 115.0, "NORMAL", "", 10.0, "WEEK 16", 112.0, "TREATMENT", "2013-11-06T10:08", 111.0]
["CDISCPILOT01", "LB", "01-701-1028", 231.0, "ALP", "Alkaline Phosphatase", "CHEMISTRY", "43", "U/L", "35", "115", "43", 43.0, "U/L", 35.0, 115.0, "NORMAL", "", 11.0, "WEEK 20", 140.0, "TREATMENT", "2013-12-04T15:10", 139.0]
["CDISCPILOT01", "LB", "01-701-1028", 262.0, "ALP", "Alkaline Phosphatase", "CHEMISTRY", "47", "U/L", "35", "115", "47", 47.0, "U/L", 35.0, 115.0, "NORMAL", "", 12.0, "WEEK 24", 168.0, "TREATMENT", "2014-01-06T10:00", 172.0]
["CDISCPILOT01", "LB", "01-701-1028", 299.0, "ALP", "Alkaline Phosphatase", "CHEMISTRY", "40", "U/L", "35", "115", "40", 40.0, "U/L", 35.0, 115.0, "NORMAL", "", 13.0, "WEEK 26", 182.0, "TREATMENT", "2014-01-14T11:10", 180.0]
["CDISCPILOT01", "LB", "01-701-1028", 3.0, "ALT", "Alanine Aminotransferase", "CHEMISTRY", "26", "U/L", "6", "35", "26", 26.0, "U/L", 6.0, 35.0, "NORMAL", "Y", 1.0, "SCREENING 1", -7.0, "SCREENING", "2013-07-11T12:02", -8.0]
["CDISCPILOT01", "LB", "01-701-1028", 40.0, "ALT", "Alanine Aminotransferase", "CHEMISTRY", "30", "U/L", "6", "35", "30", 30.0, "U/L", 6.0, 35.0, "NORMAL", "", 4.0, "WEEK 2", 14.0, "TREATMENT", "2013-08-01T09:15", 14.0]
["CDISCPILOT01", "LB", "01-701-1028", 75.0, "ALT", "Alanine Aminotransferase", "CHEMISTRY", "29", "U/L", "6", "35", "29", 29.0, "U/L", 6.0, 35.0, "NORMAL", "", 5.0, "WEEK 4", 28.0, "TREATMENT", "2013-08-14T13:24", 27.0]
["CDISCPILOT01", "LB", "01-701-1028", 105.0, "ALT", "Alanine Aminotransferase", "CHEMISTRY", "32", "U/L", "6", "35", "32", 32.0, "U/L", 6.0, 35.0, "NORMAL", "", 7.0, "WEEK 6", 42.0, "TREATMENT", "2013-08-29T11:54", 42.0]
["CDISCPILOT01", "LB", "01-701-1028", 135.0, "ALT", "Alanine Aminotransferase", "CHEMISTRY", "33", "U/L", "6", "35", "33", 33.0, "U/L", 6.0, 35.0, "NORMAL", "", 8.0, "WEEK 8", 56.0, "TREATMENT", "2013-09-10T09:13", 54.0]
["CDISCPILOT01", "LB", "01-701-1028", 165.0, "ALT", "Alanine Aminotransferase", "CHEMISTRY", "29", "U/L", "6", "35", "29", 29.0, "U/L", 6.0, 35.0, "NORMAL", "", 9.0, "WEEK 12", 84.0, "TREATMENT", "2013-10-09T08:42", 83.0]
["CDISCPILOT01", "LB", "01-701-1028", 200.0, "ALT", "Alanine Aminotransferase", "CHEMISTRY", "24", "U/L", "6", "35", "24", 24.0, "U/L", 6.0, 35.0, "NORMAL", "", 10.0, "WEEK 16", 112.0, "TREATMENT", "2013-11-06T10:08", 111.0]
["CDISCPILOT01", "LB", "01-701-1028", 232.0, "ALT", "Alanine Aminotransferase", "CHEMISTRY", "22", "U/L", "6", "35", "22", 22.0, "U/L", 6.0, 35.0, "NORMAL", "", 11.0, "WEEK 20", 140.0, "TREATMENT", "2013-12-04T15:10", 139.0]
["CDISCPILOT01", "LB", "01-701-1028", 263.0, "ALT", "Alanine Aminotransferase", "CHEMISTRY", "24", "U/L", "6", "35", "24", 24.0, "U/L", 6.0, 35.0, "NORMAL", "", 12.0, "WEEK 24", 168.0, "TREATMENT", "2014-01-06T10:00", 172.0]
["CDISCPILOT01", "LB", "01-701-1028", 300.0, "ALT", "Alanine Aminotransferase", "CHEMISTRY", "26", "U/L", "6", "35", "26", 26.0, "U/L", 6.0, 35.0, "NORMAL", "", 13.0, "WEEK 26", 182.0, "TREATMENT", "2014-01-14T11:10", 180.0]
["CDISCPILOT01", "LB", "01-701-1028", 4.0, "AST", "Aspartate Aminotransferase", "CHEMISTRY", "24", "U/L", "11", "36", "24", 24.0, "U/L", 11.0, 36.0, "NORMAL", "Y", 1.0, "SCREENING 1", -7.0, "SCREENING", "2013-07-11T12:02", -8.0]
["CDISCPILOT01", "LB", "01-701-1028", 41.0, "AST", "Aspartate Aminotransferase", "CHEMISTRY", "23", "U/L", "11", "36", "23", 23.0, "U/L", 11.0, 36.0, "NORMAL", "", 4.0, "WEEK 2", 14.0, "TREATMENT", "2013-08-01T09:15", 14.0]
["CDISCPILOT01", "LB", "01-701-1028", 76.0, "AST", "Aspartate Aminotransferase", "CHEMISTRY", "24", "U/L", "11", "36", "24", 24.0, "U/L", 11.0, 36.0, "NORMAL", "", 5.0, "WEEK 4", 28.0, "TREATMENT", "2013-08-14T13:24", 27.0]
["CDISCPILOT01", "LB", "01-701-1028", 106.0, "AST", "Aspartate Aminotransferase", "CHEMISTRY", "26", "U/L", "11", "36", "26", 26.0, "U/L", 11.0, 36.0, "NORMAL", "", 7.0, "WEEK 6", 42.0, "TREATMENT", "2013-08-29T11:54", 42.0]
["CDISCPILOT01", "LB", "01-701-1028", 136.0, "AST", "Aspartate Aminotransferase", "CHEMISTRY", "28", "U/L", "11", "36", "28", 28.0, "U/L", 11.0, 36.0, "NORMAL", "", 8.0, "WEEK 8", 56.0, "TREATMENT", "2013-09-10T09:13", 54.0]
["CDISCPILOT01", "LB", "01-701-1028", 166.0, "AST", "Aspartate Aminotransferase", "CHEMISTRY", "28", "U/L", "11", "36", "28", 28.0, "U/L", 11.0, 36.0, "NORMAL", "", 9.0, "WEEK 12", 84.0, "TREATMENT", "2013-10-09T08:42", 83.0]
["CDISCPILOT01", "LB", "01-701-1028", 202.0, "AST", "Aspartate Aminotransferase", "CHEMISTRY", "18", "U/L", "11", "36", "18", 18.0, "U/L", 11.0, 36.0, "NORMAL", "", 10.0, "WEEK 16", 112.0, "TREATMENT", "2013-11-06T10:08", 111.0]
["CDISCPILOT01", "LB", "01-701-1028", 234.0, "AST", "Aspartate Aminotransferase", "CHEMISTRY", "21", "U/L", "11", "36", "21", 21.0, "U/L", 11.0, 36.0, "NORMAL", "", 11.0, "WEEK 20", 140.0, "TREATMENT", "2013-12-04T15:10", 139.0]
["CDISCPILOT01", "LB", "01-701-1028", 264.0, "AST", "Aspartate Aminotransferase", "CHEMISTRY", "23", "U/L", "11", "36", "23", 23.0, "U/L", 11.0, 36.0, "NORMAL", "", 12.0, "WEEK 24", 168.0, "TREATMENT", "2014-01-06T10:00", 172.0]
["CDISCPILOT01", "LB", "01-701-1028", 301.0, "AST", "Aspartate Aminotransferase", "CHEMISTRY", "24", "U/L", "11", "36", "24", 24.0, "U/L", 11.0, 36.0, "NORMAL", "", 13.0, "WEEK 26", 182.0, "TREATMENT", "2014-01-14T11:10", 180.0]
["CDISCPILOT01", "LB", "01-701-1028", 6.0, "BILI", "Bilirubin", "CHEMISTRY", "1.1", "mg/dL", "0.2", "1.2", "18.81", 18.81, "umol/L", 3.0, 21.0, "NORMAL", "Y", 1.0, "SCREENING 1", -7.0, "SCREENING", "2013-07-11T12:02", -8.0]
["CDISCPILOT01", "LB", "01-701-1028", 43.0, "BILI", "Bilirubin", "CHEMISTRY", "0.7", "mg/dL", "0.2", "1.2", "11.97", 11.969999999999999, "umol/L", 3.0, 21.0, "NORMAL", "", 4.0, "WEEK 2", 14.0, "TREATMENT", "2013-08-01T09:15", 14.0]
["CDISCPILOT01", "LB", "01-701-1028", 78.0, "BILI", "Bilirubin", "CHEMISTRY", "0.8", "mg/dL", "0.2", "1.2", "13.68", 13.68, "umol/L", 3.0, 21.0, "NORMAL", "", 5.0, "WEEK 4", 28.0, "TREATMENT", "2013-08-14T13:24", 27.0]
["CDISCPILOT01", "LB", "01-701-1028", 108.0, "BILI", "Bilirubin", "CHEMISTRY", "0.7", "mg/dL", "0.2", "1.2", "11.97", 11.969999999999999, "umol/L", 3.0, 21.0, "NORMAL", "", 7.0, "WEEK 6", 42.0, "TREATMENT", "2013-08-29T11:54", 42.0]
["CDISCPILOT01", "LB", "01-701-1028", 138.0, "BILI", "Bilirubin", "CHEMISTRY", "0.8", "mg/dL", "0.2", "1.2", "13.68", 13.68, "umol/L", 3.0, 21.0, "NORMAL", "", 8.0, "WEEK 8", 56.0, "TREATMENT", "2013-09-10T09:13", 54.0]
["CDISCPILOT01", "LB", "01-701-1028", 168.0, "BILI", "Bilirubin", "CHEMISTRY", "0.8", "mg/dL", "0.2", "1.2", "13.68", 13.68, "umol/L", 3.0, 21.0, "NORMAL", "", 9.0, "WEEK 12", 84.0, "TREATMENT", "2013-10-09T08:42", 83.0]
["CDISCPILOT01", "LB", "01-701-1028", 204.0, "BILI", "Bilirubin", "CHEMISTRY", "0.7", "mg/dL", "0.2", "1.2", "11.97", 11.969999999999999, "umol/L", 3.0, 21.0, "NORMAL", "", 10.0, "WEEK 16", 112.0, "TREATMENT", "2013-11-06T10:08", 111.0]
["CDISCPILOT01", "LB", "01-701-1028", 236.0, "BILI", "Bilirubin", "CHEMISTRY", "0.8", "mg/dL", "0.2", "1.2", "13.68", 13.68, "umol/L", 3.0, 21.0, "NORMAL", "", 11.0, "WEEK 20", 140.0, "TREATMENT", "2013-12-04T15:10", 139.0]
["CDISCPILOT01", "LB", "01-701-1028", 266.0, "BILI", "Bilirubin", "CHEMISTRY", "0.9", "mg/dL", "0.2", "1.2", "15.39", 15.389999999999999, "umol/L", 3.0, 21.0, "NORMAL", "", 12.0, "WEEK 24", 168.0, "TREATMENT", "2014-01-06T10:00", 172.0]
["CDISCPILOT01", "LB", "01-701-1028", 303.0, "BILI", "Bilirubin", "CHEMISTRY", "0.8", "mg/dL", "0.2", "1.2", "13.68", 13.68, "umol/L", 3.0, 21.0, "NORMAL", "", 13.0, "WEEK 26", 182.0, "TREATMENT", "2014-01-14T11:10", 180.0]
["CDISCPILOT01", "LB", "01-701-1028", 7.0, "UREAN", "Urea Nitrogen", "CHEMISTRY", "12", "mg/dL", "4", "24", "4.284", 4.284, "mmol/L", 1.4, 8.6, "NORMAL", "Y", 1.0, "SCREENING 1", -7.0, "SCREENING", "2013-07-11T12:02", -8.0]
["CDISCPILOT01", "LB", "01-701-1028", 44.0, "UREAN", "Urea Nitrogen", "CHEMISTRY", "16", "mg/dL", "4", "24", "5.712", 5.712, "mmol/L", 1.4, 8.6, "NORMAL", "", 4.0, "WEEK 2", 14.0, "TREATMENT", "2013-08-01T09:15", 14.0]
["CDISCPILOT01", "LB", "01-701-1028", 79.0, "UREAN", "Urea Nitrogen", "CHEMISTRY", "18", "mg/dL", "4", "24", "6.426", 6.425999999999999, "mmol/L", 1.4, 8.6, "NORMAL", "", 5.0, "WEEK 4", 28.0, "TREATMENT", "2013-08-14T13:24", 27.0]
["CDISCPILOT01", "LB", "01-701-1028", 109.0, "UREAN", "Urea Nitrogen", "CHEMISTRY", "15", "mg/dL", "4", "24", "5.355", 5.3549999999999995, "mmol/L", 1.4, 8.6, "NORMAL", "", 7.0, "WEEK 6", 42.0, "TREATMENT", "2013-08-29T11:54", 42.0]
["CDISCPILOT01", "LB", "01-701-1028", 139.0, "UREAN", "Urea Nitrogen", "CHEMISTRY", "18", "mg/dL", "4", "24", "6.426", 6.425999999999999, "mmol/L", 1.4, 8.6, "NORMAL", "", 8.0, "WEEK 8", 56.0, "TREATMENT", "2013-09-10T09:13", 54.0]
["CDISCPILOT01", "LB", "01-701-1028", 169.0, "UREAN", "Urea Nitrogen", "CHEMISTRY", "17", "mg/dL", "4", "24", "6.069", 6.069, "mmol/L", 1.4, 8.6, "NORMAL", "", 9.0, "WEEK 12", 84.0, "TREATMENT", "2013-10-09T08:42", 83.0]
["CDISCPILOT01", "LB", "01-701-1028", 205.0, "UREAN", "Urea Nitrogen", "CHEMISTRY", "15", "mg/dL", "4", "24", "5.355", 5.3549999999999995, "mmol/L", 1.4, 8.6, "NORMAL", "", 10.0, "WEEK 16", 112.0, "TREATMENT", "2013-11-06T10:08", 111.0]
["CDISCPILOT01", "LB", "01-701-1028", 237.0, "UREAN", "Urea Nitrogen", "CHEMISTRY", "15", "mg/dL", "4", "24", "5.355", 5.3549999999999995, "mmol/L", 1.4, 8.6, "NORMAL", "", 11.0, "WEEK 20", 140.0, "TREATMENT", "2013-12-04T15:10", 139.0]
["CDISCPILOT01", "LB", "01-701-1028", 267.0, "UREAN", "Urea Nitrogen", "CHEMISTRY", "13", "mg/dL", "4", "24", "4.641", 4.641, "mmol/L", 1.4, 8.6, "NORMAL", "", 12.0, "WEEK 24", 168.0, "TREATMENT", "2014-01-06T10:00", 172.0]
["CDISCPILOT01", "LB", "01-701-1028", 304.0, "UREAN", "Urea Nitrogen", "CHEMISTRY", "17", "mg/dL", "4", "24", "6.069", 6.069, "mmol/L", 1.4, 8.6, "NORMAL", "", 13.0, "WEEK 26", 182.0, "TREATMENT", "2014-01-14T11:10", 180.0]
["CDISCPILOT01", "LB", "01-701-1028", 8.0, "CA", "Calcium", "CHEMISTRY", "9.2", "mg/dL", "8.4", "10.3", "2.2954", 2.2954, "mmol/L", 2.1, 2.57, "NORMAL", "Y", 1.0, "SCREENING 1", -7.0, "SCREENING", "2013-07-11T12:02", -8.0]
["CDISCPILOT01", "LB", "01-701-1028", 45.0, "CA", "Calcium", "CHEMISTRY", "8.9", "mg/dL", "8.4", "10.3", "2.22055", 2.22055, "mmol/L", 2.1, 2.57, "NORMAL", "", 4.0, "WEEK 2", 14.0, "TREATMENT", "2013-08-01T09:15", 14.0]
["CDISCPILOT01", "LB", "01-701-1028", 80.0, "CA", "Calcium", "CHEMISTRY", "8.7", "mg/dL", "8.4", "10.3", "2.17065", 2.1706499999999997, "mmol/L", 2.1, 2.57, "NORMAL", "", 5.0, "WEEK 4", 28.0, "TREATMENT", "2013-08-14T13:24", 27.0]
["CDISCPILOT01", "LB", "01-701-1028", 110.0, "CA", "Calcium", "CHEMISTRY", "8.8", "mg/dL", "8.4", "10.3", "2.1956", 2.1955999999999998, "mmol/L", 2.1, 2.57, "NORMAL", "", 7.0, "WEEK 6", 42.0, "TREATMENT", "2013-08-29T11:54", 42.0]
["CDISCPILOT01", "LB", "01-701-1028", 140.0, "CA", "Calcium", "CHEMISTRY", "8.6", "mg/dL", "8.4", "10.3", "2.1457", 2.1456999999999997, "mmol/L", 2.1, 2.57, "NORMAL", "", 8.0, "WEEK 8", 56.0, "TREATMENT", "2013-09-10T09:13", 54.0]
["CDISCPILOT01", "LB", "01-701-1028", 170.0, "CA", "Calcium", "CHEMISTRY", "8.9", "mg/dL", "8.4", "10.3", "2.22055", 2.22055, "mmol/L", 2.1, 2.57, "NORMAL", "", 9.0, "WEEK 12", 84.0, "TREATMENT", "2013-10-09T08:42", 83.0]
["CDISCPILOT01", "LB", "01-701-1028", 206.0, "CA", "Calcium", "CHEMISTRY", "8.0", "mg/dL", "8.4", "10.3", "1.996", 1.996, "mmol/L", 2.1, 2.57, "LOW", "", 10.0, "WEEK 16", 112.0, "TREATMENT", "2013-11-06T10:08", 111.0]
["CDISCPILOT01", "LB", "01-701-1028", 238.0, "CA", "Calcium", "CHEMISTRY", "8.5", "mg/dL", "8.4", "10.3", "2.12075", 2.1207499999999997, "mmol/L", 2.1, 2.57, "NORMAL", "", 11.0, "WEEK 20", 140.0, "TREATMENT", "2013-12-04T15:10", 139.0]
["CDISCPILOT01", "LB", "01-701-1028", 268.0, "CA", "Calcium", "CHEMISTRY", "8.4", "mg/dL", "8.4", "10.3", "2.0958", 2.0958, "mmol/L", 2.1, 2.57, "NORMAL", "", 12.0, "WEEK 24", 168.0, "TREATMENT", "2014-01-06T10:00", 172.0]
["CDISCPILOT01", "LB", "01-701-1028", 305.0, "CA", "Calcium", "CHEMISTRY", "8.9", "mg/dL", "8.4", "10.3", "2.22055", 2.22055, "mmol/L", 2.1, 2.57, "NORMAL", "", 13.0, "WEEK 26", 182.0, "TREATMENT", "2014-01-14T11:10", 180.0]
["CDISCPILOT01", "LB", "01-701-1028", 9.0, "CHOL", "Cholesterol", "CHEMISTRY", "186", "mg/dL", "149", "286", "4.80996", 4.809959999999999, "mmol/L", 3.85, 7.3999999999999995, "NORMAL", "Y", 1.0, "SCREENING 1", -7.0, "SCREENING", "2013-07-11T12:02", -8.0]
["CDISCPILOT01", "LB", "01-701-1028", 46.0, "CHOL", "Cholesterol", "CHEMISTRY", "182", "mg/dL", "149", "286", "4.70652", 4.706519999999999, "mmol/L", 3.85, 7.3999999999999995, "NORMAL", "", 4.0, "WEEK 2", 14.0, "TREATMENT", "2013-08-01T09:15", 14.0]
["CDISCPILOT01", "LB", "01-701-1028", 81.0, "CHOL", "Cholesterol", "CHEMISTRY", "169", "mg/dL", "149", "286", "4.37034", 4.37034, "mmol/L", 3.85, 7.3999999999999995, "NORMAL", "", 5.0, "WEEK 4", 28.0, "TREATMENT", "2013-08-14T13:24", 27.0]
["CDISCPILOT01", "LB", "01-701-1028", 111.0, "CHOL", "Cholesterol", "CHEMISTRY", "165", "mg/dL", "149", "286", "4.2669", 4.2669, "mmol/L", 3.85, 7.3999999999999995, "NORMAL", "", 7.0, "WEEK 6", 42.0, "TREATMENT", "2013-08-29T11:54", 42.0]
["CDISCPILOT01", "LB", "01-701-1028", 141.0, "CHOL", "Cholesterol", "CHEMISTRY", "171", "mg/dL", "149", "286", "4.42206", 4.42206, "mmol/L", 3.85, 7.3999999999999995, "NORMAL", "", 8.0, "WEEK 8", 56.0, "TREATMENT", "2013-09-10T09:13", 54.0]
["CDISCPILOT01", "LB", "01-701-1028", 171.0, "CHOL", "Cholesterol", "CHEMISTRY", "196", "mg/dL", "149", "286", "5.06856", 5.06856, "mmol/L", 3.85, 7.3999999999999995, "NORMAL", "", 9.0, "WEEK 12", 84.0, "TREATMENT", "2013-10-09T08:42", 83.0]
["CDISCPILOT01", "LB", "01-701-1028", 207.0, "CHOL", "Cholesterol", "CHEMISTRY", "152", "mg/dL", "149", "286", "3.93072", 3.93072, "mmol/L", 3.85, 7.3999999999999995, "NORMAL", "", 10.0, "WEEK 16", 112.0, "TREATMENT", "2013-11-06T10:08", 111.0]
["CDISCPILOT01", "LB", "01-701-1028", 239.0, "CHOL", "Cholesterol", "CHEMISTRY", "170", "mg/dL", "149", "286", "4.3962", 4.396199999999999, "mmol/L", 3.85, 7.3999999999999995, "NORMAL", "", 11.0, "WEEK 20", 140.0, "TREATMENT", "2013-12-04T15:10", 139.0]
["CDISCPILOT01", "LB", "01-701-1028", 269.0, "CHOL", "Cholesterol", "CHEMISTRY", "164", "mg/dL", "149", "286", "4.24104", 4.24104, "mmol/L", 3.85, 7.3999999999999995, "NORMAL", "", 12.0, "WEEK 24", 168.0, "TREATMENT", "2014-01-06T10:00", 172.0]
["CDISCPILOT01", "LB", "01-701-1028", 306.0, "CHOL", "Cholesterol", "CHEMISTRY", "181", "mg/dL", "149", "286", "4.68066", 4.68066, "mmol/L", 3.85, 7.3999999999999995, "NORMAL", "", 13.0, "WEEK 26", 182.0, "TREATMENT", "2014-01-14T11:10", 180.0]
["CDISCPILOT01", "LB", "01-701-1028", 10.0, "CK", "Creatine Kinase", "CHEMISTRY", "144", "U/L", "22", "198", "144", 144.0, "U/L", 22.0, 198.0, "NORMAL", "Y", 1.0, "SCREENING 1", -7.0, "SCREENING", "2013-07-11T12:02", -8.0]
["CDISCPILOT01", "LB", "01-701-1028", 47.0, "CK", "Creatine Kinase", "CHEMISTRY", "160", "U/L", "22", "198", "160", 160.0, "U/L", 22.0, 198.0, "NORMAL", "", 4.0, "WEEK 2", 14.0, "TREATMENT", "2013-08-01T09:15", 14.0]
["CDISCPILOT01", "LB", "01-701-1028", 82.0, "CK", "Creatine Kinase", "CHEMISTRY", "176", "U/L", "22", "198", "176", 176.0, "U/L", 22.0, 198.0, "NORMAL", "", 5.0, "WEEK 4", 28.0, "TREATMENT", "2013-08-14T13:24", 27.0]
["CDISCPILOT01", "LB", "01-701-1028", 112.0, "CK", "Creatine Kinase", "CHEMISTRY", "186", "U/L", "22", "198", "186", 186.0, "U/L", 22.0, 198.0, "NORMAL", "", 7.0, "WEEK 6", 42.0, "TREATMENT", "2013-08-29T11:54", 42.0]
["CDISCPILOT01", "LB", "01-701-1028", 142.0, "CK", "Creatine Kinase", "CHEMISTRY", "317", "U/L", "22", "198", "317", 317.0, "U/L", 22.0, 198.0, "HIGH", "", 8.0, "WEEK 8", 56.0, "TREATMENT", "2013-09-10T09:13", 54.0]
["CDISCPILOT01", "LB", "01-701-1028", 172.0, "CK", "Creatine Kinase", "CHEMISTRY", "127", "U/L", "22", "198", "127", 127.0, "U/L", 22.0, 198.0, "NORMAL", "", 9.0, "WEEK 12", 84.0, "TREATMENT", "2013-10-09T08:42", 83.0]
["CDISCPILOT01", "LB", "01-701-1028", 208.0, "CK", "Creatine Kinase", "CHEMISTRY", "103", "U/L", "22", "198", "103", 103.0, "U/L", 22.0, 198.0, "NORMAL", "", 10.0, "WEEK 16", 112.0, "TREATMENT", "2013-11-06T10:08", 111.0]
["CDISCPILOT01", "LB", "01-701-1028", 240.0, "CK", "Creatine Kinase", "CHEMISTRY", "161", "U/L", "22", "198", "161", 161.0, "U/L", 22.0, 198.0, "NORMAL", "", 11.0, "WEEK 20", 140.0, "TREATMENT", "2013-12-04T15:10", 139.0]
["CDISCPILOT01", "LB", "01-701-1028", 270.0, "CK", "Creatine Kinase", "CHEMISTRY", "160", "U/L", "22", "198", "160", 160.0, "U/L", 22.0, 198.0, "NORMAL", "", 12.0, "WEEK 24", 168.0, "TREATMENT", "2014-01-06T10:00", 172.0]
["CDISCPILOT01", "LB", "01-701-1028", 307.0, "CK", "Creatine Kinase", "CHEMISTRY", "130", "U/L", "22", "198", "130", 130.0, "U/L", 22.0, 198.0, "NORMAL", "", 13.0, "WEEK 26", 182.0, "TREATMENT", "2014-01-14T11:10", 180.0]
["CDISCPILOT01", "LB", "01-701-1028", 11.0, "CL", "Chloride", "CHEMISTRY", "103", "mEq/L", "94", "112", "103", 103.0, "mmol/L", 94.0, 112.0, "NORMAL", "Y", 1.0, "SCREENING 1", -7.0, "SCREENING", "2013-07-11T12:02", -8.0]
["CDISCPILOT01", "LB", "01-701-1028", 48.0, "CL", "Chloride", "CHEMISTRY", "103", "mEq/L", "94", "112", "103", 103.0, "mmol/L", 94.0, 112.0, "NORMAL", "", 4.0, "WEEK 2", 14.0, "TREATMENT", "2013-08-01T09:15", 14.0]
["CDISCPILOT01", "LB", "01-701-1028", 83.0, "CL", "Chloride", "CHEMISTRY", "111", "mEq/L", "94", "112", "111", 111.0, "mmol/L", 94.0, 112.0, "NORMAL", "", 5.0, "WEEK 4", 28.0, "TREATMENT", "2013-08-14T13:24", 27.0]
["CDISCPILOT01", "LB", "01-701-1028", 113.0, "CL", "Chloride", "CHEMISTRY", "107", "mEq/L", "94", "112", "107", 107.0, "mmol/L", 94.0, 112.0, "NORMAL", "", 7.0, "WEEK 6", 42.0, "TREATMENT", "2013-08-29T11:54", 42.0]
["CDISCPILOT01", "LB", "01-701-1028", 143.0, "CL", "Chloride", "CHEMISTRY", "105", "mEq/L", "94", "112", "105", 105.0, "mmol/L", 94.0, 112.0, "NORMAL", "", 8.0, "WEEK 8", 56.0, "TREATMENT", "2013-09-10T09:13", 54.0]
["CDISCPILOT01", "LB", "01-701-1028", 173.0, "CL", "Chloride", "CHEMISTRY", "105", "mEq/L", "94", "112", "105", 105.0, "mmol/L", 94.0, 112.0, "NORMAL", "", 9.0, "WEEK 12", 84.0, "TREATMENT", "2013-10-09T08:42", 83.0]
["CDISCPILOT01", "LB", "01-701-1028", 209.0, "CL", "Chloride", "CHEMISTRY", "108", "mEq/L", "94", "112", "108", 108.0, "mmol/L", 94.0, 112.0, "NORMAL", "", 10.0, "WEEK 16", 112.0, "TREATMENT", "2013-11-06T10:08", 111.0]
["CDISCPILOT01", "LB", "01-701-1028", 241.0, "CL", "Chloride", "CHEMISTRY", "105", "mEq/L", "94", "112", "105", 105.0, "mmol/L", 94.0, 112.0, "NORMAL", "", 11.0, "WEEK 20", 140.0, "TREATMENT", "2013-12-04T15:10", 139.0]
["CDISCPILOT01", "LB", "01-701-1028", 271.0, "CL", "Chloride", "CHEMISTRY", "107", "mEq/L", "94", "112", "107", 107.0, "mmol/L", 94.0, 112.0, "NORMAL", "", 12.0, "WEEK 24", 168.0, "TREATMENT", "2014-01-06T10:00", 172.0]
["CDISCPILOT01", "LB", "01-701-1028", 308.0, "CL", "Chloride", "CHEMISTRY", "103", "mEq/L", "94", "112", "103", 103.0, "mmol/L", 94.0, 112.0, "NORMAL", "", 13.0, "WEEK 26", 182.0, "TREATMENT", "2014-01-14T11:10", 180.0]
["CDISCPILOT01", "LB", "01-701-1028", 13.0, "CREAT", "Creatinine", "CHEMISTRY", "1.4", "mg/dL", "0.8", "1.6", "123.76", 123.75999999999999, "umol/L", 71.0, 141.0, "NORMAL", "Y", 1.0, "SCREENING 1", -7.0, "SCREENING", "2013-07-11T12:02", -8.0]
["CDISCPILOT01", "LB", "01-701-1028", 50.0, "CREAT", "Creatinine", "CHEMISTRY", "1.5", "mg/dL", "0.8", "1.6", "132.6", 132.6, "umol/L", 71.0, 141.0, "NORMAL", "", 4.0, "WEEK 2", 14.0, "TREATMENT", "2013-08-01T09:15", 14.0]
["CDISCPILOT01", "LB", "01-701-1028", 84.0, "CREAT", "Creatinine", "CHEMISTRY", "1.6", "mg/dL", "0.8", "1.6", "141.44", 141.44, "umol/L", 71.0, 141.0, "NORMAL", "", 5.0, "WEEK 4", 28.0, "TREATMENT", "2013-08-14T13:24", 27.0]
["CDISCPILOT01", "LB", "01-701-1028", 114.0, "CREAT", "Creatinine", "CHEMISTRY", "1.4", "mg/dL", "0.8", "1.6", "123.76", 123.75999999999999, "umol/L", 71.0, 141.0, "NORMAL", "", 7.0, "WEEK 6", 42.0, "TREATMENT", "2013-08-29T11:54", 42.0]
["CDISCPILOT01", "LB", "01-701-1028", 144.0, "CREAT", "Creatinine", "CHEMISTRY", "1.5", "mg/dL", "0.8", "1.6", "132.6", 132.6, "umol/L", 71.0, 141.0, "NORMAL", "", 8.0, "WEEK 8", 56.0, "TREATMENT", "2013-09-10T09:13", 54.0]
["CDISCPILOT01", "LB", "01-701-1028", 175.0, "CREAT", "Creatinine", "CHEMISTRY", "1.5", "mg/dL", "0.8", "1.6", "132.6", 132.6, "umol/L", 71.0, 141.0, "NORMAL", "", 9.0, "WEEK 12", 84.0, "TREATMENT", "2013-10-09T08:42", 83.0]
["CDISCPILOT01", "LB", "01-701-1028", 210.0, "CREAT", "Creatinine", "CHEMISTRY", "1.3", "mg/dL", "0.8", "1.6", "114.92", 114.92, "umol/L", 71.0, 141.0, "NORMAL", "", 10.0, "WEEK 16", 112.0, "TREATMENT", "2013-11-06T10:08", 111.0]
["CDISCPILOT01", "LB", "01-701-1028", 242.0, "CREAT", "Creatinine", "CHEMISTRY", "1.4", "mg/dL", "0.8", "1.6", "123.76", 123.75999999999999, "umol/L", 71.0, 141.0, "NORMAL", "", 11.0, "WEEK 20", 140.0, "TREATMENT", "2013-12-04T15:10", 139.0]
["CDISCPILOT01", "LB", "01-701-1028", 273.0, "CREAT", "Creatinine", "CHEMISTRY", "1.5", "mg/dL", "0.8", "1.6", "132.6", 132.6, "umol/L", 71.0, 141.0, "NORMAL", "", 12.0, "WEEK 24", 168.0, "TREATMENT", "2014-01-06T10:00", 172.0]
["CDISCPILOT01", "LB", "01-701-1028", 309.0, "CREAT", "Creatinine", "CHEMISTRY", "1.5", "mg/dL", "0.8", "1.6", "132.6", 132.6, "umol/L", 71.0, 141.0, "NORMAL", "", 13.0, "WEEK 26", 182.0, "TREATMENT", "2014-01-14T11:10", 180.0]
["CDISCPILOT01", "LB", "01-701-1028", 15.0, "GGT", "Gamma Glutamyl Transferase", "CHEMISTRY", "24", "U/L", "10", "50", "24", 24.0, "U/L", 10.0, 50.0, "NORMAL", "Y", 1.0, "SCREENING 1", -7.0, "SCREENING", "2013-07-11T12:02", -8.0]
["CDISCPILOT01", "LB", "01-701-1028", 52.0, "GGT", "Gamma Glutamyl Transferase", "CHEMISTRY", "28", "U/L", "10", "50", "28", 28.0, "U/L", 10.0, 50.0, "NORMAL", "", 4.0, "WEEK 2", 14.0, "TREATMENT", "2013-08-01T09:15", 14.0]
["CDISCPILOT01", "LB", "01-701-1028", 86.0, "GGT", "Gamma Glutamyl Transferase", "CHEMISTRY", "23", "U/L", "10", "50", "23", 23.0, "U/L", 10.0, 50.0, "NORMAL", "", 5.0, "WEEK 4", 28.0, "TREATMENT", "2013-08-14T13:24", 27.0]
["CDISCPILOT01", "LB", "01-701-1028", 116.0, "GGT", "Gamma Glutamyl Transferase", "CHEMISTRY", "24", "U/L", "10", "50", "24", 24.0, "U/L", 10.0, 50.0, "NORMAL", "", 7.0, "WEEK 6", 42.0, "TREATMENT", "2013-08-29T11:54", 42.0]
["CDISCPILOT01", "LB", "01-701-1028", 146.0, "GGT", "Gamma Glutamyl Transferase", "CHEMISTRY", "24", "U/L", "10", "50", "24", 24.0, "U/L", 10.0, 50.0, "NORMAL", "", 8.0, "WEEK 8", 56.0, "TREATMENT", "2013-09-10T09:13", 54.0]
["CDISCPILOT01", "LB", "01-701-1028", 177.0, "GGT", "Gamma Glutamyl Transferase", "CHEMISTRY", "23", "U/L", "10", "50", "23", 23.0, "U/L", 10.0, 50.0, "NORMAL", "", 9.0, "WEEK 12", 84.0, "TREATMENT", "2013-10-09T08:42", 83.0]
["CDISCPILOT01", "LB", "01-701-1028", 212.0, "GGT", "Gamma Glutamyl Transferase", "CHEMISTRY", "19", "U/L", "10", "50", "19", 19.0, "U/L", 10.0, 50.0, "NORMAL", "", 10.0, "WEEK 16", 112.0, "TREATMENT", "2013-11-06T10:08", 111.0]
["CDISCPILOT01", "LB", "01-701-1028", 244.0, "GGT", "Gamma Glutamyl Transferase", "CHEMISTRY", "20", "U/L", "10", "50", "20", 20.0, "U/L", 10.0, 50.0, "NORMAL", "", 11.0, "WEEK 20", 140.0, "TREATMENT", "2013-12-04T15:10", 139.0]
["CDISCPILOT01", "LB", "01-701-1028", 275.0, "GGT", "Gamma Glutamyl Transferase", "CHEMISTRY", "23", "U/L", "10", "50", "23", 23.0, "U/L", 10.0, 50.0, "NORMAL", "", 12.0, "WEEK 24", 168.0, "TREATMENT", "2014-01-06T10:00", 172.0]
["CDISCPILOT01", "LB", "01-701-1028", 311.0, "GGT", "Gamma Glutamyl Transferase", "CHEMISTRY", "23", "U/L", "10", "50", "23", 23.0, "U/L", 10.0, 50.0, "NORMAL", "", 13.0, "WEEK 26", 182.0, "TREATMENT", "2014-01-14T11:10", 180.0]
["CDISCPILOT01", "LB", "01-701-1028", 16.0, "GLUC", "Glucose", "CHEMISTRY", "86", "mg/dL", "50", "250", "4.77386", 4.77386, "mmol/L", 2.8, 13.899999999999999, "NORMAL", "Y", 1.0, "SCREENING 1", -7.0, "SCREENING", "2013-07-11T12:02", -8.0]
["CDISCPILOT01", "LB", "01-701-1028", 53.0, "GLUC", "Glucose", "CHEMISTRY", "75", "mg/dL", "50", "250", "4.16325", 4.16325, "mmol/L", 2.8, 13.899999999999999, "NORMAL", "", 4.0, "WEEK 2", 14.0, "TREATMENT", "2013-08-01T09:15", 14.0]
["CDISCPILOT01", "LB", "01-701-1028", 87.0, "GLUC", "Glucose", "CHEMISTRY", "80", "mg/dL", "50", "250", "4.4408", 4.440799999999999, "mmol/L", 2.8, 13.899999999999999, "NORMAL", "", 5.0, "WEEK 4", 28.0, "TREATMENT", "2013-08-14T13:24", 27.0]
["CDISCPILOT01", "LB", "01-701-1028", 117.0, "GLUC", "Glucose", "CHEMISTRY", "76", "mg/dL", "50", "250", "4.21876", 4.21876, "mmol/L", 2.8, 13.899999999999999, "NORMAL", "", 7.0, "WEEK 6", 42.0, "TREATMENT", "2013-08-29T11:54", 42.0]
["CDISCPILOT01", "LB", "01-701-1028", 147.0, "GLUC", "Glucose", "CHEMISTRY", "92", "mg/dL", "50", "250", "5.10692", 5.10692, "mmol/L", 2.8, 13.899999999999999, "NORMAL", "", 8.0, "WEEK 8", 56.0, "TREATMENT", "2013-09-10T09:13", 54.0]
["CDISCPILOT01", "LB", "01-701-1028", 178.0, "GLUC", "Glucose", "CHEMISTRY", "87", "mg/dL", "50", "250", "4.82937", 4.82937, "mmol/L", 2.8, 13.899999999999999, "NORMAL", "", 9.0, "WEEK 12", 84.0, "TREATMENT", "2013-10-09T08:42", 83.0]
["CDISCPILOT01", "LB", "01-701-1028", 213.0, "GLUC", "Glucose", "CHEMISTRY", "87", "mg/dL", "50", "250", "4.82937", 4.82937, "mmol/L", 2.8, 13.899999999999999, "NORMAL", "", 10.0, "WEEK 16", 112.0, "TREATMENT", "2013-11-06T10:08", 111.0]
["CDISCPILOT01", "LB", "01-701-1028", 245.0, "GLUC", "Glucose", "CHEMISTRY", "82", "mg/dL", "50", "250", "4.55182", 4.551819999999999, "mmol/L", 2.8, 13.899999999999999, "NORMAL", "", 11.0, "WEEK 20", 140.0, "TREATMENT", "2013-12-04T15:10", 139.0]
["CDISCPILOT01", "LB", "01-701-1028", 276.0, "GLUC", "Glucose", "CHEMISTRY", "98", "mg/dL", "50", "250", "5.43998", 5.439979999999999, "mmol/L", 2.8, 13.899999999999999, "NORMAL", "", 12.0, "WEEK 24", 168.0, "TREATMENT", "2014-01-06T10:00", 172.0]
["CDISCPILOT01", "LB", "01-701-1028", 312.0, "GLUC", "Glucose", "CHEMISTRY", "88", "mg/dL", "50", "250", "4.88488", 4.88488, "mmol/L", 2.8, 13.899999999999999, "NORMAL", "", 13.0, "WEEK 26", 182.0, "TREATMENT", "2014-01-14T11:10", 180.0]
["CDISCPILOT01", "LB", "01-701-1028", 19.0, "K", "Potassium", "CHEMISTRY", "4.4", "mEq/L", "3.4", "5.4", "4.4", 4.3999999999999995, "mmol/L", 3.4, 5.3999999999999995, "NORMAL", "Y", 1.0, "SCREENING 1", -7.0, "SCREENING", "2013-07-11T12:02", -8.0]
["CDISCPILOT01", "LB", "01-701-1028", 56.0, "K", "Potassium", "CHEMISTRY", "4.6", "mEq/L", "3.4", "5.4", "4.6", 4.6, "mmol/L", 3.4, 5.3999999999999995, "NORMAL", "", 4.0, "WEEK 2", 14.0, "TREATMENT", "2013-08-01T09:15", 14.0]
["CDISCPILOT01", "LB", "01-701-1028", 90.0, "K", "Potassium", "CHEMISTRY", "4.6", "mEq/L", "3.4", "5.4", "4.6", 4.6, "mmol/L", 3.4, 5.3999999999999995, "NORMAL", "", 5.0, "WEEK 4", 28.0, "TREATMENT", "2013-08-14T13:24", 27.0]
["CDISCPILOT01", "LB", "01-701-1028", 120.0, "K", "Potassium", "CHEMISTRY", "4.4", "mEq/L", "3.4", "5.4", "4.4", 4.3999999999999995, "mmol/L", 3.4, 5.3999999999999995, "NORMAL", "", 7.0, "WEEK 6", 42.0, "TREATMENT", "2013-08-29T11:54", 42.0]
["CDISCPILOT01", "LB", "01-701-1028", 150.0, "K", "Potassium", "CHEMISTRY", "4.0", "mEq/L", "3.4", "5.4", "4", 4.0, "mmol/L", 3.4, 5.3999999999999995, "NORMAL", "", 8.0, "WEEK 8", 56.0, "TREATMENT", "2013-09-10T09:13", 54.0]
["CDISCPILOT01", "LB", "01-701-1028", 181.0, "K", "Potassium", "CHEMISTRY", "4.4", "mEq/L", "3.4", "5.4", "4.4", 4.3999999999999995, "mmol/L", 3.4, 5.3999999999999995, "NORMAL", "", 9.0, "WEEK 12", 84.0, "TREATMENT", "2013-10-09T08:42", 83.0]
["CDISCPILOT01", "LB", "01-701-1028", 216.0, "K", "Potassium", "CHEMISTRY", "4.2", "mEq/L", "3.4", "5.4", "4.2", 4.199999999999999, "mmol/L", 3.4, 5.3999999999999995, "NORMAL", "", 10.0, "WEEK 16", 112.0, "TREATMENT", "2013-11-06T10:08", 111.0]
["CDISCPILOT01", "LB", "01-701-1028", 248.0, "K", "Potassium", "CHEMISTRY", "4.2", "mEq/L", "3.4", "5.4", "4.2", 4.199999999999999, "mmol/L", 3.4, 5.3999999999999995, "NORMAL", "", 11.0, "WEEK 20", 140.0, "TREATMENT", "2013-12-04T15:10", 139.0]
["CDISCPILOT01", "LB", "01-701-1028", 279.0, "K", "Potassium", "CHEMISTRY", "4.6", "mEq/L", "3.4", "5.4", "4.6", 4.6, "mmol/L", 3.4, 5.3999999999999995, "NORMAL", "", 12.0, "WEEK 24", 168.0, "TREATMENT", "2014-01-06T10:00", 172.0]
["CDISCPILOT01", "LB", "01-701-1028", 315.0, "K", "Potassium", "CHEMISTRY", "4.4", "mEq/L", "3.4", "5.4", "4.4", 4.3999999999999995, "mmol/L", 3.4, 5.3999999999999995, "NORMAL", "", 13.0, "WEEK 26", 182.0, "TREATMENT", "2014-01-14T11:10", 180.0]
["CDISCPILOT01", "LB", "01-701-1028", 26.0, "SODIUM", "Sodium", "CHEMISTRY", "139", "mEq/L", "135", "145", "139", 139.0, "mmol/L", 135.0, 145.0, "NORMAL", "Y", 1.0, "SCREENING 1", -7.0, "SCREENING", "2013-07-11T12:02", -8.0]
["CDISCPILOT01", "LB", "01-701-1028", 63.0, "SODIUM", "Sodium", "CHEMISTRY", "137", "mEq/L", "135", "145", "137", 137.0, "mmol/L", 135.0, 145.0, "NORMAL", "", 4.0, "WEEK 2", 14.0, "TREATMENT", "2013-08-01T09:15", 14.0]
["CDISCPILOT01", "LB", "01-701-1028", 96.0, "SODIUM", "Sodium", "CHEMISTRY", "139", "mEq/L", "135", "145", "139", 139.0, "mmol/L", 135.0, 145.0, "NORMAL", "", 5.0, "WEEK 4", 28.0, "TREATMENT", "2013-08-14T13:24", 27.0]
["CDISCPILOT01", "LB", "01-701-1028", 126.0, "SODIUM", "Sodium", "CHEMISTRY", "138", "mEq/L", "135", "145", "138", 138.0, "mmol/L", 135.0, 145.0, "NORMAL", "", 7.0, "WEEK 6", 42.0, "TREATMENT", "2013-08-29T11:54", 42.0]
["CDISCPILOT01", "LB", "01-701-1028", 156.0, "SODIUM", "Sodium", "CHEMISTRY", "136", "mEq/L", "135", "145", "136", 136.0, "mmol/L", 135.0, 145.0, "NORMAL", "", 8.0, "WEEK 8", 56.0, "TREATMENT", "2013-09-10T09:13", 54.0]
["CDISCPILOT01", "LB", "01-701-1028", 188.0, "SODIUM", "Sodium", "CHEMISTRY", "140", "mEq/L", "135", "145", "140", 140.0, "mmol/L", 135.0, 145.0, "NORMAL", "", 9.0, "WEEK 12", 84.0, "TREATMENT", "2013-10-09T08:42", 83.0]
["CDISCPILOT01", "LB", "01-701-1028", 223.0, "SODIUM", "Sodium", "CHEMISTRY", "140", "mEq/L", "135", "145", "140", 140.0, "mmol/L", 135.0, 145.0, "NORMAL", "", 10.0, "WEEK 16", 112.0, "TREATMENT", "2013-11-06T10:08", 111.0]
["CDISCPILOT01", "LB", "01-701-1028", 254.0, "SODIUM", "Sodium", "CHEMISTRY", "137", "mEq/L", "135", "145", "137", 137.0, "mmol/L", 135.0, 145.0, "NORMAL", "", 11.0, "WEEK 20", 140.0, "TREATMENT", "2013-12-04T15:10", 139.0]
["CDISCPILOT01", "LB", "01-701-1028", 287.0, "SODIUM", "Sodium", "CHEMISTRY", "140", "mEq/L", "135", "145", "140", 140.0, "mmol/L", 135.0, 145.0, "NORMAL", "", 12.0, "WEEK 24", 168.0, "TREATMENT", "2014-01-06T10:00", 172.0]
["CDISCPILOT01", "LB", "01-701-1028", 322.0, "SODIUM", "Sodium", "CHEMISTRY", "138", "mEq/L", "135", "145", "138", 138.0, "mmol/L", 135.0, 145.0, "NORMAL", "", 13.0, "WEEK 26", 182.0, "TREATMENT", "2014-01-14T11:10", 180.0]
["CDISCPILOT01", "LB", "01-701-1028", 28.0, "PHOS", "Phosphate", "CHEMISTRY", "3.4", "mg/dL", "2.2", "5.1", "1.09786", 1.09786, "mmol/L", 0.71, 1.65, "NORMAL", "Y", 1.0, "SCREENING 1", -7.0, "SCREENING", "2013-07-11T12:02", -8.0]
["CDISCPILOT01", "LB", "01-701-1028", 65.0, "PHOS", "Phosphate", "CHEMISTRY", "2.9", "mg/dL", "2.2", "5.1", "0.93641", 0.93641, "mmol/L", 0.71, 1.65, "NORMAL", "", 4.0, "WEEK 2", 14.0, "TREATMENT", "2013-08-01T09:15", 14.0]
["CDISCPILOT01", "LB", "01-701-1028", 97.0, "PHOS", "Phosphate", "CHEMISTRY", "3.8", "mg/dL", "2.2", "5.1", "1.22702", 1.22702, "mmol/L", 0.71, 1.65, "NORMAL", "", 5.0, "WEEK 4", 28.0, "TREATMENT", "2013-08-14T13:24", 27.0]
["CDISCPILOT01", "LB", "01-701-1028", 127.0, "PHOS", "Phosphate", "CHEMISTRY", "3.4", "mg/dL", "2.2", "5.1", "1.09786", 1.09786, "mmol/L", 0.71, 1.65, "NORMAL", "", 7.0, "WEEK 6", 42.0, "TREATMENT", "2013-08-29T11:54", 42.0]
["CDISCPILOT01", "LB", "01-701-1028", 157.0, "PHOS", "Phosphate", "CHEMISTRY", "2.6", "mg/dL", "2.2", "5.1", "0.83954", 0.83954, "mmol/L", 0.71, 1.65, "NORMAL", "", 8.0, "WEEK 8", 56.0, "TREATMENT", "2013-09-10T09:13", 54.0]
["CDISCPILOT01", "LB", "01-701-1028", 190.0, "PHOS", "Phosphate", "CHEMISTRY", "2.8", "mg/dL", "2.2", "5.1", "0.90412", 0.9041199999999999, "mmol/L", 0.71, 1.65, "NORMAL", "", 9.0, "WEEK 12", 84.0, "TREATMENT", "2013-10-09T08:42", 83.0]
["CDISCPILOT01", "LB", "01-701-1028", 224.0, "PHOS", "Phosphate", "CHEMISTRY", "2.4", "mg/dL", "2.2", "5.1", "0.77496", 0.77496, "mmol/L", 0.71, 1.65, "NORMAL", "", 10.0, "WEEK 16", 112.0, "TREATMENT", "2013-11-06T10:08", 111.0]
["CDISCPILOT01", "LB", "01-701-1028", 255.0, "PHOS", "Phosphate", "CHEMISTRY", "3.6", "mg/dL", "2.2", "5.1", "1.16244", 1.16244, "mmol/L", 0.71, 1.65, "NORMAL", "", 11.0, "WEEK 20", 140.0, "TREATMENT", "2013-12-04T15:10", 139.0]
["CDISCPILOT01", "LB", "01-701-1028", 289.0, "PHOS", "Phosphate", "CHEMISTRY", "2.8", "mg/dL", "2.2", "5.1", "0.90412", 0.9041199999999999, "mmol/L", 0.71, 1.65, "NORMAL", "", 12.0, "WEEK 24", 168.0, "TREATMENT", "2014-01-06T10:00", 172.0]
["CDISCPILOT01", "LB", "01-701-1028", 323.0, "PHOS", "Phosphate", "CHEMISTRY", "3.5", "mg/dL", "2.2", "5.1", "1.13015", 1.13015, "mmol/L", 0.71, 1.65, "NORMAL", "", 13.0, "WEEK 26", 182.0, "TREATMENT", "2014-01-14T11:10", 180.0]
["CDISCPILOT01", "LB", "01-701-1028", 30.0, "PROT", "Protein", "CHEMISTRY", "7.2", "g/dL", "6", "8", "72", 72.0, "g/L", 60.0, 80.0, "NORMAL", "Y", 1.0, "SCREENING 1", -7.0, "SCREENING", "2013-07-11T12:02", -8.0]
["CDISCPILOT01", "LB", "01-701-1028", 67.0, "PROT", "Protein", "CHEMISTRY", "7.2", "g/dL", "6", "8", "72", 72.0, "g/L", 60.0, 80.0, "NORMAL", "", 4.0, "WEEK 2", 14.0, "TREATMENT", "2013-08-01T09:15", 14.0]
["CDISCPILOT01", "LB", "01-701-1028", 99.0, "PROT", "Protein", "CHEMISTRY", "6.9", "g/dL", "6", "8", "69", 69.0, "g/L", 60.0, 80.0, "NORMAL", "", 5.0, "WEEK 4", 28.0, "TREATMENT", "2013-08-14T13:24", 27.0]
["CDISCPILOT01", "LB", "01-701-1028", 129.0, "PROT", "Protein", "CHEMISTRY", "6.9", "g/dL", "6", "8", "69", 69.0, "g/L", 60.0, 80.0, "NORMAL", "", 7.0, "WEEK 6", 42.0, "TREATMENT", "2013-08-29T11:54", 42.0]
["CDISCPILOT01", "LB", "01-701-1028", 159.0, "PROT", "Protein", "CHEMISTRY", "6.7", "g/dL", "6", "8", "67", 67.0, "g/L", 60.0, 80.0, "NORMAL", "", 8.0, "WEEK 8", 56.0, "TREATMENT", "2013-09-10T09:13", 54.0]
["CDISCPILOT01", "LB", "01-701-1028", 192.0, "PROT", "Protein", "CHEMISTRY", "7.8", "g/dL", "6", "8", "78", 78.0, "g/L", 60.0, 80.0, "NORMAL", "", 9.0, "WEEK 12", 84.0, "TREATMENT", "2013-10-09T08:42", 83.0]
["CDISCPILOT01", "LB", "01-701-1028", 226.0, "PROT", "Protein", "CHEMISTRY", "6.2", "g/dL", "6", "8", "62", 62.0, "g/L", 60.0, 80.0, "NORMAL", "", 10.0, "WEEK 16", 112.0, "TREATMENT", "2013-11-06T10:08", 111.0]
["CDISCPILOT01", "LB", "01-701-1028", 257.0, "PROT", "Protein", "CHEMISTRY", "6.6", "g/dL", "6", "8", "66", 66.0, "g/L", 60.0, 80.0, "NORMAL", "", 11.0, "WEEK 20", 140.0, "TREATMENT", "2013-12-04T15:10", 139.0]
["CDISCPILOT01", "LB", "01-701-1028", 292.0, "PROT", "Protein", "CHEMISTRY", "6.7", "g/dL", "6", "8", "67", 67.0, "g/L", 60.0, 80.0, "NORMAL", "", 12.0, "WEEK 24", 168.0, "TREATMENT", "2014-01-06T10:00", 172.0]
["CDISCPILOT01", "LB", "01-701-1028", 325.0, "PROT", "Protein", "CHEMISTRY", "7.0", "g/dL", "6", "8", "70", 70.0, "g/L", 60.0, 80.0, "NORMAL", "", 13.0, "WEEK 26", 182.0, "TREATMENT", "2014-01-14T11:10", 180.0]
["CDISCPILOT01", "LB", "01-701-1028", 34.0, "URATE", "Urate", "CHEMISTRY", "5.0", "mg/dL", "2.5", "7.5", "297.4", 297.4, "umol/L", 149.0, 446.0, "NORMAL", "Y", 1.0, "SCREENING 1", -7.0, "SCREENING", "2013-07-11T12:02", -8.0]
["CDISCPILOT01", "LB", "01-701-1028", 70.0, "URATE", "Urate", "CHEMISTRY", "5.7", "mg/dL", "2.5", "7.5", "339.036", 339.036, "umol/L", 149.0, 446.0, "NORMAL", "", 4.0, "WEEK 2", 14.0, "TREATMENT", "2013-08-01T09:15", 14.0]
["CDISCPILOT01", "LB", "01-701-1028", 101.0, "URATE", "Urate", "CHEMISTRY", "5.8", "mg/dL", "2.5", "7.5", "344.984", 344.984, "umol/L", 149.0, 446.0, "NORMAL", "", 5.0, "WEEK 4", 28.0, "TREATMENT", "2013-08-14T13:24", 27.0]
["CDISCPILOT01", "LB", "01-701-1028", 131.0, "URATE", "Urate", "CHEMISTRY", "5.0", "mg/dL", "2.5", "7.5", "297.4", 297.4, "umol/L", 149.0, 446.0, "NORMAL", "", 7.0, "WEEK 6", 42.0, "TREATMENT", "2013-08-29T11:54", 42.0]
["CDISCPILOT01", "LB", "01-701-1028", 161.0, "URATE", "Urate", "CHEMISTRY", "5.3", "mg/dL", "2.5", "7.5", "315.244", 315.244, "umol/L", 149.0, 446.0, "NORMAL", "", 8.0, "WEEK 8", 56.0, "TREATMENT", "2013-09-10T09:13", 54.0]
["CDISCPILOT01", "LB", "01-701-1028", 195.0, "URATE", "Urate", "CHEMISTRY", "5.3", "mg/dL", "2.5", "7.5", "315.244", 315.244, "umol/L", 149.0, 446.0, "NORMAL", "", 9.0, "WEEK 12", 84.0, "TREATMENT", "2013-10-09T08:42", 83.0]
["CDISCPILOT01", "LB", "01-701-1028", 228.0, "URATE", "Urate", "CHEMISTRY", "4.8", "mg/dL", "2.5", "7.5", "285.504", 285.504, "umol/L", 149.0, 446.0, "NORMAL", "", 10.0, "WEEK 16", 112.0, "TREATMENT", "2013-11-06T10:08", 111.0]
["CDISCPILOT01", "LB", "01-701-1028", 259.0, "URATE", "Urate", "CHEMISTRY", "5.1", "mg/dL", "2.5", "7.5", "303.348", 303.348, "umol/L", 149.0, 446.0, "NORMAL", "", 11.0, "WEEK 20", 140.0, "TREATMENT", "2013-12-04T15:10", 139.0]
["CDISCPILOT01", "LB", "01-701-1028", 295.0, "URATE", "Urate", "CHEMISTRY", "5.4", "mg/dL", "2.5", "7.5", "321.192", 321.192, "umol/L", 149.0, 446.0, "NORMAL", "", 12.0, "WEEK 24", 168.0, "TREATMENT", "2014-01-06T10:00", 172.0]
["CDISCPILOT01", "LB", "01-701-1028", 327.0, "URATE", "Urate", "CHEMISTRY", "5.7", "mg/dL", "2.5", "7.5", "339.036", 339.036, "umol/L", 149.0, 446.0, "NORMAL", "", 13.0, "WEEK 26", 182.0, "TREATMENT", "2014-01-14T11:10", 180.0]
["CDISCPILOT01", "LB", "01-701-1033", 1.0, "ALB", "Albumin", "CHEMISTRY", "3.8", "g/dL", "3.5", "4.6", "38", 38.0, "g/L", 35.0, 46.0, "NORMAL", "Y", 1.0, "SCREENING 1", -7.0, "SCREENING", "2014-03-10T12:31", -8.0]
["CDISCPILOT01", "LB", "01-701-1033", 38.0, "ALB", "Albumin", "CHEMISTRY", "4.1", "g/dL", "3.5", "4.6", "41", 41.0, "g/L", 35.0, 46.0, "NORMAL", "", 4.0, "WEEK 2", 14.0, "TREATMENT", "2014-04-01T08:55", 15.0]
["CDISCPILOT01", "LB", "01-701-1033", 73.0, "ALB", "Albumin", "CHEMISTRY", "4.0", "g/dL", "3.5", "4.6", "40", 40.0, "g/L", 35.0, 46.0, "NORMAL", "", 5.0, "WEEK 4", 28.0, "TREATMENT", "2014-04-14T10:38", 28.0]
["CDISCPILOT01", "LB", "01-701-1033", 2.0, "ALP", "Alkaline Phosphatase", "CHEMISTRY", "67", "U/L", "35", "115", "67", 67.0, "U/L", 35.0, 115.0, "NORMAL", "Y", 1.0, "SCREENING 1", -7.0, "SCREENING", "2014-03-10T12:31", -8.0]
["CDISCPILOT01", "LB", "01-701-1033", 39.0, "ALP", "Alkaline Phosphatase", "CHEMISTRY", "89", "U/L", "35", "115", "89", 89.0, "U/L", 35.0, 115.0, "NORMAL", "", 4.0, "WEEK 2", 14.0, "TREATMENT", "2014-04-01T08:55", 15.0]
["CDISCPILOT01", "LB", "01-701-1033", 74.0, "ALP", "Alkaline Phosphatase", "CHEMISTRY", "76", "U/L", "35", "115", "76", 76.0, "U/L", 35.0, 115.0, "NORMAL", "", 5.0, "WEEK 4", 28.0, "TREATMENT", "2014-04-14T10:38", 28.0]
["CDISCPILOT01", "LB", "01-701-1033", 3.0, "ALT", "Alanine Aminotransferase", "CHEMISTRY", "16", "U/L", "6", "35", "16", 16.0, "U/L", 6.0, 35.0, "NORMAL", "Y", 1.0, "SCREENING 1", -7.0, "SCREENING", "2014-03-10T12:31", -8.0]
["CDISCPILOT01", "LB", "01-701-1033", 40.0, "ALT", "Alanine Aminotransferase", "CHEMISTRY", "35", "U/L", "6", "35", "35", 35.0, "U/L", 6.0, 35.0, "NORMAL", "", 4.0, "WEEK 2", 14.0, "TREATMENT", "2014-04-01T08:55", 15.0]
["CDISCPILOT01", "LB", "01-701-1033", 75.0, "ALT", "Alanine Aminotransferase", "CHEMISTRY", "14", "U/L", "6", "35", "14", 14.0, "U/L", 6.0, 35.0, "NORMAL", "", 5.0, "WEEK 4", 28.0, "TREATMENT", "2014-04-14T10:38", 28.0]
["CDISCPILOT01", "LB", "01-701-1033", 4.0, "AST", "Aspartate Aminotransferase", "CHEMISTRY", "20", "U/L", "11", "36", "20", 20.0, "U/L", 11.0, 36.0, "NORMAL", "Y", 1.0, "SCREENING 1", -7.0, "SCREENING", "2014-03-10T12:31", -8.0]
["CDISCPILOT01", "LB", "01-701-1033", 41.0, "AST", "Aspartate Aminotransferase", "CHEMISTRY", "26", "U/L", "11", "36", "26", 26.0, "U/L", 11.0, 36.0, "NORMAL", "", 4.0, "WEEK 2", 14.0, "TREATMENT", "2014-04-01T08:55", 15.0]
["CDISCPILOT01", "LB", "01-701-1033", 76.0, "AST", "Aspartate Aminotransferase", "CHEMISTRY", "20", "U/L", "11", "36", "20", 20.0, "U/L", 11.0, 36.0, "NORMAL", "", 5.0, "WEEK 4", 28.0, "TREATMENT", "2014-04-14T10:38", 28.0]
["CDISCPILOT01", "LB", "01-701-1033", 6.0, "BILI", "Bilirubin", "CHEMISTRY", "0.8", "mg/dL", "0.2", "1.2", "13.68", 13.68, "umol/L", 3.0, 21.0, "NORMAL", "Y", 1.0, "SCREENING 1", -7.0, "SCREENING", "2014-03-10T12:31", -8.0]
["CDISCPILOT01", "LB", "01-701-1033", 43.0, "BILI", "Bilirubin", "CHEMISTRY", "0.4", "mg/dL", "0.2", "1.2", "6.84", 6.84, "umol/L", 3.0, 21.0, "NORMAL", "", 4.0, "WEEK 2", 14.0, "TREATMENT", "2014-04-01T08:55", 15.0]
["CDISCPILOT01", "LB", "01-701-1033", 78.0, "BILI", "Bilirubin", "CHEMISTRY", "0.9", "mg/dL", "0.2", "1.2", "15.39", 15.389999999999999, "umol/L", 3.0, 21.0, "NORMAL", "", 5.0, "WEEK 4", 28.0, "TREATMENT", "2014-04-14T10:38", 28.0]
["CDISCPILOT01", "LB", "01-701-1033", 7.0, "UREAN", "Urea Nitrogen", "CHEMISTRY", "16", "mg/dL", "4", "24", "5.712", 5.712, "mmol/L", 1.4, 8.6, "NORMAL", "Y", 1.0, "SCREENING 1", -7.0, "SCREENING", "2014-03-10T12:31", -8.0]
["CDISCPILOT01", "LB", "01-701-1033", 44.0, "UREAN", "Urea Nitrogen", "CHEMISTRY", "13", "mg/dL", "4", "24", "4.641", 4.641, "mmol/L", 1.4, 8.6, "NORMAL", "", 4.0, "WEEK 2", 14.0, "TREATMENT", "2014-04-01T08:55", 15.0]
["CDISCPILOT01", "LB", "01-701-1033", 79.0, "UREAN", "Urea Nitrogen", "CHEMISTRY", "16", "mg/dL", "4", "24", "5.712", 5.712, "mmol/L", 1.4, 8.6, "NORMAL", "", 5.0, "WEEK 4", 28.0, "TREATMENT", "2014-04-14T10:38", 28.0]
["CDISCPILOT01", "LB", "01-701-1033", 8.0, "CA", "Calcium", "CHEMISTRY", "8.3", "mg/dL", "8.4", "10.3", "2.07085", 2.07085, "mmol/L", 2.1, 2.57, "LOW", "Y", 1.0, "SCREENING 1", -7.0, "SCREENING", "2014-03-10T12:31", -8.0]
["CDISCPILOT01", "LB", "01-701-1033", 45.0, "CA", "Calcium", "CHEMISTRY", "8.7", "mg/dL", "8.4", "10.3", "2.17065", 2.1706499999999997, "mmol/L", 2.1, 2.57, "NORMAL", "", 4.0, "WEEK 2", 14.0, "TREATMENT", "2014-04-01T08:55", 15.0]
["CDISCPILOT01", "LB", "01-701-1033", 80.0, "CA", "Calcium", "CHEMISTRY", "8.6", "mg/dL", "8.4", "10.3", "2.1457", 2.1456999999999997, "mmol/L", 2.1, 2.57, "NORMAL", "", 5.0, "WEEK 4", 28.0, "TREATMENT", "2014-04-14T10:38", 28.0]
["CDISCPILOT01", "LB", "01-701-1033", 9.0, "CHOL", "Cholesterol", "CHEMISTRY", "191", "mg/dL", "149", "286", "4.93926", 4.93926, "mmol/L", 3.85, 7.3999999999999995, "NORMAL", "Y", 1.0, "SCREENING 1", -7.0, "SCREENING", "2014-03-10T12:31", -8.0]
["CDISCPILOT01", "LB", "01-701-1033", 46.0, "CHOL", "Cholesterol", "CHEMISTRY", "197", "mg/dL", "149", "286", "5.09442", 5.0944199999999995, "mmol/L", 3.85, 7.3999999999999995, "NORMAL", "", 4.0, "WEEK 2", 14.0, "TREATMENT", "2014-04-01T08:55", 15.0]
["CDISCPILOT01", "LB", "01-701-1033", 81.0, "CHOL", "Cholesterol", "CHEMISTRY", "197", "mg/dL", "149", "286", "5.09442", 5.0944199999999995, "mmol/L", 3.85, 7.3999999999999995, "NORMAL", "", 5.0, "WEEK 4", 28.0, "TREATMENT", "2014-04-14T10:38", 28.0]
["CDISCPILOT01", "LB", "01-701-1033", 10.0, "CK", "Creatine Kinase", "CHEMISTRY", "114", "U/L", "22", "198", "114", 114.0, "U/L", 22.0, 198.0, "NORMAL", "Y", 1.0, "SCREENING 1", -7.0, "SCREENING", "2014-03-10T12:31", -8.0]
["CDISCPILOT01", "LB", "01-701-1033", 47.0, "CK", "Creatine Kinase", "CHEMISTRY", "93", "U/L", "22", "198", "93", 93.0, "U/L", 22.0, 198.0, "NORMAL", "", 4.0, "WEEK 2", 14.0, "TREATMENT", "2014-04-01T08:55", 15.0]
["CDISCPILOT01", "LB", "01-701-1033", 82.0, "CK", "Creatine Kinase", "CHEMISTRY", "116", "U/L", "22", "198", "116", 116.0, "U/L", 22.0, 198.0, "NORMAL", "", 5.0, "WEEK 4", 28.0, "TREATMENT", "2014-04-14T10:38", 28.0]
["CDISCPILOT01", "LB", "01-701-1033", 11.0, "CL", "Chloride", "CHEMISTRY", "107", "mEq/L", "94", "112", "107", 107.0, "mmol/L", 94.0, 112.0, "NORMAL", "Y", 1.0, "SCREENING 1", -7.0, "SCREENING", "2014-03-10T12:31", -8.0]
["CDISCPILOT01", "LB", "01-701-1033", 48.0, "CL", "Chloride", "CHEMISTRY", "107", "mEq/L", "94", "112", "107", 107.0, "mmol/L", 94.0, 112.0, "NORMAL", "", 4.0, "WEEK 2", 14.0, "TREATMENT", "2014-04-01T08:55", 15.0]
["CDISCPILOT01", "LB", "01-701-1033", 83.0, "CL", "Chloride", "CHEMISTRY", "105", "mEq/L", "94", "112", "105", 105.0, "mmol/L", 94.0, 112.0, "NORMAL", "", 5.0, "WEEK 4", 28.0, "TREATMENT", "2014-04-14T10:38", 28.0]
["CDISCPILOT01", "LB", "01-701-1033", 13.0, "CREAT", "Creatinine", "CHEMISTRY", "1.5", "mg/dL", "0.8", "1.6", "132.6", 132.6, "umol/L", 71.0, 141.0, "NORMAL", "Y", 1.0, "SCREENING 1", -7.0, "SCREENING", "2014-03-10T12:31", -8.0]
["CDISCPILOT01", "LB", "01-701-1033", 50.0, "CREAT", "Creatinine", "CHEMISTRY", "1.5", "mg/dL", "0.8", "1.6", "132.6", 132.6, "umol/L", 71.0, 141.0, "NORMAL", "", 4.0, "WEEK 2", 14.0, "TREATMENT", "2014-04-01T08:55", 15.0]
["CDISCPILOT01", "LB", "01-701-1033", 85.0, "CREAT", "Creatinine", "CHEMISTRY", "1.5", "mg/dL", "0.8", "1.6", "132.6", 132.6, "umol/L", 71.0, 141.0, "NORMAL", "", 5.0, "WEEK 4", 28.0, "TREATMENT", "2014-04-14T10:38", 28.0]
["CDISCPILOT01", "LB", "01-701-1033", 15.0, "GGT", "Gamma Glutamyl Transferase", "CHEMISTRY", "21", "U/L", "10", "50", "21", 21.0, "U/L", 10.0, 50.0, "NORMAL", "Y", 1.0, "SCREENING 1", -7.0, "SCREENING", "2014-03-10T12:31", -8.0]
["CDISCPILOT01", "LB", "01-701-1033", 52.0, "GGT", "Gamma Glutamyl Transferase", "CHEMISTRY", "26", "U/L", "10", "50", "26", 26.0, "U/L", 10.0, 50.0, "NORMAL", "", 4.0, "WEEK 2", 14.0, "TREATMENT", "2014-04-01T08:55", 15.0]
["CDISCPILOT01", "LB", "01-701-1033", 87.0, "GGT", "Gamma Glutamyl Transferase", "CHEMISTRY", "21", "U/L", "10", "50", "21", 21.0, "U/L", 10.0, 50.0, "NORMAL", "", 5.0, "WEEK 4", 28.0, "TREATMENT", "2014-04-14T10:38", 28.0]
["CDISCPILOT01", "LB", "01-701-1033", 16.0, "GLUC", "Glucose", "CHEMISTRY", "90", "mg/dL", "50", "250", "4.9959", 4.9959, "mmol/L", 2.8, 13.899999999999999, "NORMAL", "Y", 1.0, "SCREENING 1", -7.0, "SCREENING", "2014-03-10T12:31", -8.0]
["CDISCPILOT01", "LB", "01-701-1033", 53.0, "GLUC", "Glucose", "CHEMISTRY", "103", "mg/dL", "50", "250", "5.71753", 5.71753, "mmol/L", 2.8, 13.899999999999999, "NORMAL", "", 4.0, "WEEK 2", 14.0, "TREATMENT", "2014-04-01T08:55", 15.0]
["CDISCPILOT01", "LB", "01-701-1033", 88.0, "GLUC", "Glucose", "CHEMISTRY", "98", "mg/dL", "50", "250", "5.43998", 5.439979999999999, "mmol/L", 2.8, 13.899999999999999, "NORMAL", "", 5.0, "WEEK 4", 28.0, "TREATMENT", "2014-04-14T10:38", 28.0]
["CDISCPILOT01", "LB", "01-701-1033", 19.0, "K", "Potassium", "CHEMISTRY", "4.1", "mEq/L", "3.4", "5.4", "4.1", 4.1, "mmol/L", 3.4, 5.3999999999999995, "NORMAL", "Y", 1.0, "SCREENING 1", -7.0, "SCREENING", "2014-03-10T12:31", -8.0]
["CDISCPILOT01", "LB", "01-701-1033", 56.0, "K", "Potassium", "CHEMISTRY", "4.2", "mEq/L", "3.4", "5.4", "4.2", 4.199999999999999, "mmol/L", 3.4, 5.3999999999999995, "NORMAL", "", 4.0, "WEEK 2", 14.0, "TREATMENT", "2014-04-01T08:55", 15.0]
["CDISCPILOT01", "LB", "01-701-1033", 91.0, "K", "Potassium", "CHEMISTRY", "3.9", "mEq/L", "3.4", "5.4", "3.9", 3.9, "mmol/L", 3.4, 5.3999999999999995, "NORMAL", "", 5.0, "WEEK 4", 28.0, "TREATMENT", "2014-04-14T10:38", 28.0]
["CDISCPILOT01", "LB", "01-701-1033", 26.0, "SODIUM", "Sodium", "CHEMISTRY", "145", "mEq/L", "135", "145", "145", 145.0, "mmol/L", 135.0, 145.0, "NORMAL", "Y", 1.0, "SCREENING 1", -7.0, "SCREENING", "2014-03-10T12:31", -8.0]
["CDISCPILOT01", "LB", "01-701-1033", 63.0, "SODIUM", "Sodium", "CHEMISTRY", "140", "mEq/L", "135", "145", "140", 140.0, "mmol/L", 135.0, 145.0, "NORMAL", "", 4.0, "WEEK 2", 14.0, "TREATMENT", "2014-04-01T08:55", 15.0]
["CDISCPILOT01", "LB", "01-701-1033", 98.0, "SODIUM", "Sodium", "CHEMISTRY", "140", "mEq/L", "135", "145", "140", 140.0, "mmol/L", 135.0, 145.0, "NORMAL", "", 5.0, "WEEK 4", 28.0, "TREATMENT", "2014-04-14T10:38", 28.0]
["CDISCPILOT01", "LB", "01-701-1033", 28.0, "PHOS", "Phosphate", "CHEMISTRY", "3.8", "mg/dL", "2.2", "5.1", "1.22702", 1.22702, "mmol/L", 0.71, 1.65, "NORMAL", "Y", 1.0, "SCREENING 1", -7.0, "SCREENING", "2014-03-10T12:31", -8.0]
["CDISCPILOT01", "LB", "01-701-1033", 65.0, "PHOS", "Phosphate", "CHEMISTRY", "3.3", "mg/dL", "2.2", "5.1", "1.06557", 1.06557, "mmol/L", 0.71, 1.65, "NORMAL", "", 4.0, "WEEK 2", 14.0, "TREATMENT", "2014-04-01T08:55", 15.0]
["CDISCPILOT01", "LB", "01-701-1033", 100.0, "PHOS", "Phosphate", "CHEMISTRY", "3.5", "mg/dL", "2.2", "5.1", "1.13015", 1.13015, "mmol/L", 0.71, 1.65, "NORMAL", "", 5.0, "WEEK 4", 28.0, "TREATMENT", "2014-04-14T10:38", 28.0]
["CDISCPILOT01", "LB", "01-701-1033", 30.0, "PROT", "Protein", "CHEMISTRY", "7.3", "g/dL", "6", "8", "73", 73.0, "g/L", 60.0, 80.0, "NORMAL", "Y", 1.0, "SCREENING 1", -7.0, "SCREENING", "2014-03-10T12:31", -8.0]
["CDISCPILOT01", "LB", "01-701-1033", 67.0, "PROT", "Protein", "CHEMISTRY", "7.4", "g/dL", "6", "8", "74", 74.0, "g/L", 60.0, 80.0, "NORMAL", "", 4.0, "WEEK 2", 14.0, "TREATMENT", "2014-04-01T08:55", 15.0]
["CDISCPILOT01", "LB", "01-701-1033", 102.0, "PROT", "Protein", "CHEMISTRY", "7.2", "g/dL", "6", "8", "72", 72.0, "g/L", 60.0, 80.0, "NORMAL", "", 5.0, "WEEK 4", 28.0, "TREATMENT", "2014-04-14T10:38", 28.0]
["CDISCPILOT01", "LB", "01-701-1033", 34.0, "URATE", "Urate", "CHEMISTRY", "7.2", "mg/dL", "2.5", "7.5", "428.256", 428.256, "umol/L", 149.0, 446.0, "NORMAL", "Y", 1.0, "SCREENING 1", -7.0, "SCREENING", "2014-03-10T12:31", -8.0]
["CDISCPILOT01", "LB", "01-701-1033", 70.0, "URATE", "Urate", "CHEMISTRY", "6.9", "mg/dL", "2.5", "7.5", "410.412", 410.412, "umol/L", 149.0, 446.0, "NORMAL", "", 4.0, "WEEK 2", 14.0, "TREATMENT", "2014-04-01T08:55", 15.0]
["CDISCPILOT01", "LB", "01-701-1033", 105.0, "URATE", "Urate", "CHEMISTRY", "7.8", "mg/dL", "2.5", "7.5", "463.944", 463.944, "umol/L", 149.0, 446.0, "HIGH", "", 5.0, "WEEK 4", 28.0, "TREATMENT", "2014-04-14T10:38", 28.0]
["CDISCPILOT01", "LB", "01-701-1034", 1.0, "ALB", "Albumin", "CHEMISTRY", "4.3", "g/dL", "3.5", "4.6", "43", 43.0, "g/L", 35.0, 46.0, "NORMAL", "Y", 1.0, "SCREENING 1", -7.0, "SCREENING", "2014-06-24T15:30", -7.0]
["CDISCPILOT01", "LB", "01-701-1034", 39.0, "ALB", "Albumin", "CHEMISTRY", "4.2", "g/dL", "3.5", "4.6", "42", 42.0, "g/L", 35.0, 46.0, "NORMAL", "", 4.0, "WEEK 2", 14.0, "TREATMENT", "2014-07-15T09:25", 15.0]
["CDISCPILOT01", "LB", "01-701-1034", 75.0, "ALB", "Albumin", "CHEMISTRY", "4.1", "g/dL", "3.5", "4.6", "41", 41.0, "g/L", 35.0, 46.0, "NORMAL", "", 5.0, "WEEK 4", 28.0, "TREATMENT", "2014-07-29T08:40", 29.0]
["CDISCPILOT01", "LB", "01-701-1034", 106.0, "ALB", "Albumin", "CHEMISTRY", "3.8", "g/dL", "3.5", "4.6", "38", 38.0, "g/L", 35.0, 46.0, "NORMAL", "", 7.0, "WEEK 6", 42.0, "TREATMENT", "2014-08-11T13:15", 42.0]
["CDISCPILOT01", "LB", "01-701-1034", 137.0, "ALB", "Albumin", "CHEMISTRY", "4.1", "g/dL", "3.5", "4.6", "41", 41.0, "g/L", 35.0, 46.0, "NORMAL", "", 8.0, "WEEK 8", 56.0, "TREATMENT", "2014-08-26T09:57", 57.0]
["CDISCPILOT01", "LB", "01-701-1034", 167.0, "ALB", "Albumin", "CHEMISTRY", "3.9", "g/dL", "3.5", "4.6", "39", 39.0, "g/L", 35.0, 46.0, "NORMAL", "", 9.0, "WEEK 12", 84.0, "TREATMENT", "2014-09-25T15:40", 87.0]
["CDISCPILOT01", "LB", "01-701-1034", 202.0, "ALB", "Albumin", "CHEMISTRY", "3.9", "g/dL", "3.5", "4.6", "39", 39.0, "g/L", 35.0, 46.0, "NORMAL", "", 10.0, "WEEK 16", 112.0, "TREATMENT", "2014-10-21T09:52", 113.0]
["CDISCPILOT01", "LB", "01-701-1034", 233.0, "ALB", "Albumin", "CHEMISTRY", "3.9", "g/dL", "3.5", "4.6", "39", 39.0, "g/L", 35.0, 46.0, "NORMAL", "", 11.0, "WEEK 20", 140.0, "TREATMENT", "2014-11-18T12:23", 141.0]
["CDISCPILOT01", "LB", "01-701-1034", 264.0, "ALB", "Albumin", "CHEMISTRY", "4.0", "g/dL", "3.5", "4.6", "40", 40.0, "g/L", 35.0, 46.0, "NORMAL", "", 12.0, "WEEK 24", 168.0, "TREATMENT", "2014-12-17T14:27", 170.0]
["CDISCPILOT01", "LB", "01-701-1034", 300.0, "ALB", "Albumin", "CHEMISTRY", "4.1", "g/dL", "3.5", "4.6", "41", 41.0, "g/L", 35.0, 46.0, "NORMAL", "", 13.0, "WEEK 26", 182.0, "TREATMENT", "2014-12-30T09:50", 183.0]
["CDISCPILOT01", "LB", "01-701-1034", 2.0, "ALP", "Alkaline Phosphatase", "CHEMISTRY", "41", "U/L", "35", "115", "41", 41.0, "U/L", 35.0, 115.0, "NORMAL", "Y", 1.0, "SCREENING 1", -7.0, "SCREENING", "2014-06-24T15:30", -7.0]
["CDISCPILOT01", "LB", "01-701-1034", 40.0, "ALP", "Alkaline Phosphatase", "CHEMISTRY", "34", "U/L", "35", "115", "34", 34.0, "U/L", 35.0, 115.0, "LOW", "", 4.0, "WEEK 2", 14.0, "TREATMENT", "2014-07-15T09:25", 15.0]
["CDISCPILOT01", "LB", "01-701-1034", 76.0, "ALP", "Alkaline Phosphatase", "CHEMISTRY", "36", "U/L", "35", "115", "36", 36.0, "U/L", 35.0, 115.0, "NORMAL", "", 5.0, "WEEK 4", 28.0, "TREATMENT", "2014-07-29T08:40", 29.0]
["CDISCPILOT01", "LB", "01-701-1034", 107.0, "ALP", "Alkaline Phosphatase", "CHEMISTRY", "33", "U/L", "35", "115", "33", 33.0, "U/L", 35.0, 115.0, "LOW", "", 7.0, "WEEK 6", 42.0, "TREATMENT", "2014-08-11T13:15", 42.0]
["CDISCPILOT01", "LB", "01-701-1034", 138.0, "ALP", "Alkaline Phosphatase", "CHEMISTRY", "29", "U/L", "35", "115", "29", 29.0, "U/L", 35.0, 115.0, "LOW", "", 8.0, "WEEK 8", 56.0, "TREATMENT", "2014-08-26T09:57", 57.0]
["CDISCPILOT01", "LB", "01-701-1034", 168.0, "ALP", "Alkaline Phosphatase", "CHEMISTRY", "34", "U/L", "35", "115", "34", 34.0, "U/L", 35.0, 115.0, "LOW", "", 9.0, "WEEK 12", 84.0, "TREATMENT", "2014-09-25T15:40", 87.0]
["CDISCPILOT01", "LB", "01-701-1034", 203.0, "ALP", "Alkaline Phosphatase", "CHEMISTRY", "34", "U/L", "35", "115", "34", 34.0, "U/L", 35.0, 115.0, "LOW", "", 10.0, "WEEK 16", 112.0, "TREATMENT", "2014-10-21T09:52", 113.0]
["CDISCPILOT01", "LB", "01-701-1034", 234.0, "ALP", "Alkaline Phosphatase", "CHEMISTRY", "31", "U/L", "35", "115", "31", 31.0, "U/L", 35.0, 115.0, "LOW", "", 11.0, "WEEK 20", 140.0, "TREATMENT", "2014-11-18T12:23", 141.0]
["CDISCPILOT01", "LB", "01-701-1034", 265.0, "ALP", "Alkaline Phosphatase", "CHEMISTRY", "40", "U/L", "35", "115", "40", 40.0, "U/L", 35.0, 115.0, "NORMAL", "", 12.0, "WEEK 24", 168.0, "TREATMENT", "2014-12-17T14:27", 170.0]
["CDISCPILOT01", "LB", "01-701-1034", 301.0, "ALP", "Alkaline Phosphatase", "CHEMISTRY", "27", "U/L", "35", "115", "27", 27.0, "U/L", 35.0, 115.0, "LOW", "", 13.0, "WEEK 26", 182.0, "TREATMENT", "2014-12-30T09:50", 183.0]
["CDISCPILOT01", "LB", "01-701-1034", 3.0, "ALT", "Alanine Aminotransferase", "CHEMISTRY", "15", "U/L", "6", "32", "15", 15.0, "U/L", 6.0, 32.0, "NORMAL", "Y", 1.0, "SCREENING 1", -7.0, "SCREENING", "2014-06-24T15:30", -7.0]
["CDISCPILOT01", "LB", "01-701-1034", 41.0, "ALT", "Alanine Aminotransferase", "CHEMISTRY", "19", "U/L", "6", "32", "19", 19.0, "U/L", 6.0, 32.0, "NORMAL", "", 4.0, "WEEK 2", 14.0, "TREATMENT", "2014-07-15T09:25", 15.0]
["CDISCPILOT01", "LB", "01-701-1034", 77.0, "ALT", "Alanine Aminotransferase", "CHEMISTRY", "21", "U/L", "6", "32", "21", 21.0, "U/L", 6.0, 32.0, "NORMAL", "", 5.0, "WEEK 4", 28.0, "TREATMENT", "2014-07-29T08:40", 29.0]
["CDISCPILOT01", "LB", "01-701-1034", 108.0, "ALT", "Alanine Aminotransferase", "CHEMISTRY", "15", "U/L", "6", "32", "15", 15.0, "U/L", 6.0, 32.0, "NORMAL", "", 7.0, "WEEK 6", 42.0, "TREATMENT", "2014-08-11T13:15", 42.0]
["CDISCPILOT01", "LB", "01-701-1034", 139.0, "ALT", "Alanine Aminotransferase", "CHEMISTRY", "24", "U/L", "6", "32", "24", 24.0, "U/L", 6.0, 32.0, "NORMAL", "", 8.0, "WEEK 8", 56.0, "TREATMENT", "2014-08-26T09:57", 57.0]
["CDISCPILOT01", "LB", "01-701-1034", 169.0, "ALT", "Alanine Aminotransferase", "CHEMISTRY", "20", "U/L", "6", "32", "20", 20.0, "U/L", 6.0, 32.0, "NORMAL", "", 9.0, "WEEK 12", 84.0, "TREATMENT", "2014-09-25T15:40", 87.0]
["CDISCPILOT01", "LB", "01-701-1034", 204.0, "ALT", "Alanine Aminotransferase", "CHEMISTRY", "21", "U/L", "6", "32", "21", 21.0, "U/L", 6.0, 32.0, "NORMAL", "", 10.0, "WEEK 16", 112.0, "TREATMENT", "2014-10-21T09:52", 113.0]
["CDISCPILOT01", "LB", "01-701-1034", 235.0, "ALT", "Alanine Aminotransferase", "CHEMISTRY", "23", "U/L", "6", "32", "23", 23.0, "U/L", 6.0, 32.0, "NORMAL", "", 11.0, "WEEK 20", 140.0, "TREATMENT", "2014-11-18T12:23", 141.0]
["CDISCPILOT01", "LB", "01-701-1034", 266.0, "ALT", "Alanine Aminotransferase", "CHEMISTRY", "15", "U/L", "6", "32", "15", 15.0, "U/L", 6.0, 32.0, "NORMAL", "", 12.0, "WEEK 24", 168.0, "TREATMENT", "2014-12-17T14:27", 170.0]
["CDISCPILOT01", "LB", "01-701-1034", 302.0, "ALT", "Alanine Aminotransferase", "CHEMISTRY", "18", "U/L", "6", "32", "18", 18.0, "U/L", 6.0, 32.0, "NORMAL", "", 13.0, "WEEK 26", 182.0, "TREATMENT", "2014-12-30T09:50", 183.0]
["CDISCPILOT01", "LB", "01-701-1034", 5.0, "AST", "Aspartate Aminotransferase", "CHEMISTRY", "23", "U/L", "9", "34", "23", 23.0, "U/L", 9.0, 34.0, "NORMAL", "Y", 1.0, "SCREENING 1", -7.0, "SCREENING", "2014-06-24T15:30", -7.0]
["CDISCPILOT01", "LB", "01-701-1034", 42.0, "AST", "Aspartate Aminotransferase", "CHEMISTRY", "23", "U/L", "9", "34", "23", 23.0, "U/L", 9.0, 34.0, "NORMAL", "", 4.0, "WEEK 2", 14.0, "TREATMENT", "2014-07-15T09:25", 15.0]
["CDISCPILOT01", "LB", "01-701-1034", 79.0, "AST", "Aspartate Aminotransferase", "CHEMISTRY", "25", "U/L", "9", "34", "25", 25.0, "U/L", 9.0, 34.0, "NORMAL", "", 5.0, "WEEK 4", 28.0, "TREATMENT", "2014-07-29T08:40", 29.0]
["CDISCPILOT01", "LB", "01-701-1034", 110.0, "AST", "Aspartate Aminotransferase", "CHEMISTRY", "19", "U/L", "9", "34", "19", 19.0, "U/L", 9.0, 34.0, "NORMAL", "", 7.0, "WEEK 6", 42.0, "TREATMENT", "2014-08-11T13:15", 42.0]
["CDISCPILOT01", "LB", "01-701-1034", 140.0, "AST", "Aspartate Aminotransferase", "CHEMISTRY", "26", "U/L", "9", "34", "26", 26.0, "U/L", 9.0, 34.0, "NORMAL", "", 8.0, "WEEK 8", 56.0, "TREATMENT", "2014-08-26T09:57", 57.0]
["CDISCPILOT01", "LB", "01-701-1034", 170.0, "AST", "Aspartate Aminotransferase", "CHEMISTRY", "23", "U/L", "9", "34", "23", 23.0, "U/L", 9.0, 34.0, "NORMAL", "", 9.0, "WEEK 12", 84.0, "TREATMENT", "2014-09-25T15:40", 87.0]
["CDISCPILOT01", "LB", "01-701-1034", 205.0, "AST", "Aspartate Aminotransferase", "CHEMISTRY", "21", "U/L", "9", "34", "21", 21.0, "U/L", 9.0, 34.0, "NORMAL", "", 10.0, "WEEK 16", 112.0, "TREATMENT", "2014-10-21T09:52", 113.0]
["CDISCPILOT01", "LB", "01-701-1034", 236.0, "AST", "Aspartate Aminotransferase", "CHEMISTRY", "22", "U/L", "9", "34", "22", 22.0, "U/L", 9.0, 34.0, "NORMAL", "", 11.0, "WEEK 20", 140.0, "TREATMENT", "2014-11-18T12:23", 141.0]
["CDISCPILOT01", "LB", "01-701-1034", 267.0, "AST", "Aspartate Aminotransferase", "CHEMISTRY", "17", "U/L", "9", "34", "17", 17.0, "U/L", 9.0, 34.0, "NORMAL", "", 12.0, "WEEK 24", 168.0, "TREATMENT", "2014-12-17T14:27", 170.0]
["CDISCPILOT01", "LB", "01-701-1034", 304.0, "AST", "Aspartate Aminotransferase", "CHEMISTRY", "21", "U/L", "9", "34", "21", 21.0, "U/L", 9.0, 34.0, "NORMAL", "", 13.0, "WEEK 26", 182.0, "TREATMENT", "2014-12-30T09:50", 183.0]
["CDISCPILOT01", "LB", "01-701-1034", 7.0, "BILI", "Bilirubin", "CHEMISTRY", "0.6", "mg/dL", "0.2", "1.2", "10.26", 10.26, "umol/L", 3.0, 21.0, "NORMAL", "Y", 1.0, "SCREENING 1", -7.0, "SCREENING", "2014-06-24T15:30", -7.0]
["CDISCPILOT01", "LB", "01-701-1034", 44.0, "BILI", "Bilirubin", "CHEMISTRY", "0.4", "mg/dL", "0.2", "1.2", "6.84", 6.84, "umol/L", 3.0, 21.0, "NORMAL", "", 4.0, "WEEK 2", 14.0, "TREATMENT", "2014-07-15T09:25", 15.0]
["CDISCPILOT01", "LB", "01-701-1034", 81.0, "BILI", "Bilirubin", "CHEMISTRY", "0.4", "mg/dL", "0.2", "1.2", "6.84", 6.84, "umol/L", 3.0, 21.0, "NORMAL", "", 5.0, "WEEK 4", 28.0, "TREATMENT", "2014-07-29T08:40", 29.0]
["CDISCPILOT01", "LB", "01-701-1034", 112.0, "BILI", "Bilirubin", "CHEMISTRY", "0.4", "mg/dL", "0.2", "1.2", "6.84", 6.84, "umol/L", 3.0, 21.0, "NORMAL", "", 7.0, "WEEK 6", 42.0, "TREATMENT", "2014-08-11T13:15", 42.0]
["CDISCPILOT01", "LB", "01-701-1034", 142.0, "BILI", "Bilirubin", "CHEMISTRY", "0.5", "mg/dL", "0.2", "1.2", "8.55", 8.549999999999999, "umol/L", 3.0, 21.0, "NORMAL", "", 8.0, "WEEK 8", 56.0, "TREATMENT", "2014-08-26T09:57", 57.0]
["CDISCPILOT01", "LB", "01-701-1034", 172.0, "BILI", "Bilirubin", "CHEMISTRY", "0.5", "mg/dL", "0.2", "1.2", "8.55", 8.549999999999999, "umol/L", 3.0, 21.0, "NORMAL", "", 9.0, "WEEK 12", 84.0, "TREATMENT", "2014-09-25T15:40", 87.0]
["CDISCPILOT01", "LB", "01-701-1034", 207.0, "BILI", "Bilirubin", "CHEMISTRY", "0.4", "mg/dL", "0.2", "1.2", "6.84", 6.84, "umol/L", 3.0, 21.0, "NORMAL", "", 10.0, "WEEK 16", 112.0, "TREATMENT", "2014-10-21T09:52", 113.0]
["CDISCPILOT01", "LB", "01-701-1034", 238.0, "BILI", "Bilirubin", "CHEMISTRY", "0.3", "mg/dL", "0.2", "1.2", "5.13", 5.13, "umol/L", 3.0, 21.0, "NORMAL", "", 11.0, "WEEK 20", 140.0, "TREATMENT", "2014-11-18T12:23", 141.0]
["CDISCPILOT01", "LB", "01-701-1034", 269.0, "BILI", "Bilirubin", "CHEMISTRY", "0.4", "mg/dL", "0.2", "1.2", "6.84", 6.84, "umol/L", 3.0, 21.0, "NORMAL", "", 12.0, "WEEK 24", 168.0, "TREATMENT", "2014-12-17T14:27", 170.0]
["CDISCPILOT01", "LB", "01-701-1034", 306.0, "BILI", "Bilirubin", "CHEMISTRY", "0.4", "mg/dL", "0.2", "1.2", "6.84", 6.84, "umol/L", 3.0, 21.0, "NORMAL", "", 13.0, "WEEK 26", 182.0, "TREATMENT", "2014-12-30T09:50", 183.0]
["CDISCPILOT01", "LB", "01-701-1034", 8.0, "UREAN", "Urea Nitrogen", "CHEMISTRY", "12", "mg/dL", "4", "24", "4.284", 4.284, "mmol/L", 1.4, 8.6, "NORMAL", "Y", 1.0, "SCREENING 1", -7.0, "SCREENING", "2014-06-24T15:30", -7.0]
["CDISCPILOT01", "LB", "01-701-1034", 45.0, "UREAN", "Urea Nitrogen", "CHEMISTRY", "12", "mg/dL", "4", "24", "4.284", 4.284, "mmol/L", 1.4, 8.6, "NORMAL", "", 4.0, "WEEK 2", 14.0, "TREATMENT", "2014-07-15T09:25", 15.0]
["CDISCPILOT01", "LB", "01-701-1034", 82.0, "UREAN", "Urea Nitrogen", "CHEMISTRY", "12", "mg/dL", "4", "24", "4.284", 4.284, "mmol/L", 1.4, 8.6, "NORMAL", "", 5.0, "WEEK 4", 28.0, "TREATMENT", "2014-07-29T08:40", 29.0]
["CDISCPILOT01", "LB", "01-701-1034", 113.0, "UREAN", "Urea Nitrogen", "CHEMISTRY", "14", "mg/dL", "4", "24", "4.998", 4.997999999999999, "mmol/L", 1.4, 8.6, "NORMAL", "", 7.0, "WEEK 6", 42.0, "TREATMENT", "2014-08-11T13:15", 42.0]
["CDISCPILOT01", "LB", "01-701-1034", 143.0, "UREAN", "Urea Nitrogen", "CHEMISTRY", "12", "mg/dL", "4", "24", "4.284", 4.284, "mmol/L", 1.4, 8.6, "NORMAL", "", 8.0, "WEEK 8", 56.0, "TREATMENT", "2014-08-26T09:57", 57.0]
["CDISCPILOT01", "LB", "01-701-1034", 173.0, "UREAN", "Urea Nitrogen", "CHEMISTRY", "19", "mg/dL", "4", "24", "6.783", 6.7829999999999995, "mmol/L", 1.4, 8.6, "NORMAL", "", 9.0, "WEEK 12", 84.0, "TREATMENT", "2014-09-25T15:40", 87.0]
["CDISCPILOT01", "LB", "01-701-1034", 208.0, "UREAN", "Urea Nitrogen", "CHEMISTRY", "14", "mg/dL", "4", "24", "4.998", 4.997999999999999, "mmol/L", 1.4, 8.6, "NORMAL", "", 10.0, "WEEK 16", 112.0, "TREATMENT", "2014-10-21T09:52", 113.0]
["CDISCPILOT01", "LB", "01-701-1034", 239.0, "UREAN", "Urea Nitrogen", "CHEMISTRY", "16", "mg/dL", "4", "24", "5.712", 5.712, "mmol/L", 1.4, 8.6, "NORMAL", "", 11.0, "WEEK 20", 140.0, "TREATMENT", "2014-11-18T12:23", 141.0]
["CDISCPILOT01", "LB", "01-701-1034", 270.0, "UREAN", "Urea Nitrogen", "CHEMISTRY", "13", "mg/dL", "4", "24", "4.641", 4.641, "mmol/L", 1.4, 8.6, "NORMAL", "", 12.0, "WEEK 24", 168.0, "TREATMENT", "2014-12-17T14:27", 170.0]
["CDISCPILOT01", "LB", "01-701-1034", 307.0, "UREAN", "Urea Nitrogen", "CHEMISTRY", "11", "mg/dL", "4", "24", "3.927", 3.927, "mmol/L", 1.4, 8.6, "NORMAL", "", 13.0, "WEEK 26", 182.0, "TREATMENT", "2014-12-30T09:50", 183.0]
["CDISCPILOT01", "LB", "01-701-1034", 9.0, "CA", "Calcium", "CHEMISTRY", "10.2", "mg/dL", "8.4", "10.3", "2.5449", 2.5448999999999997, "mmol/L", 2.1, 2.57, "NORMAL", "Y", 1.0, "SCREENING 1", -7.0, "SCREENING", "2014-06-24T15:30", -7.0]
["CDISCPILOT01", "LB", "01-701-1034", 46.0, "CA", "Calcium", "CHEMISTRY", "10.3", "mg/dL", "8.4", "10.3", "2.56985", 2.5698499999999997, "mmol/L", 2.1, 2.57, "NORMAL", "", 4.0, "WEEK 2", 14.0, "TREATMENT", "2014-07-15T09:25", 15.0]
["CDISCPILOT01", "LB", "01-701-1034", 83.0, "CA", "Calcium", "CHEMISTRY", "9.8", "mg/dL", "8.4", "10.3", "2.4451", 2.4451, "mmol/L", 2.1, 2.57, "NORMAL", "", 5.0, "WEEK 4", 28.0, "TREATMENT", "2014-07-29T08:40", 29.0]
["CDISCPILOT01", "LB", "01-701-1034", 114.0, "CA", "Calcium", "CHEMISTRY", "9.4", "mg/dL", "8.4", "10.3", "2.3453", 2.3453, "mmol/L", 2.1, 2.57, "NORMAL", "", 7.0, "WEEK 6", 42.0, "TREATMENT", "2014-08-11T13:15", 42.0]
["CDISCPILOT01", "LB", "01-701-1034", 144.0, "CA", "Calcium", "CHEMISTRY", "10.0", "mg/dL", "8.4", "10.3", "2.495", 2.495, "mmol/L", 2.1, 2.57, "NORMAL", "", 8.0, "WEEK 8", 56.0, "TREATMENT", "2014-08-26T09:57", 57.0]
["CDISCPILOT01", "LB", "01-701-1034", 174.0, "CA", "Calcium", "CHEMISTRY", "9.7", "mg/dL", "8.4", "10.3", "2.42015", 2.42015, "mmol/L", 2.1, 2.57, "NORMAL", "", 9.0, "WEEK 12", 84.0, "TREATMENT", "2014-09-25T15:40", 87.0]
["CDISCPILOT01", "LB", "01-701-1034", 209.0, "CA", "Calcium", "CHEMISTRY", "9.6", "mg/dL", "8.4", "10.3", "2.3952", 2.3952, "mmol/L", 2.1, 2.57, "NORMAL", "", 10.0, "WEEK 16", 112.0, "TREATMENT", "2014-10-21T09:52", 113.0]
["CDISCPILOT01", "LB", "01-701-1034", 240.0, "CA", "Calcium", "CHEMISTRY", "9.6", "mg/dL", "8.4", "10.3", "2.3952", 2.3952, "mmol/L", 2.1, 2.57, "NORMAL", "", 11.0, "WEEK 20", 140.0, "TREATMENT", "2014-11-18T12:23", 141.0]
["CDISCPILOT01", "LB", "01-701-1034", 271.0, "CA", "Calcium", "CHEMISTRY", "10.0", "mg/dL", "8.4", "10.3", "2.495", 2.495, "mmol/L", 2.1, 2.57, "NORMAL", "", 12.0, "WEEK 24", 168.0, "TREATMENT", "2014-12-17T14:27", 170.0]
["CDISCPILOT01", "LB", "01-701-1034", 308.0, "CA", "Calcium", "CHEMISTRY", "9.6", "mg/dL", "8.4", "10.3", "2.3952", 2.3952, "mmol/L", 2.1, 2.57, "NORMAL", "", 13.0, "WEEK 26", 182.0, "TREATMENT", "2014-12-30T09:50", 183.0]
["CDISCPILOT01", "LB", "01-701-1034", 10.0, "CHOL", "Cholesterol", "CHEMISTRY", "298", "mg/dL", "156", "300", "7.70628", 7.70628, "mmol/L", 4.029999999999999, 7.76, "NORMAL", "Y", 1.0, "SCREENING 1", -7.0, "SCREENING", "2014-06-24T15:30", -7.0]
["CDISCPILOT01", "LB", "01-701-1034", 47.0, "CHOL", "Cholesterol", "CHEMISTRY", "271", "mg/dL", "156", "300", "7.00806", 7.0080599999999995, "mmol/L", 4.029999999999999, 7.76, "NORMAL", "", 4.0, "WEEK 2", 14.0, "TREATMENT", "2014-07-15T09:25", 15.0]
["CDISCPILOT01", "LB", "01-701-1034", 84.0, "CHOL", "Cholesterol", "CHEMISTRY", "284", "mg/dL", "156", "300", "7.34424", 7.34424, "mmol/L", 4.029999999999999, 7.76, "NORMAL", "", 5.0, "WEEK 4", 28.0, "TREATMENT", "2014-07-29T08:40", 29.0]
["CDISCPILOT01", "LB", "01-701-1034", 115.0, "CHOL", "Cholesterol", "CHEMISTRY", "223", "mg/dL", "156", "300", "5.76678", 5.76678, "mmol/L", 4.029999999999999, 7.76, "NORMAL", "", 7.0, "WEEK 6", 42.0, "TREATMENT", "2014-08-11T13:15", 42.0]
["CDISCPILOT01", "LB", "01-701-1034", 145.0, "CHOL", "Cholesterol", "CHEMISTRY", "291", "mg/dL", "156", "300", "7.52526", 7.525259999999999, "mmol/L", 4.029999999999999, 7.76, "NORMAL", "", 8.0, "WEEK 8", 56.0, "TREATMENT", "2014-08-26T09:57", 57.0]
["CDISCPILOT01", "LB", "01-701-1034", 175.0, "CHOL", "Cholesterol", "CHEMISTRY", "261", "mg/dL", "156", "300", "6.74946", 6.74946, "mmol/L", 4.029999999999999, 7.76, "NORMAL", "", 9.0, "WEEK 12", 84.0, "TREATMENT", "2014-09-25T15:40", 87.0]
["CDISCPILOT01", "LB", "01-701-1034", 210.0, "CHOL", "Cholesterol", "CHEMISTRY", "277", "mg/dL", "156", "300", "7.16322", 7.16322, "mmol/L", 4.029999999999999, 7.76, "NORMAL", "", 10.0, "WEEK 16", 112.0, "TREATMENT", "2014-10-21T09:52", 113.0]
["CDISCPILOT01", "LB", "01-701-1034", 241.0, "CHOL", "Cholesterol", "CHEMISTRY", "236", "mg/dL", "156", "300", "6.10296", 6.1029599999999995, "mmol/L", 4.029999999999999, 7.76, "NORMAL", "", 11.0, "WEEK 20", 140.0, "TREATMENT", "2014-11-18T12:23", 141.0]
["CDISCPILOT01", "LB", "01-701-1034", 272.0, "CHOL", "Cholesterol", "CHEMISTRY", "236", "mg/dL", "156", "300", "6.10296", 6.1029599999999995, "mmol/L", 4.029999999999999, 7.76, "NORMAL", "", 12.0, "WEEK 24", 168.0, "TREATMENT", "2014-12-17T14:27", 170.0]
["CDISCPILOT01", "LB", "01-701-1034", 309.0, "CHOL", "Cholesterol", "CHEMISTRY", "208", "mg/dL", "156", "300", "5.37888", 5.37888, "mmol/L", 4.029999999999999, 7.76, "NORMAL", "", 13.0, "WEEK 26", 182.0, "TREATMENT", "2014-12-30T09:50", 183.0]
["CDISCPILOT01", "LB", "01-701-1034", 11.0, "CK", "Creatine Kinase", "CHEMISTRY", "65", "U/L", "21", "169", "65", 65.0, "U/L", 21.0, 169.0, "NORMAL", "Y", 1.0, "SCREENING 1", -7.0, "SCREENING", "2014-06-24T15:30", -7.0]
["CDISCPILOT01", "LB", "01-701-1034", 48.0, "CK", "Creatine Kinase", "CHEMISTRY", "50", "U/L", "21", "169", "50", 50.0, "U/L", 21.0, 169.0, "NORMAL", "", 4.0, "WEEK 2", 14.0, "TREATMENT", "2014-07-15T09:25", 15.0]
["CDISCPILOT01", "LB", "01-701-1034", 85.0, "CK", "Creatine Kinase", "CHEMISTRY", "72", "U/L", "21", "169", "72", 72.0, "U/L", 21.0, 169.0, "NORMAL", "", 5.0, "WEEK 4", 28.0, "TREATMENT", "2014-07-29T08:40", 29.0]
["CDISCPILOT01", "LB", "01-701-1034", 116.0, "CK", "Creatine Kinase", "CHEMISTRY", "58", "U/L", "21", "169", "58", 58.0, "U/L", 21.0, 169.0, "NORMAL", "", 7.0, "WEEK 6", 42.0, "TREATMENT", "2014-08-11T13:15", 42.0]
["CDISCPILOT01", "LB", "01-701-1034", 146.0, "CK", "Creatine Kinase", "CHEMISTRY", "90", "U/L", "21", "169", "90", 90.0, "U/L", 21.0, 169.0, "NORMAL", "", 8.0, "WEEK 8", 56.0, "TREATMENT", "2014-08-26T09:57", 57.0]
["CDISCPILOT01", "LB", "01-701-1034", 176.0, "CK", "Creatine Kinase", "CHEMISTRY", "72", "U/L", "21", "169", "72", 72.0, "U/L", 21.0, 169.0, "NORMAL", "", 9.0, "WEEK 12", 84.0, "TREATMENT", "2014-09-25T15:40", 87.0]
["CDISCPILOT01", "LB", "01-701-1034", 211.0, "CK", "Creatine Kinase", "CHEMISTRY", "55", "U/L", "21", "169", "55", 55.0, "U/L", 21.0, 169.0, "NORMAL", "", 10.0, "WEEK 16", 112.0, "TREATMENT", "2014-10-21T09:52", 113.0]
["CDISCPILOT01", "LB", "01-701-1034", 242.0, "CK", "Creatine Kinase", "CHEMISTRY", "54", "U/L", "21", "169", "54", 54.0, "U/L", 21.0, 169.0, "NORMAL", "", 11.0, "WEEK 20", 140.0, "TREATMENT", "2014-11-18T12:23", 141.0]
["CDISCPILOT01", "LB", "01-701-1034", 273.0, "CK", "Creatine Kinase", "CHEMISTRY", "57", "U/L", "21", "169", "57", 57.0, "U/L", 21.0, 169.0, "NORMAL", "", 12.0, "WEEK 24", 168.0, "TREATMENT", "2014-12-17T14:27", 170.0]
["CDISCPILOT01", "LB", "01-701-1034", 310.0, "CK", "Creatine Kinase", "CHEMISTRY", "54", "U/L", "21", "169", "54", 54.0, "U/L", 21.0, 169.0, "NORMAL", "", 13.0, "WEEK 26", 182.0, "TREATMENT", "2014-12-30T09:50", 183.0]
["CDISCPILOT01", "LB", "01-701-1034", 12.0, "CL", "Chloride", "CHEMISTRY", "100", "mEq/L", "94", "112", "100", 100.0, "mmol/L", 94.0, 112.0, "NORMAL", "Y", 1.0, "SCREENING 1", -7.0, "SCREENING", "2014-06-24T15:30", -7.0]
["CDISCPILOT01", "LB", "01-701-1034", 49.0, "CL", "Chloride", "CHEMISTRY", "103", "mEq/L", "94", "112", "103", 103.0, "mmol/L", 94.0, 112.0, "NORMAL", "", 4.0, "WEEK 2", 14.0, "TREATMENT", "2014-07-15T09:25", 15.0]
["CDISCPILOT01", "LB", "01-701-1034", 86.0, "CL", "Chloride", "CHEMISTRY", "102", "mEq/L", "94", "112", "102", 102.0, "mmol/L", 94.0, 112.0, "NORMAL", "", 5.0, "WEEK 4", 28.0, "TREATMENT", "2014-07-29T08:40", 29.0]
["CDISCPILOT01", "LB", "01-701-1034", 117.0, "CL", "Chloride", "CHEMISTRY", "104", "mEq/L", "94", "112", "104", 104.0, "mmol/L", 94.0, 112.0, "NORMAL", "", 7.0, "WEEK 6", 42.0, "TREATMENT", "2014-08-11T13:15", 42.0]
["CDISCPILOT01", "LB", "01-701-1034", 147.0, "CL", "Chloride", "CHEMISTRY", "104", "mEq/L", "94", "112", "104", 104.0, "mmol/L", 94.0, 112.0, "NORMAL", "", 8.0, "WEEK 8", 56.0, "TREATMENT", "2014-08-26T09:57", 57.0]
["CDISCPILOT01", "LB", "01-701-1034", 177.0, "CL", "Chloride", "CHEMISTRY", "103", "mEq/L", "94", "112", "103", 103.0, "mmol/L", 94.0, 112.0, "NORMAL", "", 9.0, "WEEK 12", 84.0, "TREATMENT", "2014-09-25T15:40", 87.0]
["CDISCPILOT01", "LB", "01-701-1034", 212.0, "CL", "Chloride", "CHEMISTRY", "102", "mEq/L", "94", "112", "102", 102.0, "mmol/L", 94.0, 112.0, "NORMAL", "", 10.0, "WEEK 16", 112.0, "TREATMENT", "2014-10-21T09:52", 113.0]
["CDISCPILOT01", "LB", "01-701-1034", 243.0, "CL", "Chloride", "CHEMISTRY", "102", "mEq/L", "94", "112", "102", 102.0, "mmol/L", 94.0, 112.0, "NORMAL", "", 11.0, "WEEK 20", 140.0, "TREATMENT", "2014-11-18T12:23", 141.0]
["CDISCPILOT01", "LB", "01-701-1034", 274.0, "CL", "Chloride", "CHEMISTRY", "98", "mEq/L", "94", "112", "98", 98.0, "mmol/L", 94.0, 112.0, "NORMAL", "", 12.0, "WEEK 24", 168.0, "TREATMENT", "2014-12-17T14:27", 170.0]
["CDISCPILOT01", "LB", "01-701-1034", 311.0, "CL", "Chloride", "CHEMISTRY", "100", "mEq/L", "94", "112", "100", 100.0, "mmol/L", 94.0, 112.0, "NORMAL", "", 13.0, "WEEK 26", 182.0, "TREATMENT", "2014-12-30T09:50", 183.0]
["CDISCPILOT01", "LB", "01-701-1034", 14.0, "CREAT", "Creatinine", "CHEMISTRY", "1.0", "mg/dL", "0.7", "1.4", "88.4", 88.39999999999999, "umol/L", 62.0, 124.0, "NORMAL", "Y", 1.0, "SCREENING 1", -7.0, "SCREENING", "2014-06-24T15:30", -7.0]
["CDISCPILOT01", "LB", "01-701-1034", 51.0, "CREAT", "Creatinine", "CHEMISTRY", "1.0", "mg/dL", "0.7", "1.4", "88.4", 88.39999999999999, "umol/L", 62.0, 124.0, "NORMAL", "", 4.0, "WEEK 2", 14.0, "TREATMENT", "2014-07-15T09:25", 15.0]
["CDISCPILOT01", "LB", "01-701-1034", 87.0, "CREAT", "Creatinine", "CHEMISTRY", "0.9", "mg/dL", "0.7", "1.4", "79.56", 79.55999999999999, "umol/L", 62.0, 124.0, "NORMAL", "", 5.0, "WEEK 4", 28.0, "TREATMENT", "2014-07-29T08:40", 29.0]
["CDISCPILOT01", "LB", "01-701-1034", 118.0, "CREAT", "Creatinine", "CHEMISTRY", "0.9", "mg/dL", "0.7", "1.4", "79.56", 79.55999999999999, "umol/L", 62.0, 124.0, "NORMAL", "", 7.0, "WEEK 6", 42.0, "TREATMENT", "2014-08-11T13:15", 42.0]
["CDISCPILOT01", "LB", "01-701-1034", 148.0, "CREAT", "Creatinine", "CHEMISTRY", "0.9", "mg/dL", "0.7", "1.4", "79.56", 79.55999999999999, "umol/L", 62.0, 124.0, "NORMAL", "", 8.0, "WEEK 8", 56.0, "TREATMENT", "2014-08-26T09:57", 57.0]
["CDISCPILOT01", "LB", "01-701-1034", 179.0, "CREAT", "Creatinine", "CHEMISTRY", "1.1", "mg/dL", "0.7", "1.4", "97.24", 97.24, "umol/L", 62.0, 124.0, "NORMAL", "", 9.0, "WEEK 12", 84.0, "TREATMENT", "2014-09-25T15:40", 87.0]
["CDISCPILOT01", "LB", "01-701-1034", 213.0, "CREAT", "Creatinine", "CHEMISTRY", "1.1", "mg/dL", "0.7", "1.4", "97.24", 97.24, "umol/L", 62.0, 124.0, "NORMAL", "", 10.0, "WEEK 16", 112.0, "TREATMENT", "2014-10-21T09:52", 113.0]
["CDISCPILOT01", "LB", "01-701-1034", 244.0, "CREAT", "Creatinine", "CHEMISTRY", "0.9", "mg/dL", "0.7", "1.4", "79.56", 79.55999999999999, "umol/L", 62.0, 124.0, "NORMAL", "", 11.0, "WEEK 20", 140.0, "TREATMENT", "2014-11-18T12:23", 141.0]
["CDISCPILOT01", "LB", "01-701-1034", 276.0, "CREAT", "Creatinine", "CHEMISTRY", "0.9", "mg/dL", "0.7", "1.4", "79.56", 79.55999999999999, "umol/L", 62.0, 124.0, "NORMAL", "", 12.0, "WEEK 24", 168.0, "TREATMENT", "2014-12-17T14:27", 170.0]
["CDISCPILOT01", "LB", "01-701-1034", 312.0, "CREAT", "Creatinine", "CHEMISTRY", "0.8", "mg/dL", "0.7", "1.4", "70.72", 70.72, "umol/L", 62.0, 124.0, "NORMAL", "", 13.0, "WEEK 26", 182.0, "TREATMENT", "2014-12-30T09:50", 183.0]
["CDISCPILOT01", "LB", "01-701-1034", 16.0, "GGT", "Gamma Glutamyl Transferase", "CHEMISTRY", "20", "U/L", "5", "50", "20", 20.0, "U/L", 5.0, 50.0, "NORMAL", "Y", 1.0, "SCREENING 1", -7.0, "SCREENING", "2014-06-24T15:30", -7.0]
["CDISCPILOT01", "LB", "01-701-1034", 53.0, "GGT", "Gamma Glutamyl Transferase", "CHEMISTRY", "19", "U/L", "5", "50", "19", 19.0, "U/L", 5.0, 50.0, "NORMAL", "", 4.0, "WEEK 2", 14.0, "TREATMENT", "2014-07-15T09:25", 15.0]
["CDISCPILOT01", "LB", "01-701-1034", 89.0, "GGT", "Gamma Glutamyl Transferase", "CHEMISTRY", "21", "U/L", "5", "50", "21", 21.0, "U/L", 5.0, 50.0, "NORMAL", "", 5.0, "WEEK 4", 28.0, "TREATMENT", "2014-07-29T08:40", 29.0]
["CDISCPILOT01", "LB", "01-701-1034", 120.0, "GGT", "Gamma Glutamyl Transferase", "CHEMISTRY", "15", "U/L", "5", "50", "15", 15.0, "U/L", 5.0, 50.0, "NORMAL", "", 7.0, "WEEK 6", 42.0, "TREATMENT", "2014-08-11T13:15", 42.0]
["CDISCPILOT01", "LB", "01-701-1034", 150.0, "GGT", "Gamma Glutamyl Transferase", "CHEMISTRY", "17", "U/L", "5", "50", "17", 17.0, "U/L", 5.0, 50.0, "NORMAL", "", 8.0, "WEEK 8", 56.0, "TREATMENT", "2014-08-26T09:57", 57.0]
["CDISCPILOT01", "LB", "01-701-1034", 181.0, "GGT", "Gamma Glutamyl Transferase", "CHEMISTRY", "14", "U/L", "5", "50", "14", 14.0, "U/L", 5.0, 50.0, "NORMAL", "", 9.0, "WEEK 12", 84.0, "TREATMENT", "2014-09-25T15:40", 87.0]
["CDISCPILOT01", "LB", "01-701-1034", 215.0, "GGT", "Gamma Glutamyl Transferase", "CHEMISTRY", "18", "U/L", "5", "50", "18", 18.0, "U/L", 5.0, 50.0, "NORMAL", "", 10.0, "WEEK 16", 112.0, "TREATMENT", "2014-10-21T09:52", 113.0]
["CDISCPILOT01", "LB", "01-701-1034", 246.0, "GGT", "Gamma Glutamyl Transferase", "CHEMISTRY", "21", "U/L", "5", "50", "21", 21.0, "U/L", 5.0, 50.0, "NORMAL", "", 11.0, "WEEK 20", 140.0, "TREATMENT", "2014-11-18T12:23", 141.0]
["CDISCPILOT01", "LB", "01-701-1034", 278.0, "GGT", "Gamma Glutamyl Transferase", "CHEMISTRY", "17", "U/L", "5", "50", "17", 17.0, "U/L", 5.0, 50.0, "NORMAL", "", 12.0, "WEEK 24", 168.0, "TREATMENT", "2014-12-17T14:27", 170.0]
["CDISCPILOT01", "LB", "01-701-1034", 314.0, "GGT", "Gamma Glutamyl Transferase", "CHEMISTRY", "15", "U/L", "5", "50", "15", 15.0, "U/L", 5.0, 50.0, "NORMAL", "", 13.0, "WEEK 26", 182.0, "TREATMENT", "2014-12-30T09:50", 183.0]
["CDISCPILOT01", "LB", "01-701-1034", 17.0, "GLUC", "Glucose", "CHEMISTRY", "81", "mg/dL", "50", "250", "4.49631", 4.496309999999999, "mmol/L", 2.8, 13.899999999999999, "NORMAL", "Y", 1.0, "SCREENING 1", -7.0, "SCREENING", "2014-06-24T15:30", -7.0]
["CDISCPILOT01", "LB", "01-701-1034", 54.0, "GLUC", "Glucose", "CHEMISTRY", "85", "mg/dL", "50", "250", "4.71835", 4.71835, "mmol/L", 2.8, 13.899999999999999, "NORMAL", "", 4.0, "WEEK 2", 14.0, "TREATMENT", "2014-07-15T09:25", 15.0]
["CDISCPILOT01", "LB", "01-701-1034", 90.0, "GLUC", "Glucose", "CHEMISTRY", "83", "mg/dL", "50", "250", "4.60733", 4.607329999999999, "mmol/L", 2.8, 13.899999999999999, "NORMAL", "", 5.0, "WEEK 4", 28.0, "TREATMENT", "2014-07-29T08:40", 29.0]
["CDISCPILOT01", "LB", "01-701-1034", 121.0, "GLUC", "Glucose", "CHEMISTRY", "98", "mg/dL", "50", "250", "5.43998", 5.439979999999999, "mmol/L", 2.8, 13.899999999999999, "NORMAL", "", 7.0, "WEEK 6", 42.0, "TREATMENT", "2014-08-11T13:15", 42.0]
["CDISCPILOT01", "LB", "01-701-1034", 151.0, "GLUC", "Glucose", "CHEMISTRY", "86", "mg/dL", "50", "250", "4.77386", 4.77386, "mmol/L", 2.8, 13.899999999999999, "NORMAL", "", 8.0, "WEEK 8", 56.0, "TREATMENT", "2014-08-26T09:57", 57.0]
["CDISCPILOT01", "LB", "01-701-1034", 182.0, "GLUC", "Glucose", "CHEMISTRY", "91", "mg/dL", "50", "250", "5.05141", 5.05141, "mmol/L", 2.8, 13.899999999999999, "NORMAL", "", 9.0, "WEEK 12", 84.0, "TREATMENT", "2014-09-25T15:40", 87.0]
["CDISCPILOT01", "LB", "01-701-1034", 216.0, "GLUC", "Glucose", "CHEMISTRY", "92", "mg/dL", "50", "250", "5.10692", 5.10692, "mmol/L", 2.8, 13.899999999999999, "NORMAL", "", 10.0, "WEEK 16", 112.0, "TREATMENT", "2014-10-21T09:52", 113.0]
["CDISCPILOT01", "LB", "01-701-1034", 247.0, "GLUC", "Glucose", "CHEMISTRY", "87", "mg/dL", "50", "250", "4.82937", 4.82937, "mmol/L", 2.8, 13.899999999999999, "NORMAL", "", 11.0, "WEEK 20", 140.0, "TREATMENT", "2014-11-18T12:23", 141.0]
["CDISCPILOT01", "LB", "01-701-1034", 279.0, "GLUC", "Glucose", "CHEMISTRY", "92", "mg/dL", "50", "250", "5.10692", 5.10692, "mmol/L", 2.8, 13.899999999999999, "NORMAL", "", 12.0, "WEEK 24", 168.0, "TREATMENT", "2014-12-17T14:27", 170.0]
["CDISCPILOT01", "LB", "01-701-1034", 315.0, "GLUC", "Glucose", "CHEMISTRY", "86", "mg/dL", "50", "250", "4.77386", 4.77386, "mmol/L", 2.8, 13.899999999999999, "NORMAL", "", 13.0, "WEEK 26", 182.0, "TREATMENT", "2014-12-30T09:50", 183.0]
["CDISCPILOT01", "LB", "01-701-1034", 20.0, "K", "Potassium", "CHEMISTRY", "4.4", "mEq/L", "3.4", "5.4", "4.4", 4.3999999999999995, "mmol/L", 3.4, 5.3999999999999995, "NORMAL", "Y", 1.0, "SCREENING 1", -7.0, "SCREENING", "2014-06-24T15:30", -7.0]
["CDISCPILOT01", "LB", "01-701-1034", 57.0, "K", "Potassium", "CHEMISTRY", "4.6", "mEq/L", "3.4", "5.4", "4.6", 4.6, "mmol/L", 3.4, 5.3999999999999995, "NORMAL", "", 4.0, "WEEK 2", 14.0, "TREATMENT", "2014-07-15T09:25", 15.0]
["CDISCPILOT01", "LB", "01-701-1034", 93.0, "K", "Potassium", "CHEMISTRY", "4.4", "mEq/L", "3.4", "5.4", "4.4", 4.3999999999999995, "mmol/L", 3.4, 5.3999999999999995, "NORMAL", "", 5.0, "WEEK 4", 28.0, "TREATMENT", "2014-07-29T08:40", 29.0]
["CDISCPILOT01", "LB", "01-701-1034", 124.0, "K", "Potassium", "CHEMISTRY", "4.1", "mEq/L", "3.4", "5.4", "4.1", 4.1, "mmol/L", 3.4, 5.3999999999999995, "NORMAL", "", 7.0, "WEEK 6", 42.0, "TREATMENT", "2014-08-11T13:15", 42.0]
["CDISCPILOT01", "LB", "01-701-1034", 154.0, "K", "Potassium", "CHEMISTRY", "4.8", "mEq/L", "3.4", "5.4", "4.8", 4.8, "mmol/L", 3.4, 5.3999999999999995, "NORMAL", "", 8.0, "WEEK 8", 56.0, "TREATMENT", "2014-08-26T09:57", 57.0]
["CDISCPILOT01", "LB", "01-701-1034", 185.0, "K", "Potassium", "CHEMISTRY", "4.2", "mEq/L", "3.4", "5.4", "4.2", 4.199999999999999, "mmol/L", 3.4, 5.3999999999999995, "NORMAL", "", 9.0, "WEEK 12", 84.0, "TREATMENT", "2014-09-25T15:40", 87.0]
["CDISCPILOT01", "LB", "01-701-1034", 219.0, "K", "Potassium", "CHEMISTRY", "4.7", "mEq/L", "3.4", "5.4", "4.7", 4.699999999999999, "mmol/L", 3.4, 5.3999999999999995, "NORMAL", "", 10.0, "WEEK 16", 112.0, "TREATMENT", "2014-10-21T09:52", 113.0]
["CDISCPILOT01", "LB", "01-701-1034", 250.0, "K", "Potassium", "CHEMISTRY", "4.5", "mEq/L", "3.4", "5.4", "4.5", 4.5, "mmol/L", 3.4, 5.3999999999999995, "NORMAL", "", 11.0, "WEEK 20", 140.0, "TREATMENT", "2014-11-18T12:23", 141.0]
["CDISCPILOT01", "LB", "01-701-1034", 282.0, "K", "Potassium", "CHEMISTRY", "4.5", "mEq/L", "3.4", "5.4", "4.5", 4.5, "mmol/L", 3.4, 5.3999999999999995, "NORMAL", "", 12.0, "WEEK 24", 168.0, "TREATMENT", "2014-12-17T14:27", 170.0]
["CDISCPILOT01", "LB", "01-701-1034", 318.0, "K", "Potassium", "CHEMISTRY", "4.2", "mEq/L", "3.4", "5.4", "4.2", 4.199999999999999, "mmol/L", 3.4, 5.3999999999999995, "NORMAL", "", 13.0, "WEEK 26", 182.0, "TREATMENT", "2014-12-30T09:50", 183.0]
["CDISCPILOT01", "LB", "01-701-1034", 27.0, "SODIUM", "Sodium", "CHEMISTRY", "138", "mEq/L", "135", "145", "138", 138.0, "mmol/L", 135.0, 145.0, "NORMAL", "Y", 1.0, "SCREENING 1", -7.0, "SCREENING", "2014-06-24T15:30", -7.0]
["CDISCPILOT01", "LB", "01-701-1034", 65.0, "SODIUM", "Sodium", "CHEMISTRY", "140", "mEq/L", "135", "145", "140", 140.0, "mmol/L", 135.0, 145.0, "NORMAL", "", 4.0, "WEEK 2", 14.0, "TREATMENT", "2014-07-15T09:25", 15.0]
["CDISCPILOT01", "LB", "01-701-1034", 99.0, "SODIUM", "Sodium", "CHEMISTRY", "138", "mEq/L", "135", "145", "138", 138.0, "mmol/L", 135.0, 145.0, "NORMAL", "", 5.0, "WEEK 4", 28.0, "TREATMENT", "2014-07-29T08:40", 29.0]
["CDISCPILOT01", "LB", "01-701-1034", 130.0, "SODIUM", "Sodium", "CHEMISTRY", "143", "mEq/L", "135", "145", "143", 143.0, "mmol/L", 135.0, 145.0, "NORMAL", "", 7.0, "WEEK 6", 42.0, "TREATMENT", "2014-08-11T13:15", 42.0]
["CDISCPILOT01", "LB", "01-701-1034", 160.0, "SODIUM", "Sodium", "CHEMISTRY", "139", "mEq/L", "135", "145", "139", 139.0, "mmol/L", 135.0, 145.0, "NORMAL", "", 8.0, "WEEK 8", 56.0, "TREATMENT", "2014-08-26T09:57", 57.0]
["CDISCPILOT01", "LB", "01-701-1034", 192.0, "SODIUM", "Sodium", "CHEMISTRY", "138", "mEq/L", "135", "145", "138", 138.0, "mmol/L", 135.0, 145.0, "NORMAL", "", 9.0, "WEEK 12", 84.0, "TREATMENT", "2014-09-25T15:40", 87.0]
["CDISCPILOT01", "LB", "01-701-1034", 226.0, "SODIUM", "Sodium", "CHEMISTRY", "139", "mEq/L", "135", "145", "139", 139.0, "mmol/L", 135.0, 145.0, "NORMAL", "", 10.0, "WEEK 16", 112.0, "TREATMENT", "2014-10-21T09:52", 113.0]
["CDISCPILOT01", "LB", "01-701-1034", 257.0, "SODIUM", "Sodium", "CHEMISTRY", "138", "mEq/L", "135", "145", "138", 138.0, "mmol/L", 135.0, 145.0, "NORMAL", "", 11.0, "WEEK 20", 140.0, "TREATMENT", "2014-11-18T12:23", 141.0]
["CDISCPILOT01", "LB", "01-701-1034", 290.0, "SODIUM", "Sodium", "CHEMISTRY", "134", "mEq/L", "135", "145", "134", 134.0, "mmol/L", 135.0, 145.0, "LOW", "", 12.0, "WEEK 24", 168.0, "TREATMENT", "2014-12-17T14:27", 170.0]
["CDISCPILOT01", "LB", "01-701-1034", 324.0, "SODIUM", "Sodium", "CHEMISTRY", "134", "mEq/L", "135", "145", "134", 134.0, "mmol/L", 135.0, 145.0, "LOW", "", 13.0, "WEEK 26", 182.0, "TREATMENT", "2014-12-30T09:50", 183.0]
["CDISCPILOT01", "LB", "01-701-1034", 29.0, "PHOS", "Phosphate", "CHEMISTRY", "4.2", "mg/dL", "2.2", "5.1", "1.35618", 1.35618, "mmol/L", 0.71, 1.65, "NORMAL", "Y", 1.0, "SCREENING 1", -7.0, "SCREENING", "2014-06-24T15:30", -7.0]
["CDISCPILOT01", "LB", "01-701-1034", 67.0, "PHOS", "Phosphate", "CHEMISTRY", "4.3", "mg/dL", "2.2", "5.1", "1.38847", 1.38847, "mmol/L", 0.71, 1.65, "NORMAL", "", 4.0, "WEEK 2", 14.0, "TREATMENT", "2014-07-15T09:25", 15.0]
["CDISCPILOT01", "LB", "01-701-1034", 100.0, "PHOS", "Phosphate", "CHEMISTRY", "3.7", "mg/dL", "2.2", "5.1", "1.19473", 1.19473, "mmol/L", 0.71, 1.65, "NORMAL", "", 5.0, "WEEK 4", 28.0, "TREATMENT", "2014-07-29T08:40", 29.0]
["CDISCPILOT01", "LB", "01-701-1034", 131.0, "PHOS", "Phosphate", "CHEMISTRY", "3.6", "mg/dL", "2.2", "5.1", "1.16244", 1.16244, "mmol/L", 0.71, 1.65, "NORMAL", "", 7.0, "WEEK 6", 42.0, "TREATMENT", "2014-08-11T13:15", 42.0]
["CDISCPILOT01", "LB", "01-701-1034", 161.0, "PHOS", "Phosphate", "CHEMISTRY", "4.0", "mg/dL", "2.2", "5.1", "1.2916", 1.2916, "mmol/L", 0.71, 1.65, "NORMAL", "", 8.0, "WEEK 8", 56.0, "TREATMENT", "2014-08-26T09:57", 57.0]
["CDISCPILOT01", "LB", "01-701-1034", 194.0, "PHOS", "Phosphate", "CHEMISTRY", "4.7", "mg/dL", "2.2", "5.1", "1.51763", 1.51763, "mmol/L", 0.71, 1.65, "NORMAL", "", 9.0, "WEEK 12", 84.0, "TREATMENT", "2014-09-25T15:40", 87.0]
["CDISCPILOT01", "LB", "01-701-1034", 227.0, "PHOS", "Phosphate", "CHEMISTRY", "3.8", "mg/dL", "2.2", "5.1", "1.22702", 1.22702, "mmol/L", 0.71, 1.65, "NORMAL", "", 10.0, "WEEK 16", 112.0, "TREATMENT", "2014-10-21T09:52", 113.0]
["CDISCPILOT01", "LB", "01-701-1034", 258.0, "PHOS", "Phosphate", "CHEMISTRY", "4.1", "mg/dL", "2.2", "5.1", "1.32389", 1.32389, "mmol/L", 0.71, 1.65, "NORMAL", "", 11.0, "WEEK 20", 140.0, "TREATMENT", "2014-11-18T12:23", 141.0]
["CDISCPILOT01", "LB", "01-701-1034", 292.0, "PHOS", "Phosphate", "CHEMISTRY", "4.5", "mg/dL", "2.2", "5.1", "1.45305", 1.45305, "mmol/L", 0.71, 1.65, "NORMAL", "", 12.0, "WEEK 24", 168.0, "TREATMENT", "2014-12-17T14:27", 170.0]
["CDISCPILOT01", "LB", "01-701-1034", 325.0, "PHOS", "Phosphate", "CHEMISTRY", "3.8", "mg/dL", "2.2", "5.1", "1.22702", 1.22702, "mmol/L", 0.71, 1.65, "NORMAL", "", 13.0, "WEEK 26", 182.0, "TREATMENT", "2014-12-30T09:50", 183.0]
["CDISCPILOT01", "LB", "01-701-1034", 31.0, "PROT", "Protein", "CHEMISTRY", "7.5", "g/dL", "6", "8", "75", 75.0, "g/L", 60.0, 80.0, "NORMAL", "Y", 1.0, "SCREENING 1", -7.0, "SCREENING", "2014-06-24T15:30", -7.0]
["CDISCPILOT01", "LB", "01-701-1034", 69.0, "PROT", "Protein", "CHEMISTRY", "7.4", "g/dL", "6", "8", "74", 74.0, "g/L", 60.0, 80.0, "NORMAL", "", 4.0, "WEEK 2", 14.0, "TREATMENT", "2014-07-15T09:25", 15.0]
["CDISCPILOT01", "LB", "01-701-1034", 102.0, "PROT", "Protein", "CHEMISTRY", "7.1", "g/dL", "6", "8", "71", 71.0, "g/L", 60.0, 80.0, "NORMAL", "", 5.0, "WEEK 4", 28.0, "TREATMENT", "2014-07-29T08:40", 29.0]
["CDISCPILOT01", "LB", "01-701-1034", 133.0, "PROT", "Protein", "CHEMISTRY", "6.9", "g/dL", "6", "8", "69", 69.0, "g/L", 60.0, 80.0, "NORMAL", "", 7.0, "WEEK 6", 42.0, "TREATMENT", "2014-08-11T13:15", 42.0]
["CDISCPILOT01", "LB", "01-701-1034", 163.0, "PROT", "Protein", "CHEMISTRY", "7.4", "g/dL", "6", "8", "74", 74.0, "g/L", 60.0, 80.0, "NORMAL", "", 8.0, "WEEK 8", 56.0, "TREATMENT", "2014-08-26T09:57", 57.0]
["CDISCPILOT01", "LB", "01-701-1034", 196.0, "PROT", "Protein", "CHEMISTRY", "7.0", "g/dL", "6", "8", "70", 70.0, "g/L", 60.0, 80.0, "NORMAL", "", 9.0, "WEEK 12", 84.0, "TREATMENT", "2014-09-25T15:40", 87.0]
["CDISCPILOT01", "LB", "01-701-1034", 229.0, "PROT", "Protein", "CHEMISTRY", "6.9", "g/dL", "6", "8", "69", 69.0, "g/L", 60.0, 80.0, "NORMAL", "", 10.0, "WEEK 16", 112.0, "TREATMENT", "2014-10-21T09:52", 113.0]
["CDISCPILOT01", "LB", "01-701-1034", 260.0, "PROT", "Protein", "CHEMISTRY", "7.0", "g/dL", "6", "8", "70", 70.0, "g/L", 60.0, 80.0, "NORMAL", "", 11.0, "WEEK 20", 140.0, "TREATMENT", "2014-11-18T12:23", 141.0]
["CDISCPILOT01", "LB", "01-701-1034", 294.0, "PROT", "Protein", "CHEMISTRY", "7.2", "g/dL", "6", "8", "72", 72.0, "g/L", 60.0, 80.0, "NORMAL", "", 12.0, "WEEK 24", 168.0, "TREATMENT", "2014-12-17T14:27", 170.0]
["CDISCPILOT01", "LB", "01-701-1034", 327.0, "PROT", "Protein", "CHEMISTRY", "6.9", "g/dL", "6", "8", "69", 69.0, "g/L", 60.0, 80.0, "NORMAL", "", 13.0, "WEEK 26", 182.0, "TREATMENT", "2014-12-30T09:50", 183.0]
["CDISCPILOT01", "LB", "01-701-1034", 35.0, "URATE", "Urate", "CHEMISTRY", "5.2", "mg/dL", "2.5", "7.5", "309.296", 309.296, "umol/L", 149.0, 446.0, "NORMAL", "Y", 1.0, "SCREENING 1", -7.0, "SCREENING", "2014-06-24T15:30", -7.0]
["CDISCPILOT01", "LB", "01-701-1034", 72.0, "URATE", "Urate", "CHEMISTRY", "5.8", "mg/dL", "2.5", "7.5", "344.984", 344.984, "umol/L", 149.0, 446.0, "NORMAL", "", 4.0, "WEEK 2", 14.0, "TREATMENT", "2014-07-15T09:25", 15.0]
["CDISCPILOT01", "LB", "01-701-1034", 104.0, "URATE", "Urate", "CHEMISTRY", "5.9", "mg/dL", "2.5", "7.5", "350.932", 350.932, "umol/L", 149.0, 446.0, "NORMAL", "", 5.0, "WEEK 4", 28.0, "TREATMENT", "2014-07-29T08:40", 29.0]
["CDISCPILOT01", "LB", "01-701-1034", 135.0, "URATE", "Urate", "CHEMISTRY", "5.4", "mg/dL", "2.5", "7.5", "321.192", 321.192, "umol/L", 149.0, 446.0, "NORMAL", "", 7.0, "WEEK 6", 42.0, "TREATMENT", "2014-08-11T13:15", 42.0]
["CDISCPILOT01", "LB", "01-701-1034", 165.0, "URATE", "Urate", "CHEMISTRY", "5.4", "mg/dL", "2.5", "7.5", "321.192", 321.192, "umol/L", 149.0, 446.0, "NORMAL", "", 8.0, "WEEK 8", 56.0, "TREATMENT", "2014-08-26T09:57", 57.0]
["CDISCPILOT01", "LB", "01-701-1034", 199.0, "URATE", "Urate", "CHEMISTRY", "5.3", "mg/dL", "2.5", "7.5", "315.244", 315.244, "umol/L", 149.0, 446.0, "NORMAL", "", 9.0, "WEEK 12", 84.0, "TREATMENT", "2014-09-25T15:40", 87.0]
["CDISCPILOT01", "LB", "01-701-1034", 231.0, "URATE", "Urate", "CHEMISTRY", "5.4", "mg/dL", "2.5", "7.5", "321.192", 321.192, "umol/L", 149.0, 446.0, "NORMAL", "", 10.0, "WEEK 16", 112.0, "TREATMENT", "2014-10-21T09:52", 113.0]
["CDISCPILOT01", "LB", "01-701-1034", 262.0, "URATE", "Urate", "CHEMISTRY", "5.4", "mg/dL", "2.5", "7.5", "321.192", 321.192, "umol/L", 149.0, 446.0, "NORMAL", "", 11.0, "WEEK 20", 140.0, "TREATMENT", "2014-11-18T12:23", 141.0]
["CDISCPILOT01", "LB", "01-701-1034", 297.0, "URATE", "Urate", "CHEMISTRY", "4.9", "mg/dL", "2.5", "7.5", "291.452", 291.452, "umol/L", 149.0, 446.0, "NORMAL", "", 12.0, "WEEK 24", 168.0, "TREATMENT", "2014-12-17T14:27", 170.0]
["CDISCPILOT01", "LB", "01-701-1034", 329.0, "URATE", "Urate", "CHEMISTRY", "5.1", "mg/dL", "2.5", "7.5", "303.348", 303.348, "umol/L", 149.0, 446.0, "NORMAL", "", 13.0, "WEEK 26", 182.0, "TREATMENT", "2014-12-30T09:50", 183.0]
["CDISCPILOT01", "LB", "01-701-1047", 1.0, "ALB", "Albumin", "CHEMISTRY", "4.2", "g/dL", "3.5", "4.6", "42", 42.0, "g/L", 35.0, 46.0, "NORMAL", "Y", 1.0, "SCREENING 1", -7.0, "SCREENING", "2013-01-22T14:36", -21.0]
["CDISCPILOT01", "LB", "01-701-1047", 38.0, "ALB", "Albumin", "CHEMISTRY", "3.8", "g/dL", "3.5", "4.6", "38", 38.0, "g/L", 35.0, 46.0, "NORMAL", "", 4.0, "WEEK 2", 14.0, "TREATMENT", "2013-02-25T12:10", 14.0]
["CDISCPILOT01", "LB", "01-701-1047", 73.0, "ALB", "Albumin", "CHEMISTRY", "3.8", "g/dL", "3.5", "4.6", "38", 38.0, "g/L", 35.0, 46.0, "NORMAL", "", 5.0, "WEEK 4", 28.0, "TREATMENT", "2013-03-10T13:53", 27.0]
["CDISCPILOT01", "LB", "01-701-1047", 120.0, "ALB", "Albumin", "CHEMISTRY", "3.8", "g/dL", "3.5", "4.6", "38", 38.0, "g/L", 35.0, 46.0, "NORMAL", "", 6.1, "UNSCHEDULED 6.1", null, "TREATMENT", "2013-04-07T11:20", 55.0]
["CDISCPILOT01", "LB", "01-701-1047", 2.0, "ALP", "Alkaline Phosphatase", "CHEMISTRY", "78", "U/L", "35", "115", "78", 78.0, "U/L", 35.0, 115.0, "NORMAL", "Y", 1.0, "SCREENING 1", -7.0, "SCREENING", "2013-01-22T14:36", -21.0]
["CDISCPILOT01", "LB", "01-701-1047", 39.0, "ALP", "Alkaline Phosphatase", "CHEMISTRY", "67", "U/L", "35", "115", "67", 67.0, "U/L", 35.0, 115.0, "NORMAL", "", 4.0, "WEEK 2", 14.0, "TREATMENT", "2013-02-25T12:10", 14.0]
["CDISCPILOT01", "LB", "01-701-1047", 74.0, "ALP", "Alkaline Phosphatase", "CHEMISTRY", "71", "U/L", "35", "115", "71", 71.0, "U/L", 35.0, 115.0, "NORMAL", "", 5.0, "WEEK 4", 28.0, "TREATMENT", "2013-03-10T13:53", 27.0]
["CDISCPILOT01", "LB", "01-701-1047", 121.0, "ALP", "Alkaline Phosphatase", "CHEMISTRY", "75", "U/L", "35", "115", "75", 75.0, "U/L", 35.0, 115.0, "NORMAL", "", 6.1, "UNSCHEDULED 6.1", null, "TREATMENT", "2013-04-07T11:20", 55.0]
["CDISCPILOT01", "LB", "01-701-1047", 3.0, "ALT", "Alanine Aminotransferase", "CHEMISTRY", "22", "U/L", "6", "32", "22", 22.0, "U/L", 6.0, 32.0, "NORMAL", "Y", 1.0, "SCREENING 1", -7.0, "SCREENING", "2013-01-22T14:36", -21.0]
["CDISCPILOT01", "LB", "01-701-1047", 40.0, "ALT", "Alanine Aminotransferase", "CHEMISTRY", "16", "U/L", "6", "32", "16", 16.0, "U/L", 6.0, 32.0, "NORMAL", "", 4.0, "WEEK 2", 14.0, "TREATMENT", "2013-02-25T12:10", 14.0]
["CDISCPILOT01", "LB", "01-701-1047", 75.0, "ALT", "Alanine Aminotransferase", "CHEMISTRY", "20", "U/L", "6", "32", "20", 20.0, "U/L", 6.0, 32.0, "NORMAL", "", 5.0, "WEEK 4", 28.0, "TREATMENT", "2013-03-10T13:53", 27.0]
["CDISCPILOT01", "LB", "01-701-1047", 122.0, "ALT", "Alanine Aminotransferase", "CHEMISTRY", "17", "U/L", "6", "32", "17", 17.0, "U/L", 6.0, 32.0, "NORMAL", "", 6.1, "UNSCHEDULED 6.1", null, "TREATMENT", "2013-04-07T11:20", 55.0]
["CDISCPILOT01", "LB", "01-701-1047", 4.0, "AST", "Aspartate Aminotransferase", "CHEMISTRY", "25", "U/L", "9", "34", "25", 25.0, "U/L", 9.0, 34.0, "NORMAL", "Y", 1.0, "SCREENING 1", -7.0, "SCREENING", "2013-01-22T14:36", -21.0]
["CDISCPILOT01", "LB", "01-701-1047", 41.0, "AST", "Aspartate Aminotransferase", "CHEMISTRY", "21", "U/L", "9", "34", "21", 21.0, "U/L", 9.0, 34.0, "NORMAL", "", 4.0, "WEEK 2", 14.0, "TREATMENT", "2013-02-25T12:10", 14.0]
["CDISCPILOT01", "LB", "01-701-1047", 76.0, "AST", "Aspartate Aminotransferase", "CHEMISTRY", "24", "U/L", "9", "34", "24", 24.0, "U/L", 9.0, 34.0, "NORMAL", "", 5.0, "WEEK 4", 28.0, "TREATMENT", "2013-03-10T13:53", 27.0]
["CDISCPILOT01", "LB", "01-701-1047", 123.0, "AST", "Aspartate Aminotransferase", "CHEMISTRY", "21", "U/L", "9", "34", "21", 21.0, "U/L", 9.0, 34.0, "NORMAL", "", 6.1, "UNSCHEDULED 6.1", null, "TREATMENT", "2013-04-07T11:20", 55.0]
["CDISCPILOT01", "LB", "01-701-1047", 6.0, "BILI", "Bilirubin", "CHEMISTRY", "0.4", "mg/dL", "0.2", "1.2", "6.84", 6.84, "umol/L", 3.0, 21.0, "NORMAL", "Y", 1.0, "SCREENING 1", -7.0, "SCREENING", "2013-01-22T14:36", -21.0]
["CDISCPILOT01", "LB", "01-701-1047", 43.0, "BILI", "Bilirubin", "CHEMISTRY", "0.5", "mg/dL", "0.2", "1.2", "8.55", 8.549999999999999, "umol/L", 3.0, 21.0, "NORMAL", "", 4.0, "WEEK 2", 14.0, "TREATMENT", "2013-02-25T12:10", 14.0]
["CDISCPILOT01", "LB", "01-701-1047", 78.0, "BILI", "Bilirubin", "CHEMISTRY", "0.4", "mg/dL", "0.2", "1.2", "6.84", 6.84, "umol/L", 3.0, 21.0, "NORMAL", "", 5.0, "WEEK 4", 28.0, "TREATMENT", "2013-03-10T13:53", 27.0]
["CDISCPILOT01", "LB", "01-701-1047", 124.0, "BILI", "Bilirubin", "CHEMISTRY", "0.4", "mg/dL", "0.2", "1.2", "6.84", 6.84, "umol/L", 3.0, 21.0, "NORMAL", "", 6.1, "UNSCHEDULED 6.1", null, "TREATMENT", "2013-04-07T11:20", 55.0]
["CDISCPILOT01", "LB", "01-701-1047", 7.0, "UREAN", "Urea Nitrogen", "CHEMISTRY", "18", "mg/dL", "4", "24", "6.426", 6.425999999999999, "mmol/L", 1.4, 8.6, "NORMAL", "Y", 1.0, "SCREENING 1", -7.0, "SCREENING", "2013-01-22T14:36", -21.0]
["CDISCPILOT01", "LB", "01-701-1047", 44.0, "UREAN", "Urea Nitrogen", "CHEMISTRY", "18", "mg/dL", "4", "24", "6.426", 6.425999999999999, "mmol/L", 1.4, 8.6, "NORMAL", "", 4.0, "WEEK 2", 14.0, "TREATMENT", "2013-02-25T12:10", 14.0]
["CDISCPILOT01", "LB", "01-701-1047", 79.0, "UREAN", "Urea Nitrogen", "CHEMISTRY", "20", "mg/dL", "4", "24", "7.14", 7.14, "mmol/L", 1.4, 8.6, "NORMAL", "", 5.0, "WEEK 4", 28.0, "TREATMENT", "2013-03-10T13:53", 27.0]
["CDISCPILOT01", "LB", "01-701-1047", 125.0, "UREAN", "Urea Nitrogen", "CHEMISTRY", "15", "mg/dL", "4", "24", "5.355", 5.3549999999999995, "mmol/L", 1.4, 8.6, "NORMAL", "", 6.1, "UNSCHEDULED 6.1", null, "TREATMENT", "2013-04-07T11:20", 55.0]
["CDISCPILOT01", "LB", "01-701-1047", 8.0, "CA", "Calcium", "CHEMISTRY", "9.2", "mg/dL", "8.4", "10.3", "2.2954", 2.2954, "mmol/L", 2.1, 2.57, "NORMAL", "Y", 1.0, "SCREENING 1", -7.0, "SCREENING", "2013-01-22T14:36", -21.0]
["CDISCPILOT01", "LB", "01-701-1047", 45.0, "CA", "Calcium", "CHEMISTRY", "9.0", "mg/dL", "8.4", "10.3", "2.2455", 2.2455, "mmol/L", 2.1, 2.57, "NORMAL", "", 4.0, "WEEK 2", 14.0, "TREATMENT", "2013-02-25T12:10", 14.0]
["CDISCPILOT01", "LB", "01-701-1047", 80.0, "CA", "Calcium", "CHEMISTRY", "8.5", "mg/dL", "8.4", "10.3", "2.12075", 2.1207499999999997, "mmol/L", 2.1, 2.57, "NORMAL", "", 5.0, "WEEK 4", 28.0, "TREATMENT", "2013-03-10T13:53", 27.0]
["CDISCPILOT01", "LB", "01-701-1047", 126.0, "CA", "Calcium", "CHEMISTRY", "8.6", "mg/dL", "8.4", "10.3", "2.1457", 2.1456999999999997, "mmol/L", 2.1, 2.57, "NORMAL", "", 6.1, "UNSCHEDULED 6.1", null, "TREATMENT", "2013-04-07T11:20", 55.0]
["CDISCPILOT01", "LB", "01-701-1047", 9.0, "CHOL", "Cholesterol", "CHEMISTRY", "235", "mg/dL", "156", "300", "6.0771", 6.0771, "mmol/L", 4.029999999999999, 7.76, "NORMAL", "Y", 1.0, "SCREENING 1", -7.0, "SCREENING", "2013-01-22T14:36", -21.0]
["CDISCPILOT01", "LB", "01-701-1047", 46.0, "CHOL", "Cholesterol", "CHEMISTRY", "210", "mg/dL", "156", "300", "5.4306", 5.4306, "mmol/L", 4.029999999999999, 7.76, "NORMAL", "", 4.0, "WEEK 2", 14.0, "TREATMENT", "2013-02-25T12:10", 14.0]
["CDISCPILOT01", "LB", "01-701-1047", 81.0, "CHOL", "Cholesterol", "CHEMISTRY", "182", "mg/dL", "156", "300", "4.70652", 4.706519999999999, "mmol/L", 4.029999999999999, 7.76, "NORMAL", "", 5.0, "WEEK 4", 28.0, "TREATMENT", "2013-03-10T13:53", 27.0]
["CDISCPILOT01", "LB", "01-701-1047", 127.0, "CHOL", "Cholesterol", "CHEMISTRY", "189", "mg/dL", "156", "300", "4.88754", 4.8875399999999996, "mmol/L", 4.029999999999999, 7.76, "NORMAL", "", 6.1, "UNSCHEDULED 6.1", null, "TREATMENT", "2013-04-07T11:20", 55.0]
["CDISCPILOT01", "LB", "01-701-1047", 10.0, "CK", "Creatine Kinase", "CHEMISTRY", "90", "U/L", "21", "169", "90", 90.0, "U/L", 21.0, 169.0, "NORMAL", "Y", 1.0, "SCREENING 1", -7.0, "SCREENING", "2013-01-22T14:36", -21.0]
["CDISCPILOT01", "LB", "01-701-1047", 47.0, "CK", "Creatine Kinase", "CHEMISTRY", "80", "U/L", "21", "169", "80", 80.0, "U/L", 21.0, 169.0, "NORMAL", "", 4.0, "WEEK 2", 14.0, "TREATMENT", "2013-02-25T12:10", 14.0]
["CDISCPILOT01", "LB", "01-701-1047", 82.0, "CK", "Creatine Kinase", "CHEMISTRY", "77", "U/L", "21", "169", "77", 77.0, "U/L", 21.0, 169.0, "NORMAL", "", 5.0, "WEEK 4", 28.0, "TREATMENT", "2013-03-10T13:53", 27.0]
["CDISCPILOT01", "LB", "01-701-1047", 128.0, "CK", "Creatine Kinase", "CHEMISTRY", "85", "U/L", "21", "169", "85", 85.0, "U/L", 21.0, 169.0, "NORMAL", "", 6.1, "UNSCHEDULED 6.1", null, "TREATMENT", "2013-04-07T11:20", 55.0]
["CDISCPILOT01", "LB", "01-701-1047", 11.0, "CL", "Chloride", "CHEMISTRY", "105", "mEq/L", "94", "112", "105", 105.0, "mmol/L", 94.0, 112.0, "NORMAL", "Y", 1.0, "SCREENING 1", -7.0, "SCREENING", "2013-01-22T14:36", -21.0]
["CDISCPILOT01", "LB", "01-701-1047", 48.0, "CL", "Chloride", "CHEMISTRY", "109", "mEq/L", "94", "112", "109", 109.0, "mmol/L", 94.0, 112.0, "NORMAL", "", 4.0, "WEEK 2", 14.0, "TREATMENT", "2013-02-25T12:10", 14.0]
["CDISCPILOT01", "LB", "01-701-1047", 83.0, "CL", "Chloride", "CHEMISTRY", "108", "mEq/L", "94", "112", "108", 108.0, "mmol/L", 94.0, 112.0, "NORMAL", "", 5.0, "WEEK 4", 28.0, "TREATMENT", "2013-03-10T13:53", 27.0]
["CDISCPILOT01", "LB", "01-701-1047", 13.0, "CREAT", "Creatinine", "CHEMISTRY", "1.0", "mg/dL", "0.7", "1.4", "88.4", 88.39999999999999, "umol/L", 62.0, 124.0, "NORMAL", "Y", 1.0, "SCREENING 1", -7.0, "SCREENING", "2013-01-22T14:36", -21.0]
["CDISCPILOT01", "LB", "01-701-1047", 50.0, "CREAT", "Creatinine", "CHEMISTRY", "1.0", "mg/dL", "0.7", "1.4", "88.4", 88.39999999999999, "umol/L", 62.0, 124.0, "NORMAL", "", 4.0, "WEEK 2", 14.0, "TREATMENT", "2013-02-25T12:10", 14.0]
["CDISCPILOT01", "LB", "01-701-1047", 84.0, "CREAT", "Creatinine", "CHEMISTRY", "0.9", "mg/dL", "0.7", "1.4", "79.56", 79.55999999999999, "umol/L", 62.0, 124.0, "NORMAL", "", 5.0, "WEEK 4", 28.0, "TREATMENT", "2013-03-10T13:53", 27.0]
["CDISCPILOT01", "LB", "01-701-1047", 129.0, "CREAT", "Creatinine", "CHEMISTRY", "1.0", "mg/dL", "0.7", "1.4", "88.4", 88.39999999999999, "umol/L", 62.0, 124.0, "NORMAL", "", 6.1, "UNSCHEDULED 6.1", null, "TREATMENT", "2013-04-07T11:20", 55.0]
["CDISCPILOT01", "LB", "01-701-1047", 15.0, "GGT", "Gamma Glutamyl Transferase", "CHEMISTRY", "14", "U/L", "5", "50", "14", 14.0, "U/L", 5.0, 50.0, "NORMAL", "Y", 1.0, "SCREENING 1", -7.0, "SCREENING", "2013-01-22T14:36", -21.0]
["CDISCPILOT01", "LB", "01-701-1047", 52.0, "GGT", "Gamma Glutamyl Transferase", "CHEMISTRY", "12", "U/L", "5", "50", "12", 12.0, "U/L", 5.0, 50.0, "NORMAL", "", 4.0, "WEEK 2", 14.0, "TREATMENT", "2013-02-25T12:10", 14.0]
["CDISCPILOT01", "LB", "01-701-1047", 86.0, "GGT", "Gamma Glutamyl Transferase", "CHEMISTRY", "12", "U/L", "5", "50", "12", 12.0, "U/L", 5.0, 50.0, "NORMAL", "", 5.0, "WEEK 4", 28.0, "TREATMENT", "2013-03-10T13:53", 27.0]
["CDISCPILOT01", "LB", "01-701-1047", 130.0, "GGT", "Gamma Glutamyl Transferase", "CHEMISTRY", "11", "U/L", "5", "50", "11", 11.0, "U/L", 5.0, 50.0, "NORMAL", "", 6.1, "UNSCHEDULED 6.1", null, "TREATMENT", "2013-04-07T11:20", 55.0]
["CDISCPILOT01", "LB", "01-701-1047", 16.0, "GLUC", "Glucose", "CHEMISTRY", "100", "mg/dL", "50", "250", "5.551", 5.550999999999999, "mmol/L", 2.8, 13.899999999999999, "NORMAL", "Y", 1.0, "SCREENING 1", -7.0, "SCREENING", "2013-01-22T14:36", -21.0]
["CDISCPILOT01", "LB", "01-701-1047", 53.0, "GLUC", "Glucose", "CHEMISTRY", "100", "mg/dL", "50", "250", "5.551", 5.550999999999999, "mmol/L", 2.8, 13.899999999999999, "NORMAL", "", 4.0, "WEEK 2", 14.0, "TREATMENT", "2013-02-25T12:10", 14.0]
["CDISCPILOT01", "LB", "01-701-1047", 87.0, "GLUC", "Glucose", "CHEMISTRY", "108", "mg/dL", "50", "250", "5.99508", 5.99508, "mmol/L", 2.8, 13.899999999999999, "NORMAL", "", 5.0, "WEEK 4", 28.0, "TREATMENT", "2013-03-10T13:53", 27.0]
["CDISCPILOT01", "LB", "01-701-1047", 131.0, "GLUC", "Glucose", "CHEMISTRY", "69", "mg/dL", "50", "250", "3.83019", 3.83019, "mmol/L", 2.8, 13.899999999999999, "NORMAL", "", 6.1, "UNSCHEDULED 6.1", null, "TREATMENT", "2013-04-07T11:20", 55.0]
["CDISCPILOT01", "LB", "01-701-1047", 19.0, "K", "Potassium", "CHEMISTRY", "4.3", "mEq/L", "3.4", "5.4", "4.3", 4.3, "mmol/L", 3.4, 5.3999999999999995, "NORMAL", "Y", 1.0, "SCREENING 1", -7.0, "SCREENING", "2013-01-22T14:36", -21.0]
["CDISCPILOT01", "LB", "01-701-1047", 56.0, "K", "Potassium", "CHEMISTRY", "3.9", "mEq/L", "3.4", "5.4", "3.9", 3.9, "mmol/L", 3.4, 5.3999999999999995, "NORMAL", "", 4.0, "WEEK 2", 14.0, "TREATMENT", "2013-02-25T12:10", 14.0]
["CDISCPILOT01", "LB", "01-701-1047", 90.0, "K", "Potassium", "CHEMISTRY", "3.9", "mEq/L", "3.4", "5.4", "3.9", 3.9, "mmol/L", 3.4, 5.3999999999999995, "NORMAL", "", 5.0, "WEEK 4", 28.0, "TREATMENT", "2013-03-10T13:53", 27.0]
["CDISCPILOT01", "LB", "01-701-1047", 26.0, "SODIUM", "Sodium", "CHEMISTRY", "144", "mEq/L", "135", "145", "144", 144.0, "mmol/L", 135.0, 145.0, "NORMAL", "Y", 1.0, "SCREENING 1", -7.0, "SCREENING", "2013-01-22T14:36", -21.0]
["CDISCPILOT01", "LB", "01-701-1047", 63.0, "SODIUM", "Sodium", "CHEMISTRY", "141", "mEq/L", "135", "145", "141", 141.0, "mmol/L", 135.0, 145.0, "NORMAL", "", 4.0, "WEEK 2", 14.0, "TREATMENT", "2013-02-25T12:10", 14.0]
["CDISCPILOT01", "LB", "01-701-1047", 96.0, "SODIUM", "Sodium", "CHEMISTRY", "142", "mEq/L", "135", "145", "142", 142.0, "mmol/L", 135.0, 145.0, "NORMAL", "", 5.0, "WEEK 4", 28.0, "TREATMENT", "2013-03-10T13:53", 27.0]
["CDISCPILOT01", "LB", "01-701-1047", 28.0, "PHOS", "Phosphate", "CHEMISTRY", "4.1", "mg/dL", "2.2", "5.1", "1.32389", 1.32389, "mmol/L", 0.71, 1.65, "NORMAL", "Y", 1.0, "SCREENING 1", -7.0, "SCREENING", "2013-01-22T14:36", -21.0]
["CDISCPILOT01", "LB", "01-701-1047", 65.0, "PHOS", "Phosphate", "CHEMISTRY", "3.0", "mg/dL", "2.2", "5.1", "0.9687", 0.9687, "mmol/L", 0.71, 1.65, "NORMAL", "", 4.0, "WEEK 2", 14.0, "TREATMENT", "2013-02-25T12:10", 14.0]
["CDISCPILOT01", "LB", "01-701-1047", 97.0, "PHOS", "Phosphate", "CHEMISTRY", "3.1", "mg/dL", "2.2", "5.1", "1.00099", 1.00099, "mmol/L", 0.71, 1.65, "NORMAL", "", 5.0, "WEEK 4", 28.0, "TREATMENT", "2013-03-10T13:53", 27.0]
["CDISCPILOT01", "LB", "01-701-1047", 132.0, "PHOS", "Phosphate", "CHEMISTRY", "2.5", "mg/dL", "2.2", "5.1", "0.80725", 0.8072499999999999, "mmol/L", 0.71, 1.65, "NORMAL", "", 6.1, "UNSCHEDULED 6.1", null, "TREATMENT", "2013-04-07T11:20", 55.0]
["CDISCPILOT01", "LB", "01-701-1047", 30.0, "PROT", "Protein", "CHEMISTRY", "6.9", "g/dL", "6", "8", "69", 69.0, "g/L", 60.0, 80.0, "NORMAL", "Y", 1.0, "SCREENING 1", -7.0, "SCREENING", "2013-01-22T14:36", -21.0]
["CDISCPILOT01", "LB", "01-701-1047", 67.0, "PROT", "Protein", "CHEMISTRY", "6.3", "g/dL", "6", "8", "63", 63.0, "g/L", 60.0, 80.0, "NORMAL", "", 4.0, "WEEK 2", 14.0, "TREATMENT", "2013-02-25T12:10", 14.0]
["CDISCPILOT01", "LB", "01-701-1047", 99.0, "PROT", "Protein", "CHEMISTRY", "6.6", "g/dL", "6", "8", "66", 66.0, "g/L", 60.0, 80.0, "NORMAL", "", 5.0, "WEEK 4", 28.0, "TREATMENT", "2013-03-10T13:53", 27.0]
["CDISCPILOT01", "LB", "01-701-1047", 133.0, "PROT", "Protein", "CHEMISTRY", "6.5", "g/dL", "6", "8", "65", 65.0, "g/L", 60.0, 80.0, "NORMAL", "", 6.1, "UNSCHEDULED 6.1", null, "TREATMENT", "2013-04-07T11:20", 55.0]
["CDISCPILOT01", "LB", "01-701-1047", 34.0, "URATE", "Urate", "CHEMISTRY", "3.9", "mg/dL", "2.5", "7.5", "231.972", 231.97199999999998, "umol/L", 149.0, 446.0, "NORMAL", "Y", 1.0, "SCREENING 1", -7.0, "SCREENING", "2013-01-22T14:36", -21.0]
["CDISCPILOT01", "LB", "01-701-1047", 70.0, "URATE", "Urate", "CHEMISTRY", "4.8", "mg/dL", "2.5", "7.5", "285.504", 285.504, "umol/L", 149.0, 446.0, "NORMAL", "", 4.0, "WEEK 2", 14.0, "TREATMENT", "2013-02-25T12:10", 14.0]
["CDISCPILOT01", "LB", "01-701-1047", 101.0, "URATE", "Urate", "CHEMISTRY", "4.3", "mg/dL", "2.5", "7.5", "255.764", 255.76399999999998, "umol/L", 149.0, 446.0, "NORMAL", "", 5.0, "WEEK 4", 28.0, "TREATMENT", "2013-03-10T13:53", 27.0]
["CDISCPILOT01", "LB", "01-701-1047", 134.0, "URATE", "Urate", "CHEMISTRY", "4.7", "mg/dL", "2.5", "7.5", "279.556", 279.556, "umol/L", 149.0, 446.0, "NORMAL", "", 6.1, "UNSCHEDULED 6.1", null, "TREATMENT", "2013-04-07T11:20", 55.0]
["CDISCPILOT01", "LB", "01-701-1097", 1.0, "ALB", "Albumin", "CHEMISTRY", "4.3", "g/dL", "3.3", "4.9", "43", 43.0, "g/L", 33.0, 49.0, "NORMAL", "Y", 1.0, "SCREENING 1", -7.0, "SCREENING", "2013-12-23T12:30", -9.0]
["CDISCPILOT01", "LB", "01-701-1097", 38.0, "ALB", "Albumin", "CHEMISTRY", "4.2", "g/dL", "3.3", "4.9", "42", 42.0, "g/L", 33.0, 49.0, "NORMAL", "", 4.0, "WEEK 2", 14.0, "TREATMENT", "2014-01-15T10:03", 15.0]
["CDISCPILOT01", "LB", "01-701-1097", 73.0, "ALB", "Albumin", "CHEMISTRY", "4.2", "g/dL", "3.3", "4.9", "42", 42.0, "g/L", 33.0, 49.0, "NORMAL", "", 5.0, "WEEK 4", 28.0, "TREATMENT", "2014-01-29T14:00", 29.0]
["CDISCPILOT01", "LB", "01-701-1097", 103.0, "ALB", "Albumin", "CHEMISTRY", "4.1", "g/dL", "3.3", "4.9", "41", 41.0, "g/L", 33.0, 49.0, "NORMAL", "", 7.0, "WEEK 6", 42.0, "TREATMENT", "2014-02-11T11:16", 42.0]
["CDISCPILOT01", "LB", "01-701-1097", 133.0, "ALB", "Albumin", "CHEMISTRY", "4.3", "g/dL", "3.3", "4.9", "43", 43.0, "g/L", 33.0, 49.0, "NORMAL", "", 8.0, "WEEK 8", 56.0, "TREATMENT", "2014-02-26T11:10", 57.0]
["CDISCPILOT01", "LB", "01-701-1097", 163.0, "ALB", "Albumin", "CHEMISTRY", "4.1", "g/dL", "3.3", "4.9", "41", 41.0, "g/L", 33.0, 49.0, "NORMAL", "", 9.0, "WEEK 12", 84.0, "TREATMENT", "2014-03-26T08:55", 85.0]
["CDISCPILOT01", "LB", "01-701-1097", 198.0, "ALB", "Albumin", "CHEMISTRY", "4.2", "g/dL", "3.3", "4.9", "42", 42.0, "g/L", 33.0, 49.0, "NORMAL", "", 10.0, "WEEK 16", 112.0, "TREATMENT", "2014-04-23T11:14", 113.0]
["CDISCPILOT01", "LB", "01-701-1097", 228.0, "ALB", "Albumin", "CHEMISTRY", "3.9", "g/dL", "3.3", "4.9", "39", 39.0, "g/L", 33.0, 49.0, "NORMAL", "", 11.0, "WEEK 20", 140.0, "TREATMENT", "2014-05-21T15:06", 141.0]
["CDISCPILOT01", "LB", "01-701-1097", 258.0, "ALB", "Albumin", "CHEMISTRY", "4.3", "g/dL", "3.3", "4.9", "43", 43.0, "g/L", 33.0, 49.0, "NORMAL", "", 12.0, "WEEK 24", 168.0, "TREATMENT", "2014-06-18T10:41", 169.0]
["CDISCPILOT01", "LB", "01-701-1097", 293.0, "ALB", "Albumin", "CHEMISTRY", "4.0", "g/dL", "3.3", "4.9", "40", 40.0, "g/L", 33.0, 49.0, "NORMAL", "", 13.0, "WEEK 26", 182.0, "TREATMENT", "2014-07-09T09:39", 190.0]
["CDISCPILOT01", "LB", "01-701-1097", 2.0, "ALP", "Alkaline Phosphatase", "CHEMISTRY", "56", "U/L", "35", "115", "56", 56.0, "U/L", 35.0, 115.0, "NORMAL", "Y", 1.0, "SCREENING 1", -7.0, "SCREENING", "2013-12-23T12:30", -9.0]
["CDISCPILOT01", "LB", "01-701-1097", 39.0, "ALP", "Alkaline Phosphatase", "CHEMISTRY", "54", "U/L", "35", "115", "54", 54.0, "U/L", 35.0, 115.0, "NORMAL", "", 4.0, "WEEK 2", 14.0, "TREATMENT", "2014-01-15T10:03", 15.0]
["CDISCPILOT01", "LB", "01-701-1097", 74.0, "ALP", "Alkaline Phosphatase", "CHEMISTRY", "49", "U/L", "35", "115", "49", 49.0, "U/L", 35.0, 115.0, "NORMAL", "", 5.0, "WEEK 4", 28.0, "TREATMENT", "2014-01-29T14:00", 29.0]
["CDISCPILOT01", "LB", "01-701-1097", 104.0, "ALP", "Alkaline Phosphatase", "CHEMISTRY", "48", "U/L", "35", "115", "48", 48.0, "U/L", 35.0, 115.0, "NORMAL", "", 7.0, "WEEK 6", 42.0, "TREATMENT", "2014-02-11T11:16", 42.0]
["CDISCPILOT01", "LB", "01-701-1097", 134.0, "ALP", "Alkaline Phosphatase", "CHEMISTRY", "49", "U/L", "35", "115", "49", 49.0, "U/L", 35.0, 115.0, "NORMAL", "", 8.0, "WEEK 8", 56.0, "TREATMENT", "2014-02-26T11:10", 57.0]
["CDISCPILOT01", "LB", "01-701-1097", 164.0, "ALP", "Alkaline Phosphatase", "CHEMISTRY", "53", "U/L", "35", "115", "53", 53.0, "U/L", 35.0, 115.0, "NORMAL", "", 9.0, "WEEK 12", 84.0, "TREATMENT", "2014-03-26T08:55", 85.0]
["CDISCPILOT01", "LB", "01-701-1097", 199.0, "ALP", "Alkaline Phosphatase", "CHEMISTRY", "67", "U/L", "35", "115", "67", 67.0, "U/L", 35.0, 115.0, "NORMAL", "", 10.0, "WEEK 16", 112.0, "TREATMENT", "2014-04-23T11:14", 113.0]
["CDISCPILOT01", "LB", "01-701-1097", 229.0, "ALP", "Alkaline Phosphatase", "CHEMISTRY", "50", "U/L", "35", "115", "50", 50.0, "U/L", 35.0, 115.0, "NORMAL", "", 11.0, "WEEK 20", 140.0, "TREATMENT", "2014-05-21T15:06", 141.0]
["CDISCPILOT01", "LB", "01-701-1097", 259.0, "ALP", "Alkaline Phosphatase", "CHEMISTRY", "54", "U/L", "35", "115", "54", 54.0, "U/L", 35.0, 115.0, "NORMAL", "", 12.0, "WEEK 24", 168.0, "TREATMENT", "2014-06-18T10:41", 169.0]
["CDISCPILOT01", "LB", "01-701-1097", 294.0, "ALP", "Alkaline Phosphatase", "CHEMISTRY", "52", "U/L", "35", "115", "52", 52.0, "U/L", 35.0, 115.0, "NORMAL", "", 13.0, "WEEK 26", 182.0, "TREATMENT", "2014-07-09T09:39", 190.0]
["CDISCPILOT01", "LB", "01-701-1097", 3.0, "ALT", "Alanine Aminotransferase", "CHEMISTRY", "16", "U/L", "6", "43", "16", 16.0, "U/L", 6.0, 43.0, "NORMAL", "Y", 1.0, "SCREENING 1", -7.0, "SCREENING", "2013-12-23T12:30", -9.0]
["CDISCPILOT01", "LB", "01-701-1097", 40.0, "ALT", "Alanine Aminotransferase", "CHEMISTRY", "24", "U/L", "6", "43", "24", 24.0, "U/L", 6.0, 43.0, "NORMAL", "", 4.0, "WEEK 2", 14.0, "TREATMENT", "2014-01-15T10:03", 15.0]
["CDISCPILOT01", "LB", "01-701-1097", 75.0, "ALT", "Alanine Aminotransferase", "CHEMISTRY", "17", "U/L", "6", "43", "17", 17.0, "U/L", 6.0, 43.0, "NORMAL", "", 5.0, "WEEK 4", 28.0, "TREATMENT", "2014-01-29T14:00", 29.0]
["CDISCPILOT01", "LB", "01-701-1097", 105.0, "ALT", "Alanine Aminotransferase", "CHEMISTRY", "14", "U/L", "6", "43", "14", 14.0, "U/L", 6.0, 43.0, "NORMAL", "", 7.0, "WEEK 6", 42.0, "TREATMENT", "2014-02-11T11:16", 42.0]
["CDISCPILOT01", "LB", "01-701-1097", 135.0, "ALT", "Alanine Aminotransferase", "CHEMISTRY", "18", "U/L", "6", "43", "18", 18.0, "U/L", 6.0, 43.0, "NORMAL", "", 8.0, "WEEK 8", 56.0, "TREATMENT", "2014-02-26T11:10", 57.0]
["CDISCPILOT01", "LB", "01-701-1097", 165.0, "ALT", "Alanine Aminotransferase", "CHEMISTRY", "14", "U/L", "6", "43", "14", 14.0, "U/L", 6.0, 43.0, "NORMAL", "", 9.0, "WEEK 12", 84.0, "TREATMENT", "2014-03-26T08:55", 85.0]
["CDISCPILOT01", "LB", "01-701-1097", 200.0, "ALT", "Alanine Aminotransferase", "CHEMISTRY", "15", "U/L", "6", "43", "15", 15.0, "U/L", 6.0, 43.0, "NORMAL", "", 10.0, "WEEK 16", 112.0, "TREATMENT", "2014-04-23T11:14", 113.0]
["CDISCPILOT01", "LB", "01-701-1097", 230.0, "ALT", "Alanine Aminotransferase", "CHEMISTRY", "11", "U/L", "6", "43", "11", 11.0, "U/L", 6.0, 43.0, "NORMAL", "", 11.0, "WEEK 20", 140.0, "TREATMENT", "2014-05-21T15:06", 141.0]
["CDISCPILOT01", "LB", "01-701-1097", 260.0, "ALT", "Alanine Aminotransferase", "CHEMISTRY", "18", "U/L", "6", "43", "18", 18.0, "U/L", 6.0, 43.0, "NORMAL", "", 12.0, "WEEK 24", 168.0, "TREATMENT", "2014-06-18T10:41", 169.0]
["CDISCPILOT01", "LB", "01-701-1097", 295.0, "ALT", "Alanine Aminotransferase", "CHEMISTRY", "15", "U/L", "6", "43", "15", 15.0, "U/L", 6.0, 43.0, "NORMAL", "", 13.0, "WEEK 26", 182.0, "TREATMENT", "2014-07-09T09:39", 190.0]
["CDISCPILOT01", "LB", "01-701-1097", 4.0, "AST", "Aspartate Aminotransferase", "CHEMISTRY", "19", "U/L", "11", "36", "19", 19.0, "U/L", 11.0, 36.0, "NORMAL", "Y", 1.0, "SCREENING 1", -7.0, "SCREENING", "2013-12-23T12:30", -9.0]
["CDISCPILOT01", "LB", "01-701-1097", 41.0, "AST", "Aspartate Aminotransferase", "CHEMISTRY", "21", "U/L", "11", "36", "21", 21.0, "U/L", 11.0, 36.0, "NORMAL", "", 4.0, "WEEK 2", 14.0, "TREATMENT", "2014-01-15T10:03", 15.0]
["CDISCPILOT01", "LB", "01-701-1097", 76.0, "AST", "Aspartate Aminotransferase", "CHEMISTRY", "16", "U/L", "11", "36", "16", 16.0, "U/L", 11.0, 36.0, "NORMAL", "", 5.0, "WEEK 4", 28.0, "TREATMENT", "2014-01-29T14:00", 29.0]
["CDISCPILOT01", "LB", "01-701-1097", 106.0, "AST", "Aspartate Aminotransferase", "CHEMISTRY", "19", "U/L", "11", "36", "19", 19.0, "U/L", 11.0, 36.0, "NORMAL", "", 7.0, "WEEK 6", 42.0, "TREATMENT", "2014-02-11T11:16", 42.0]
["CDISCPILOT01", "LB", "01-701-1097", 136.0, "AST", "Aspartate Aminotransferase", "CHEMISTRY", "18", "U/L", "11", "36", "18", 18.0, "U/L", 11.0, 36.0, "NORMAL", "", 8.0, "WEEK 8", 56.0, "TREATMENT", "2014-02-26T11:10", 57.0]
["CDISCPILOT01", "LB", "01-701-1097", 166.0, "AST", "Aspartate Aminotransferase", "CHEMISTRY", "17", "U/L", "11", "36", "17", 17.0, "U/L", 11.0, 36.0, "NORMAL", "", 9.0, "WEEK 12", 84.0, "TREATMENT", "2014-03-26T08:55", 85.0]
["CDISCPILOT01", "LB", "01-701-1097", 201.0, "AST", "Aspartate Aminotransferase", "CHEMISTRY", "17", "U/L", "11", "36", "17", 17.0, "U/L", 11.0, 36.0, "NORMAL", "", 10.0, "WEEK 16", 112.0, "TREATMENT", "2014-04-23T11:14", 113.0]
["CDISCPILOT01", "LB", "01-701-1097", 231.0, "AST", "Aspartate Aminotransferase", "CHEMISTRY", "16", "U/L", "11", "36", "16", 16.0, "U/L", 11.0, 36.0, "NORMAL", "", 11.0, "WEEK 20", 140.0, "TREATMENT", "2014-05-21T15:06", 141.0]
["CDISCPILOT01", "LB", "01-701-1097", 261.0, "AST", "Aspartate Aminotransferase", "CHEMISTRY", "20", "U/L", "11", "36", "20", 20.0, "U/L", 11.0, 36.0, "NORMAL", "", 12.0, "WEEK 24", 168.0, "TREATMENT", "2014-06-18T10:41", 169.0]
["CDISCPILOT01", "LB", "01-701-1097", 296.0, "AST", "Aspartate Aminotransferase", "CHEMISTRY", "19", "U/L", "11", "36", "19", 19.0, "U/L", 11.0, 36.0, "NORMAL", "", 13.0, "WEEK 26", 182.0, "TREATMENT", "2014-07-09T09:39", 190.0]
["CDISCPILOT01", "LB", "01-701-1097", 6.0, "BILI", "Bilirubin", "CHEMISTRY", "0.4", "mg/dL", "0.2", "1.2", "6.84", 6.84, "umol/L", 3.0, 21.0, "NORMAL", "Y", 1.0, "SCREENING 1", -7.0, "SCREENING", "2013-12-23T12:30", -9.0]
["CDISCPILOT01", "LB", "01-701-1097", 43.0, "BILI", "Bilirubin", "CHEMISTRY", "0.5", "mg/dL", "0.2", "1.2", "8.55", 8.549999999999999, "umol/L", 3.0, 21.0, "NORMAL", "", 4.0, "WEEK 2", 14.0, "TREATMENT", "2014-01-15T10:03", 15.0]
["CDISCPILOT01", "LB", "01-701-1097", 78.0, "BILI", "Bilirubin", "CHEMISTRY", "0.6", "mg/dL", "0.2", "1.2", "10.26", 10.26, "umol/L", 3.0, 21.0, "NORMAL", "", 5.0, "WEEK 4", 28.0, "TREATMENT", "2014-01-29T14:00", 29.0]
["CDISCPILOT01", "LB", "01-701-1097", 108.0, "BILI", "Bilirubin", "CHEMISTRY", "0.5", "mg/dL", "0.2", "1.2", "8.55", 8.549999999999999, "umol/L", 3.0, 21.0, "NORMAL", "", 7.0, "WEEK 6", 42.0, "TREATMENT", "2014-02-11T11:16", 42.0]
["CDISCPILOT01", "LB", "01-701-1097", 138.0, "BILI", "Bilirubin", "CHEMISTRY", "0.5", "mg/dL", "0.2", "1.2", "8.55", 8.549999999999999, "umol/L", 3.0, 21.0, "NORMAL", "", 8.0, "WEEK 8", 56.0, "TREATMENT", "2014-02-26T11:10", 57.0]
["CDISCPILOT01", "LB", "01-701-1097", 168.0, "BILI", "Bilirubin", "CHEMISTRY", "0.4", "mg/dL", "0.2", "1.2", "6.84", 6.84, "umol/L", 3.0, 21.0, "NORMAL", "", 9.0, "WEEK 12", 84.0, "TREATMENT", "2014-03-26T08:55", 85.0]
["CDISCPILOT01", "LB", "01-701-1097", 203.0, "BILI", "Bilirubin", "CHEMISTRY", "0.4", "mg/dL", "0.2", "1.2", "6.84", 6.84, "umol/L", 3.0, 21.0, "NORMAL", "", 10.0, "WEEK 16", 112.0, "TREATMENT", "2014-04-23T11:14", 113.0]
["CDISCPILOT01", "LB", "01-701-1097", 233.0, "BILI", "Bilirubin", "CHEMISTRY", "0.3", "mg/dL", "0.2", "1.2", "5.13", 5.13, "umol/L", 3.0, 21.0, "NORMAL", "", 11.0, "WEEK 20", 140.0, "TREATMENT", "2014-05-21T15:06", 141.0]
["CDISCPILOT01", "LB", "01-701-1097", 263.0, "BILI", "Bilirubin", "CHEMISTRY", "0.6", "mg/dL", "0.2", "1.2", "10.26", 10.26, "umol/L", 3.0, 21.0, "NORMAL", "", 12.0, "WEEK 24", 168.0, "TREATMENT", "2014-06-18T10:41", 169.0]
["CDISCPILOT01", "LB", "01-701-1097", 298.0, "BILI", "Bilirubin", "CHEMISTRY", "0.5", "mg/dL", "0.2", "1.2", "8.55", 8.549999999999999, "umol/L", 3.0, 21.0, "NORMAL", "", 13.0, "WEEK 26", 182.0, "TREATMENT", "2014-07-09T09:39", 190.0]
["CDISCPILOT01", "LB", "01-701-1097", 7.0, "UREAN", "Urea Nitrogen", "CHEMISTRY", "21", "mg/dL", "4", "24", "7.497", 7.497, "mmol/L", 1.4, 8.6, "NORMAL", "Y", 1.0, "SCREENING 1", -7.0, "SCREENING", "2013-12-23T12:30", -9.0]
["CDISCPILOT01", "LB", "01-701-1097", 44.0, "UREAN", "Urea Nitrogen", "CHEMISTRY", "24", "mg/dL", "4", "24", "8.568", 8.568, "mmol/L", 1.4, 8.6, "NORMAL", "", 4.0, "WEEK 2", 14.0, "TREATMENT", "2014-01-15T10:03", 15.0]
["CDISCPILOT01", "LB", "01-701-1097", 79.0, "UREAN", "Urea Nitrogen", "CHEMISTRY", "23", "mg/dL", "4", "24", "8.211", 8.210999999999999, "mmol/L", 1.4, 8.6, "NORMAL", "", 5.0, "WEEK 4", 28.0, "TREATMENT", "2014-01-29T14:00", 29.0]
["CDISCPILOT01", "LB", "01-701-1097", 109.0, "UREAN", "Urea Nitrogen", "CHEMISTRY", "21", "mg/dL", "4", "24", "7.497", 7.497, "mmol/L", 1.4, 8.6, "NORMAL", "", 7.0, "WEEK 6", 42.0, "TREATMENT", "2014-02-11T11:16", 42.0]
["CDISCPILOT01", "LB", "01-701-1097", 139.0, "UREAN", "Urea Nitrogen", "CHEMISTRY", "21", "mg/dL", "4", "24", "7.497", 7.497, "mmol/L", 1.4, 8.6, "NORMAL", "", 8.0, "WEEK 8", 56.0, "TREATMENT", "2014-02-26T11:10", 57.0]
["CDISCPILOT01", "LB", "01-701-1097", 169.0, "UREAN", "Urea Nitrogen", "CHEMISTRY", "22", "mg/dL", "4", "24", "7.854", 7.854, "mmol/L", 1.4, 8.6, "NORMAL", "", 9.0, "WEEK 12", 84.0, "TREATMENT", "2014-03-26T08:55", 85.0]
["CDISCPILOT01", "LB", "01-701-1097", 204.0, "UREAN", "Urea Nitrogen", "CHEMISTRY", "21", "mg/dL", "4", "24", "7.497", 7.497, "mmol/L", 1.4, 8.6, "NORMAL", "", 10.0, "WEEK 16", 112.0, "TREATMENT", "2014-04-23T11:14", 113.0]
["CDISCPILOT01", "LB", "01-701-1097", 234.0, "UREAN", "Urea Nitrogen", "CHEMISTRY", "19", "mg/dL", "4", "24", "6.783", 6.7829999999999995, "mmol/L", 1.4, 8.6, "NORMAL", "", 11.0, "WEEK 20", 140.0, "TREATMENT", "2014-05-21T15:06", 141.0]
["CDISCPILOT01", "LB", "01-701-1097", 264.0, "UREAN", "Urea Nitrogen", "CHEMISTRY", "18", "mg/dL", "4", "24", "6.426", 6.425999999999999, "mmol/L", 1.4, 8.6, "NORMAL", "", 12.0, "WEEK 24", 168.0, "TREATMENT", "2014-06-18T10:41", 169.0]
["CDISCPILOT01", "LB", "01-701-1097", 299.0, "UREAN", "Urea Nitrogen", "CHEMISTRY", "19", "mg/dL", "4", "24", "6.783", 6.7829999999999995, "mmol/L", 1.4, 8.6, "NORMAL", "", 13.0, "WEEK 26", 182.0, "TREATMENT", "2014-07-09T09:39", 190.0]
["CDISCPILOT01", "LB", "01-701-1097", 8.0, "CA", "Calcium", "CHEMISTRY", "9.3", "mg/dL", "8.4", "10.3", "2.32035", 2.32035, "mmol/L", 2.1, 2.57, "NORMAL", "Y", 1.0, "SCREENING 1", -7.0, "SCREENING", "2013-12-23T12:30", -9.0]
["CDISCPILOT01", "LB", "01-701-1097", 45.0, "CA", "Calcium", "CHEMISTRY", "9.4", "mg/dL", "8.4", "10.3", "2.3453", 2.3453, "mmol/L", 2.1, 2.57, "NORMAL", "", 4.0, "WEEK 2", 14.0, "TREATMENT", "2014-01-15T10:03", 15.0]
["CDISCPILOT01", "LB", "01-701-1097", 80.0, "CA", "Calcium", "CHEMISTRY", "9.1", "mg/dL", "8.4", "10.3", "2.27045", 2.27045, "mmol/L", 2.1, 2.57, "NORMAL", "", 5.0, "WEEK 4", 28.0, "TREATMENT", "2014-01-29T14:00", 29.0]
["CDISCPILOT01", "LB", "01-701-1097", 110.0, "CA", "Calcium", "CHEMISTRY", "8.9", "mg/dL", "8.4", "10.3", "2.22055", 2.22055, "mmol/L", 2.1, 2.57, "NORMAL", "", 7.0, "WEEK 6", 42.0, "TREATMENT", "2014-02-11T11:16", 42.0]
["CDISCPILOT01", "LB", "01-701-1097", 140.0, "CA", "Calcium", "CHEMISTRY", "9.4", "mg/dL", "8.4", "10.3", "2.3453", 2.3453, "mmol/L", 2.1, 2.57, "NORMAL", "", 8.0, "WEEK 8", 56.0, "TREATMENT", "2014-02-26T11:10", 57.0]
["CDISCPILOT01", "LB", "01-701-1097", 170.0, "CA", "Calcium", "CHEMISTRY", "9.1", "mg/dL", "8.4", "10.3", "2.27045", 2.27045, "mmol/L", 2.1, 2.57, "NORMAL", "", 9.0, "WEEK 12", 84.0, "TREATMENT", "2014-03-26T08:55", 85.0]
["CDISCPILOT01", "LB", "01-701-1097", 205.0, "CA", "Calcium", "CHEMISTRY", "9.0", "mg/dL", "8.4", "10.3", "2.2455", 2.2455, "mmol/L", 2.1, 2.57, "NORMAL", "", 10.0, "WEEK 16", 112.0, "TREATMENT", "2014-04-23T11:14", 113.0]
["CDISCPILOT01", "LB", "01-701-1097", 235.0, "CA", "Calcium", "CHEMISTRY", "8.7", "mg/dL", "8.4", "10.3", "2.17065", 2.1706499999999997, "mmol/L", 2.1, 2.57, "NORMAL", "", 11.0, "WEEK 20", 140.0, "TREATMENT", "2014-05-21T15:06", 141.0]
["CDISCPILOT01", "LB", "01-701-1097", 265.0, "CA", "Calcium", "CHEMISTRY", "8.8", "mg/dL", "8.4", "10.3", "2.1956", 2.1955999999999998, "mmol/L", 2.1, 2.57, "NORMAL", "", 12.0, "WEEK 24", 168.0, "TREATMENT", "2014-06-18T10:41", 169.0]
["CDISCPILOT01", "LB", "01-701-1097", 300.0, "CA", "Calcium", "CHEMISTRY", "9.3", "mg/dL", "8.4", "10.3", "2.32035", 2.32035, "mmol/L", 2.1, 2.57, "NORMAL", "", 13.0, "WEEK 26", 182.0, "TREATMENT", "2014-07-09T09:39", 190.0]
["CDISCPILOT01", "LB", "01-701-1097", 9.0, "CHOL", "Cholesterol", "CHEMISTRY", "241", "mg/dL", "149", "286", "6.23226", 6.232259999999999, "mmol/L", 3.85, 7.3999999999999995, "NORMAL", "Y", 1.0, "SCREENING 1", -7.0, "SCREENING", "2013-12-23T12:30", -9.0]
["CDISCPILOT01", "LB", "01-701-1097", 46.0, "CHOL", "Cholesterol", "CHEMISTRY", "237", "mg/dL", "149", "286", "6.12882", 6.128819999999999, "mmol/L", 3.85, 7.3999999999999995, "NORMAL", "", 4.0, "WEEK 2", 14.0, "TREATMENT", "2014-01-15T10:03", 15.0]
["CDISCPILOT01", "LB", "01-701-1097", 81.0, "CHOL", "Cholesterol", "CHEMISTRY", "223", "mg/dL", "149", "286", "5.76678", 5.76678, "mmol/L", 3.85, 7.3999999999999995, "NORMAL", "", 5.0, "WEEK 4", 28.0, "TREATMENT", "2014-01-29T14:00", 29.0]
["CDISCPILOT01", "LB", "01-701-1097", 111.0, "CHOL", "Cholesterol", "CHEMISTRY", "215", "mg/dL", "149", "286", "5.5599", 5.5599, "mmol/L", 3.85, 7.3999999999999995, "NORMAL", "", 7.0, "WEEK 6", 42.0, "TREATMENT", "2014-02-11T11:16", 42.0]
["CDISCPILOT01", "LB", "01-701-1097", 141.0, "CHOL", "Cholesterol", "CHEMISTRY", "238", "mg/dL", "149", "286", "6.15468", 6.15468, "mmol/L", 3.85, 7.3999999999999995, "NORMAL", "", 8.0, "WEEK 8", 56.0, "TREATMENT", "2014-02-26T11:10", 57.0]
["CDISCPILOT01", "LB", "01-701-1097", 171.0, "CHOL", "Cholesterol", "CHEMISTRY", "219", "mg/dL", "149", "286", "5.66334", 5.66334, "mmol/L", 3.85, 7.3999999999999995, "NORMAL", "", 9.0, "WEEK 12", 84.0, "TREATMENT", "2014-03-26T08:55", 85.0]
["CDISCPILOT01", "LB", "01-701-1097", 206.0, "CHOL", "Cholesterol", "CHEMISTRY", "221", "mg/dL", "149", "286", "5.71506", 5.715059999999999, "mmol/L", 3.85, 7.3999999999999995, "NORMAL", "", 10.0, "WEEK 16", 112.0, "TREATMENT", "2014-04-23T11:14", 113.0]
["CDISCPILOT01", "LB", "01-701-1097", 236.0, "CHOL", "Cholesterol", "CHEMISTRY", "208", "mg/dL", "149", "286", "5.37888", 5.37888, "mmol/L", 3.85, 7.3999999999999995, "NORMAL", "", 11.0, "WEEK 20", 140.0, "TREATMENT", "2014-05-21T15:06", 141.0]
["CDISCPILOT01", "LB", "01-701-1097", 266.0, "CHOL", "Cholesterol", "CHEMISTRY", "226", "mg/dL", "149", "286", "5.84436", 5.84436, "mmol/L", 3.85, 7.3999999999999995, "NORMAL", "", 12.0, "WEEK 24", 168.0, "TREATMENT", "2014-06-18T10:41", 169.0]
["CDISCPILOT01", "LB", "01-701-1097", 301.0, "CHOL", "Cholesterol", "CHEMISTRY", "205", "mg/dL", "149", "286", "5.3013", 5.3012999999999995, "mmol/L", 3.85, 7.3999999999999995, "NORMAL", "", 13.0, "WEEK 26", 182.0, "TREATMENT", "2014-07-09T09:39", 190.0]
["CDISCPILOT01", "LB", "01-701-1097", 10.0, "CK", "Creatine Kinase", "CHEMISTRY", "96", "U/L", "22", "198", "96", 96.0, "U/L", 22.0, 198.0, "NORMAL", "Y", 1.0, "SCREENING 1", -7.0, "SCREENING", "2013-12-23T12:30", -9.0]
["CDISCPILOT01", "LB", "01-701-1097", 47.0, "CK", "Creatine Kinase", "CHEMISTRY", "84", "U/L", "22", "198", "84", 84.0, "U/L", 22.0, 198.0, "NORMAL", "", 4.0, "WEEK 2", 14.0, "TREATMENT", "2014-01-15T10:03", 15.0]
["CDISCPILOT01", "LB", "01-701-1097", 82.0, "CK", "Creatine Kinase", "CHEMISTRY", "86", "U/L", "22", "198", "86", 86.0, "U/L", 22.0, 198.0, "NORMAL", "", 5.0, "WEEK 4", 28.0, "TREATMENT", "2014-01-29T14:00", 29.0]
["CDISCPILOT01", "LB", "01-701-1097", 112.0, "CK", "Creatine Kinase", "CHEMISTRY", "126", "U/L", "22", "198", "126", 126.0, "U/L", 22.0, 198.0, "NORMAL", "", 7.0, "WEEK 6", 42.0, "TREATMENT", "2014-02-11T11:16", 42.0]
["CDISCPILOT01", "LB", "01-701-1097", 142.0, "CK", "Creatine Kinase", "CHEMISTRY", "88", "U/L", "22", "198", "88", 88.0, "U/L", 22.0, 198.0, "NORMAL", "", 8.0, "WEEK 8", 56.0, "TREATMENT", "2014-02-26T11:10", 57.0]
["CDISCPILOT01", "LB", "01-701-1097", 172.0, "CK", "Creatine Kinase", "CHEMISTRY", "63", "U/L", "22", "198", "63", 63.0, "U/L", 22.0, 198.0, "NORMAL", "", 9.0, "WEEK 12", 84.0, "TREATMENT", "2014-03-26T08:55", 85.0]
["CDISCPILOT01", "LB", "01-701-1097", 207.0, "CK", "Creatine Kinase", "CHEMISTRY", "77", "U/L", "22", "198", "77", 77.0, "U/L", 22.0, 198.0, "NORMAL", "", 10.0, "WEEK 16", 112.0, "TREATMENT", "2014-04-23T11:14", 113.0]
["CDISCPILOT01", "LB", "01-701-1097", 237.0, "CK", "Creatine Kinase", "CHEMISTRY", "82", "U/L", "22", "198", "82", 82.0, "U/L", 22.0, 198.0, "NORMAL", "", 11.0, "WEEK 20", 140.0, "TREATMENT", "2014-05-21T15:06", 141.0]
["CDISCPILOT01", "LB", "01-701-1097", 267.0, "CK", "Creatine Kinase", "CHEMISTRY", "98", "U/L", "22", "198", "98", 98.0, "U/L", 22.0, 198.0, "NORMAL", "", 12.0, "WEEK 24", 168.0, "TREATMENT", "2014-06-18T10:41", 169.0]
["CDISCPILOT01", "LB", "01-701-1097", 302.0, "CK", "Creatine Kinase", "CHEMISTRY", "86", "U/L", "22", "198", "86", 86.0, "U/L", 22.0, 198.0, "NORMAL", "", 13.0, "WEEK 26", 182.0, "TREATMENT", "2014-07-09T09:39", 190.0]
["CDISCPILOT01", "LB", "01-701-1097", 11.0, "CL", "Chloride", "CHEMISTRY", "103", "mEq/L", "94", "112", "103", 103.0, "mmol/L", 94.0, 112.0, "NORMAL", "Y", 1.0, "SCREENING 1", -7.0, "SCREENING", "2013-12-23T12:30", -9.0]
["CDISCPILOT01", "LB", "01-701-1097", 48.0, "CL", "Chloride", "CHEMISTRY", "104", "mEq/L", "94", "112", "104", 104.0, "mmol/L", 94.0, 112.0, "NORMAL", "", 4.0, "WEEK 2", 14.0, "TREATMENT", "2014-01-15T10:03", 15.0]
["CDISCPILOT01", "LB", "01-701-1097", 83.0, "CL", "Chloride", "CHEMISTRY", "103", "mEq/L", "94", "112", "103", 103.0, "mmol/L", 94.0, 112.0, "NORMAL", "", 5.0, "WEEK 4", 28.0, "TREATMENT", "2014-01-29T14:00", 29.0]
["CDISCPILOT01", "LB", "01-701-1097", 113.0, "CL", "Chloride", "CHEMISTRY", "106", "mEq/L", "94", "112", "106", 106.0, "mmol/L", 94.0, 112.0, "NORMAL", "", 7.0, "WEEK 6", 42.0, "TREATMENT", "2014-02-11T11:16", 42.0]
["CDISCPILOT01", "LB", "01-701-1097", 143.0, "CL", "Chloride", "CHEMISTRY", "100", "mEq/L", "94", "112", "100", 100.0, "mmol/L", 94.0, 112.0, "NORMAL", "", 8.0, "WEEK 8", 56.0, "TREATMENT", "2014-02-26T11:10", 57.0]
["CDISCPILOT01", "LB", "01-701-1097", 173.0, "CL", "Chloride", "CHEMISTRY", "102", "mEq/L", "94", "112", "102", 102.0, "mmol/L", 94.0, 112.0, "NORMAL", "", 9.0, "WEEK 12", 84.0, "TREATMENT", "2014-03-26T08:55", 85.0]
["CDISCPILOT01", "LB", "01-701-1097", 208.0, "CL", "Chloride", "CHEMISTRY", "103", "mEq/L", "94", "112", "103", 103.0, "mmol/L", 94.0, 112.0, "NORMAL", "", 10.0, "WEEK 16", 112.0, "TREATMENT", "2014-04-23T11:14", 113.0]
["CDISCPILOT01", "LB", "01-701-1097", 238.0, "CL", "Chloride", "CHEMISTRY", "108", "mEq/L", "94", "112", "108", 108.0, "mmol/L", 94.0, 112.0, "NORMAL", "", 11.0, "WEEK 20", 140.0, "TREATMENT", "2014-05-21T15:06", 141.0]
["CDISCPILOT01", "LB", "01-701-1097", 268.0, "CL", "Chloride", "CHEMISTRY", "103", "mEq/L", "94", "112", "103", 103.0, "mmol/L", 94.0, 112.0, "NORMAL", "", 12.0, "WEEK 24", 168.0, "TREATMENT", "2014-06-18T10:41", 169.0]
["CDISCPILOT01", "LB", "01-701-1097", 303.0, "CL", "Chloride", "CHEMISTRY", "108", "mEq/L", "94", "112", "108", 108.0, "mmol/L", 94.0, 112.0, "NORMAL", "", 13.0, "WEEK 26", 182.0, "TREATMENT", "2014-07-09T09:39", 190.0]
["CDISCPILOT01", "LB", "01-701-1097", 13.0, "CREAT", "Creatinine", "CHEMISTRY", "1.4", "mg/dL", "0.8", "1.6", "123.76", 123.75999999999999, "umol/L", 71.0, 141.0, "NORMAL", "Y", 1.0, "SCREENING 1", -7.0, "SCREENING", "2013-12-23T12:30", -9.0]
["CDISCPILOT01", "LB", "01-701-1097", 50.0, "CREAT", "Creatinine", "CHEMISTRY", "1.5", "mg/dL", "0.8", "1.6", "132.6", 132.6, "umol/L", 71.0, 141.0, "NORMAL", "", 4.0, "WEEK 2", 14.0, "TREATMENT", "2014-01-15T10:03", 15.0]
["CDISCPILOT01", "LB", "01-701-1097", 84.0, "CREAT", "Creatinine", "CHEMISTRY", "1.5", "mg/dL", "0.8", "1.6", "132.6", 132.6, "umol/L", 71.0, 141.0, "NORMAL", "", 5.0, "WEEK 4", 28.0, "TREATMENT", "2014-01-29T14:00", 29.0]
["CDISCPILOT01", "LB", "01-701-1097", 114.0, "CREAT", "Creatinine", "CHEMISTRY", "1.5", "mg/dL", "0.8", "1.6", "132.6", 132.6, "umol/L", 71.0, 141.0, "NORMAL", "", 7.0, "WEEK 6", 42.0, "TREATMENT", "2014-02-11T11:16", 42.0]
["CDISCPILOT01", "LB", "01-701-1097", 144.0, "CREAT", "Creatinine", "CHEMISTRY", "1.5", "mg/dL", "0.8", "1.6", "132.6", 132.6, "umol/L", 71.0, 141.0, "NORMAL", "", 8.0, "WEEK 8", 56.0, "TREATMENT", "2014-02-26T11:10", 57.0]
["CDISCPILOT01", "LB", "01-701-1097", 175.0, "CREAT", "Creatinine", "CHEMISTRY", "1.5", "mg/dL", "0.8", "1.6", "132.6", 132.6, "umol/L", 71.0, 141.0, "NORMAL", "", 9.0, "WEEK 12", 84.0, "TREATMENT", "2014-03-26T08:55", 85.0]
["CDISCPILOT01", "LB", "01-701-1097", 209.0, "CREAT", "Creatinine", "CHEMISTRY", "1.5", "mg/dL", "0.8", "1.6", "132.6", 132.6, "umol/L", 71.0, 141.0, "NORMAL", "", 10.0, "WEEK 16", 112.0, "TREATMENT", "2014-04-23T11:14", 113.0]
["CDISCPILOT01", "LB", "01-701-1097", 239.0, "CREAT", "Creatinine", "CHEMISTRY", "1.5", "mg/dL", "0.8", "1.6", "132.6", 132.6, "umol/L", 71.0, 141.0, "NORMAL", "", 11.0, "WEEK 20", 140.0, "TREATMENT", "2014-05-21T15:06", 141.0]
["CDISCPILOT01", "LB", "01-701-1097", 270.0, "CREAT", "Creatinine", "CHEMISTRY", "1.4", "mg/dL", "0.8", "1.6", "123.76", 123.75999999999999, "umol/L", 71.0, 141.0, "NORMAL", "", 12.0, "WEEK 24", 168.0, "TREATMENT", "2014-06-18T10:41", 169.0]
["CDISCPILOT01", "LB", "01-701-1097", 305.0, "CREAT", "Creatinine", "CHEMISTRY", "1.6", "mg/dL", "0.8", "1.6", "141.44", 141.44, "umol/L", 71.0, 141.0, "NORMAL", "", 13.0, "WEEK 26", 182.0, "TREATMENT", "2014-07-09T09:39", 190.0]
["CDISCPILOT01", "LB", "01-701-1097", 15.0, "GGT", "Gamma Glutamyl Transferase", "CHEMISTRY", "18", "U/L", "10", "50", "18", 18.0, "U/L", 10.0, 50.0, "NORMAL", "Y", 1.0, "SCREENING 1", -7.0, "SCREENING", "2013-12-23T12:30", -9.0]
["CDISCPILOT01", "LB", "01-701-1097", 52.0, "GGT", "Gamma Glutamyl Transferase", "CHEMISTRY", "21", "U/L", "10", "50", "21", 21.0, "U/L", 10.0, 50.0, "NORMAL", "", 4.0, "WEEK 2", 14.0, "TREATMENT", "2014-01-15T10:03", 15.0]
["CDISCPILOT01", "LB", "01-701-1097", 86.0, "GGT", "Gamma Glutamyl Transferase", "CHEMISTRY", "18", "U/L", "10", "50", "18", 18.0, "U/L", 10.0, 50.0, "NORMAL", "", 5.0, "WEEK 4", 28.0, "TREATMENT", "2014-01-29T14:00", 29.0]
["CDISCPILOT01", "LB", "01-701-1097", 116.0, "GGT", "Gamma Glutamyl Transferase", "CHEMISTRY", "16", "U/L", "10", "50", "16", 16.0, "U/L", 10.0, 50.0, "NORMAL", "", 7.0, "WEEK 6", 42.0, "TREATMENT", "2014-02-11T11:16", 42.0]
["CDISCPILOT01", "LB", "01-701-1097", 146.0, "GGT", "Gamma Glutamyl Transferase", "CHEMISTRY", "19", "U/L", "10", "50", "19", 19.0, "U/L", 10.0, 50.0, "NORMAL", "", 8.0, "WEEK 8", 56.0, "TREATMENT", "2014-02-26T11:10", 57.0]
["CDISCPILOT01", "LB", "01-701-1097", 177.0, "GGT", "Gamma Glutamyl Transferase", "CHEMISTRY", "19", "U/L", "10", "50", "19", 19.0, "U/L", 10.0, 50.0, "NORMAL", "", 9.0, "WEEK 12", 84.0, "TREATMENT", "2014-03-26T08:55", 85.0]
["CDISCPILOT01", "LB", "01-701-1097", 211.0, "GGT", "Gamma Glutamyl Transferase", "CHEMISTRY", "20", "U/L", "10", "50", "20", 20.0, "U/L", 10.0, 50.0, "NORMAL", "", 10.0, "WEEK 16", 112.0, "TREATMENT", "2014-04-23T11:14", 113.0]
["CDISCPILOT01", "LB", "01-701-1097", 241.0, "GGT", "Gamma Glutamyl Transferase", "CHEMISTRY", "16", "U/L", "10", "50", "16", 16.0, "U/L", 10.0, 50.0, "NORMAL", "", 11.0, "WEEK 20", 140.0, "TREATMENT", "2014-05-21T15:06", 141.0]
["CDISCPILOT01", "LB", "01-701-1097", 272.0, "GGT", "Gamma Glutamyl Transferase", "CHEMISTRY", "20", "U/L", "10", "50", "20", 20.0, "U/L", 10.0, 50.0, "NORMAL", "", 12.0, "WEEK 24", 168.0, "TREATMENT", "2014-06-18T10:41", 169.0]
["CDISCPILOT01", "LB", "01-701-1097", 307.0, "GGT", "Gamma Glutamyl Transferase", "CHEMISTRY", "16", "U/L", "10", "50", "16", 16.0, "U/L", 10.0, 50.0, "NORMAL", "", 13.0, "WEEK 26", 182.0, "TREATMENT", "2014-07-09T09:39", 190.0]
["CDISCPILOT01", "LB", "01-701-1097", 16.0, "GLUC", "Glucose", "CHEMISTRY", "93", "mg/dL", "50", "250", "5.16243", 5.16243, "mmol/L", 2.8, 13.899999999999999, "NORMAL", "Y", 1.0, "SCREENING 1", -7.0, "SCREENING", "2013-12-23T12:30", -9.0]
["CDISCPILOT01", "LB", "01-701-1097", 53.0, "GLUC", "Glucose", "CHEMISTRY", "90", "mg/dL", "50", "250", "4.9959", 4.9959, "mmol/L", 2.8, 13.899999999999999, "NORMAL", "", 4.0, "WEEK 2", 14.0, "TREATMENT", "2014-01-15T10:03", 15.0]
["CDISCPILOT01", "LB", "01-701-1097", 87.0, "GLUC", "Glucose", "CHEMISTRY", "97", "mg/dL", "50", "250", "5.38447", 5.384469999999999, "mmol/L", 2.8, 13.899999999999999, "NORMAL", "", 5.0, "WEEK 4", 28.0, "TREATMENT", "2014-01-29T14:00", 29.0]
["CDISCPILOT01", "LB", "01-701-1097", 117.0, "GLUC", "Glucose", "CHEMISTRY", "67", "mg/dL", "50", "250", "3.71917", 3.71917, "mmol/L", 2.8, 13.899999999999999, "NORMAL", "", 7.0, "WEEK 6", 42.0, "TREATMENT", "2014-02-11T11:16", 42.0]
["CDISCPILOT01", "LB", "01-701-1097", 147.0, "GLUC", "Glucose", "CHEMISTRY", "89", "mg/dL", "50", "250", "4.94039", 4.94039, "mmol/L", 2.8, 13.899999999999999, "NORMAL", "", 8.0, "WEEK 8", 56.0, "TREATMENT", "2014-02-26T11:10", 57.0]
["CDISCPILOT01", "LB", "01-701-1097", 178.0, "GLUC", "Glucose", "CHEMISTRY", "107", "mg/dL", "50", "250", "5.93957", 5.93957, "mmol/L", 2.8, 13.899999999999999, "NORMAL", "", 9.0, "WEEK 12", 84.0, "TREATMENT", "2014-03-26T08:55", 85.0]
["CDISCPILOT01", "LB", "01-701-1097", 212.0, "GLUC", "Glucose", "CHEMISTRY", "90", "mg/dL", "50", "250", "4.9959", 4.9959, "mmol/L", 2.8, 13.899999999999999, "NORMAL", "", 10.0, "WEEK 16", 112.0, "TREATMENT", "2014-04-23T11:14", 113.0]
["CDISCPILOT01", "LB", "01-701-1097", 242.0, "GLUC", "Glucose", "CHEMISTRY", "78", "mg/dL", "50", "250", "4.32978", 4.3297799999999995, "mmol/L", 2.8, 13.899999999999999, "NORMAL", "", 11.0, "WEEK 20", 140.0, "TREATMENT", "2014-05-21T15:06", 141.0]
["CDISCPILOT01", "LB", "01-701-1097", 273.0, "GLUC", "Glucose", "CHEMISTRY", "96", "mg/dL", "50", "250", "5.32896", 5.3289599999999995, "mmol/L", 2.8, 13.899999999999999, "NORMAL", "", 12.0, "WEEK 24", 168.0, "TREATMENT", "2014-06-18T10:41", 169.0]
["CDISCPILOT01", "LB", "01-701-1097", 308.0, "GLUC", "Glucose", "CHEMISTRY", "89", "mg/dL", "50", "250", "4.94039", 4.94039, "mmol/L", 2.8, 13.899999999999999, "NORMAL", "", 13.0, "WEEK 26", 182.0, "TREATMENT", "2014-07-09T09:39", 190.0]
["CDISCPILOT01", "LB", "01-701-1097", 19.0, "K", "Potassium", "CHEMISTRY", "4.6", "mEq/L", "3.4", "5.4", "4.6", 4.6, "mmol/L", 3.4, 5.3999999999999995, "NORMAL", "Y", 1.0, "SCREENING 1", -7.0, "SCREENING", "2013-12-23T12:30", -9.0]
["CDISCPILOT01", "LB", "01-701-1097", 56.0, "K", "Potassium", "CHEMISTRY", "4.8", "mEq/L", "3.4", "5.4", "4.8", 4.8, "mmol/L", 3.4, 5.3999999999999995, "NORMAL", "", 4.0, "WEEK 2", 14.0, "TREATMENT", "2014-01-15T10:03", 15.0]
["CDISCPILOT01", "LB", "01-701-1097", 90.0, "K", "Potassium", "CHEMISTRY", "4.8", "mEq/L", "3.4", "5.4", "4.8", 4.8, "mmol/L", 3.4, 5.3999999999999995, "NORMAL", "", 5.0, "WEEK 4", 28.0, "TREATMENT", "2014-01-29T14:00", 29.0]
["CDISCPILOT01", "LB", "01-701-1097", 120.0, "K", "Potassium", "CHEMISTRY", "4.6", "mEq/L", "3.4", "5.4", "4.6", 4.6, "mmol/L", 3.4, 5.3999999999999995, "NORMAL", "", 7.0, "WEEK 6", 42.0, "TREATMENT", "2014-02-11T11:16", 42.0]
["CDISCPILOT01", "LB", "01-701-1097", 150.0, "K", "Potassium", "CHEMISTRY", "5.0", "mEq/L", "3.4", "5.4", "5", 5.0, "mmol/L", 3.4, 5.3999999999999995, "NORMAL", "", 8.0, "WEEK 8", 56.0, "TREATMENT", "2014-02-26T11:10", 57.0]
["CDISCPILOT01", "LB", "01-701-1097", 181.0, "K", "Potassium", "CHEMISTRY", "4.2", "mEq/L", "3.4", "5.4", "4.2", 4.199999999999999, "mmol/L", 3.4, 5.3999999999999995, "NORMAL", "", 9.0, "WEEK 12", 84.0, "TREATMENT", "2014-03-26T08:55", 85.0]
["CDISCPILOT01", "LB", "01-701-1097", 215.0, "K", "Potassium", "CHEMISTRY", "4.7", "mEq/L", "3.4", "5.4", "4.7", 4.699999999999999, "mmol/L", 3.4, 5.3999999999999995, "NORMAL", "", 10.0, "WEEK 16", 112.0, "TREATMENT", "2014-04-23T11:14", 113.0]
["CDISCPILOT01", "LB", "01-701-1097", 245.0, "K", "Potassium", "CHEMISTRY", "4.2", "mEq/L", "3.4", "5.4", "4.2", 4.199999999999999, "mmol/L", 3.4, 5.3999999999999995, "NORMAL", "", 11.0, "WEEK 20", 140.0, "TREATMENT", "2014-05-21T15:06", 141.0]
["CDISCPILOT01", "LB", "01-701-1097", 276.0, "K", "Potassium", "CHEMISTRY", "4.1", "mEq/L", "3.4", "5.4", "4.1", 4.1, "mmol/L", 3.4, 5.3999999999999995, "NORMAL", "", 12.0, "WEEK 24", 168.0, "TREATMENT", "2014-06-18T10:41", 169.0]
["CDISCPILOT01", "LB", "01-701-1097", 311.0, "K", "Potassium", "CHEMISTRY", "5.0", "mEq/L", "3.4", "5.4", "5", 5.0, "mmol/L", 3.4, 5.3999999999999995, "NORMAL", "", 13.0, "WEEK 26", 182.0, "TREATMENT", "2014-07-09T09:39", 190.0]
["CDISCPILOT01", "LB", "01-701-1097", 26.0, "SODIUM", "Sodium", "CHEMISTRY", "134", "mEq/L", "135", "145", "134", 134.0, "mmol/L", 135.0, 145.0, "LOW", "Y", 1.0, "SCREENING 1", -7.0, "SCREENING", "2013-12-23T12:30", -9.0]
["CDISCPILOT01", "LB", "01-701-1097", 63.0, "SODIUM", "Sodium", "CHEMISTRY", "139", "mEq/L", "135", "145", "139", 139.0, "mmol/L", 135.0, 145.0, "NORMAL", "", 4.0, "WEEK 2", 14.0, "TREATMENT", "2014-01-15T10:03", 15.0]
["CDISCPILOT01", "LB", "01-701-1097", 96.0, "SODIUM", "Sodium", "CHEMISTRY", "138", "mEq/L", "135", "145", "138", 138.0, "mmol/L", 135.0, 145.0, "NORMAL", "", 5.0, "WEEK 4", 28.0, "TREATMENT", "2014-01-29T14:00", 29.0]
["CDISCPILOT01", "LB", "01-701-1097", 126.0, "SODIUM", "Sodium", "CHEMISTRY", "141", "mEq/L", "135", "145", "141", 141.0, "mmol/L", 135.0, 145.0, "NORMAL", "", 7.0, "WEEK 6", 42.0, "TREATMENT", "2014-02-11T11:16", 42.0]
["CDISCPILOT01", "LB", "01-701-1097", 156.0, "SODIUM", "Sodium", "CHEMISTRY", "136", "mEq/L", "135", "145", "136", 136.0, "mmol/L", 135.0, 145.0, "NORMAL", "", 8.0, "WEEK 8", 56.0, "TREATMENT", "2014-02-26T11:10", 57.0]
["CDISCPILOT01", "LB", "01-701-1097", 188.0, "SODIUM", "Sodium", "CHEMISTRY", "139", "mEq/L", "135", "145", "139", 139.0, "mmol/L", 135.0, 145.0, "NORMAL", "", 9.0, "WEEK 12", 84.0, "TREATMENT", "2014-03-26T08:55", 85.0]
["CDISCPILOT01", "LB", "01-701-1097", 221.0, "SODIUM", "Sodium", "CHEMISTRY", "139", "mEq/L", "135", "145", "139", 139.0, "mmol/L", 135.0, 145.0, "NORMAL", "", 10.0, "WEEK 16", 112.0, "TREATMENT", "2014-04-23T11:14", 113.0]
["CDISCPILOT01", "LB", "01-701-1097", 251.0, "SODIUM", "Sodium", "CHEMISTRY", "137", "mEq/L", "135", "145", "137", 137.0, "mmol/L", 135.0, 145.0, "NORMAL", "", 11.0, "WEEK 20", 140.0, "TREATMENT", "2014-05-21T15:06", 141.0]
["CDISCPILOT01", "LB", "01-701-1097", 283.0, "SODIUM", "Sodium", "CHEMISTRY", "136", "mEq/L", "135", "145", "136", 136.0, "mmol/L", 135.0, 145.0, "NORMAL", "", 12.0, "WEEK 24", 168.0, "TREATMENT", "2014-06-18T10:41", 169.0]
["CDISCPILOT01", "LB", "01-701-1097", 318.0, "SODIUM", "Sodium", "CHEMISTRY", "141", "mEq/L", "135", "145", "141", 141.0, "mmol/L", 135.0, 145.0, "NORMAL", "", 13.0, "WEEK 26", 182.0, "TREATMENT", "2014-07-09T09:39", 190.0]
["CDISCPILOT01", "LB", "01-701-1097", 28.0, "PHOS", "Phosphate", "CHEMISTRY", "3.2", "mg/dL", "2.2", "5.1", "1.03328", 1.03328, "mmol/L", 0.71, 1.65, "NORMAL", "Y", 1.0, "SCREENING 1", -7.0, "SCREENING", "2013-12-23T12:30", -9.0]
["CDISCPILOT01", "LB", "01-701-1097", 65.0, "PHOS", "Phosphate", "CHEMISTRY", "3.5", "mg/dL", "2.2", "5.1", "1.13015", 1.13015, "mmol/L", 0.71, 1.65, "NORMAL", "", 4.0, "WEEK 2", 14.0, "TREATMENT", "2014-01-15T10:03", 15.0]
["CDISCPILOT01", "LB", "01-701-1097", 97.0, "PHOS", "Phosphate", "CHEMISTRY", "3.4", "mg/dL", "2.2", "5.1", "1.09786", 1.09786, "mmol/L", 0.71, 1.65, "NORMAL", "", 5.0, "WEEK 4", 28.0, "TREATMENT", "2014-01-29T14:00", 29.0]
["CDISCPILOT01", "LB", "01-701-1097", 127.0, "PHOS", "Phosphate", "CHEMISTRY", "3.3", "mg/dL", "2.2", "5.1", "1.06557", 1.06557, "mmol/L", 0.71, 1.65, "NORMAL", "", 7.0, "WEEK 6", 42.0, "TREATMENT", "2014-02-11T11:16", 42.0]
["CDISCPILOT01", "LB", "01-701-1097", 157.0, "PHOS", "Phosphate", "CHEMISTRY", "3.4", "mg/dL", "2.2", "5.1", "1.09786", 1.09786, "mmol/L", 0.71, 1.65, "NORMAL", "", 8.0, "WEEK 8", 56.0, "TREATMENT", "2014-02-26T11:10", 57.0]
["CDISCPILOT01", "LB", "01-701-1097", 190.0, "PHOS", "Phosphate", "CHEMISTRY", "2.4", "mg/dL", "2.2", "5.1", "0.77496", 0.77496, "mmol/L", 0.71, 1.65, "NORMAL", "", 9.0, "WEEK 12", 84.0, "TREATMENT", "2014-03-26T08:55", 85.0]
["CDISCPILOT01", "LB", "01-701-1097", 222.0, "PHOS", "Phosphate", "CHEMISTRY", "3.4", "mg/dL", "2.2", "5.1", "1.09786", 1.09786, "mmol/L", 0.71, 1.65, "NORMAL", "", 10.0, "WEEK 16", 112.0, "TREATMENT", "2014-04-23T11:14", 113.0]
