{"datasetJSONCreationDateTime": "2025-10-13T16:15:15", "datasetJSONVersion": "1.1.0", "itemGroupOID": "{LBHE", "records": 21927, "name": "LBHE", "label": "LBHE", "columns": [{"itemOID": "IT.STUDYID", "name": "STUDYID", "label": "Study Identifier", "dataType": "string"}, {"itemOID": "IT.DOMAIN", "name": "DOMAIN", "label": "Domain Abbreviation", "dataType": "string"}, {"itemOID": "IT.USUBJID", "name": "USUBJID", "label": "Unique Subject Identifier", "dataType": "string"}, {"itemOID": "IT.LBSEQ", "name": "LBSEQ", "label": "Sequence Number", "dataType": "double"}, {"itemOID": "IT.LBTESTCD", "name": "LBTESTCD", "label": "Lab Test or Examination Short Name", "dataType": "string"}, {"itemOID": "IT.LBTEST", "name": "LBTEST", "label": "Lab Test or Examination Name", "dataType": "string"}, {"itemOID": "IT.LBCAT", "name": "LBCAT", "label": "Category for Lab Test", "dataType": "string"}, {"itemOID": "IT.LBORRES", "name": "LBORRES", "label": "Result or Finding in Original Units", "dataType": "string"}, {"itemOID": "IT.LBORRESU", "name": "LBORRESU", "label": "Original Units", "dataType": "string"}, {"itemOID": "IT.LBORNRLO", "name": "LBORNRLO", "label": "Reference Range Lower Limit in Orig Unit", "dataType": "string"}, {"itemOID": "IT.LBORNRHI", "name": "LBORNRHI", "label": "Reference Range Upper Limit in Orig Unit", "dataType": "string"}, {"itemOID": "IT.LBSTRESC", "name": "LBSTRESC", "label": "Character Result/Finding in Std Format", "dataType": "string"}, {"itemOID": "IT.LBSTRESN", "name": "LBSTRESN", "label": "Numeric Result/Finding in Standard Units", "dataType": "double"}, {"itemOID": "IT.LBSTRESU", "name": "LBSTRESU", "label": "Standard Units", "dataType": "string"}, {"itemOID": "IT.LBSTNRLO", "name": "LBSTNRLO", "label": "Reference Range Lower Limit-Std Units", "dataType": "double"}, {"itemOID": "IT.LBSTNRHI", "name": "LBSTNRHI", "label": "Reference Range Upper Limit-Std Units", "dataType": "double"}, {"itemOID": "IT.LBNRIND", "name": "LBNRIND", "label": "Reference Range Indicator", "dataType": "string"}, {"itemOID": "IT.LBBLFL", "name": "LBBLFL", "label": "Baseline Flag", "dataType": "string"}, {"itemOID": "IT.VISITNUM", "name": "VISITNUM", "label": "Visit Number", "dataType": "double"}, {"itemOID": "IT.VISIT", "name": "VISIT", "label": "Visit Name", "dataType": "string"}, {"itemOID": "IT.VISITDY", "name": "VISITDY", "label": "Planned Study Day of Visit", "dataType": "double"}, {"itemOID": "IT.EPOCH", "name": "EPOCH", "label": "Epoch", "dataType": "string"}, {"itemOID": "IT.LBDTC", "name": "LBDTC", "label": "Date/Time of Specimen Collection", "dataType": "string"}, {"itemOID": "IT.LBDY", "name": "LBDY", "label": "Study Day of Specimen Collection", "dataType": "double"}]}
["CDISCPILOT01", "LB", "01-701-1015", 4.0, "ANISO", "Anisocytes", "HEMATOLOGY", "1", "", "", "", "1", 1.0, "", null, null, "ABNORMAL", "Y", 1.0, "SCREENING 1", -7.0, "SCREENING", "2013-12-26T14:45", -7.0]
["CDISCPILOT01", "LB", "01-701-1015", 6.0, "BASO", "Basophils", "HEMATOLOGY", "0.05", "10^9/L", "0", "0.2", "0.05", 0.049999999999999996, "10^9/L", 0.0, 0.19999999999999998, "NORMAL", "Y", 1.0, "SCREENING 1", -7.0, "SCREENING", "2013-12-26T14:45", -7.0]
["CDISCPILOT01", "LB", "01-701-1015", 43.0, "BASO", "Basophils", "HEMATOLOGY", "0.03", "10^9/L", "0", "0.2", "0.03", 0.03, "10^9/L", 0.0, 0.19999999999999998, "NORMAL", "", 4.0, "WEEK 2", 14.0, "TREATMENT", "2014-01-16T13:17", 15.0]
["CDISCPILOT01", "LB", "01-701-1015", 78.0, "BASO", "Basophils", "HEMATOLOGY", "0.02", "10^9/L", "0", "0.2", "0.02", 0.02, "10^9/L", 0.0, 0.19999999999999998, "NORMAL", "", 5.0, "WEEK 4", 28.0, "TREATMENT", "2014-01-30T08:50", 29.0]
["CDISCPILOT01", "LB", "01-701-1015", 108.0, "BASO", "Basophils", "HEMATOLOGY", "0.04", "10^9/L", "0", "0.2", "0.04", 0.039999999999999994, "10^9/L", 0.0, 0.19999999999999998, "NORMAL", "", 7.0, "WEEK 6", 42.0, "TREATMENT", "2014-02-12T12:56", 42.0]
["CDISCPILOT01", "LB", "01-701-1015", 138.0, "BASO", "Basophils", "HEMATOLOGY", "0.05", "10^9/L", "0", "0.2", "0.05", 0.049999999999999996, "10^9/L", 0.0, 0.19999999999999998, "NORMAL", "", 8.0, "WEEK 8", 56.0, "TREATMENT", "2014-03-05T12:25", 63.0]
["CDISCPILOT01", "LB", "01-701-1015", 168.0, "BASO", "Basophils", "HEMATOLOGY", "0.04", "10^9/L", "0", "0.2", "0.04", 0.039999999999999994, "10^9/L", 0.0, 0.19999999999999998, "NORMAL", "", 9.0, "WEEK 12", 84.0, "TREATMENT", "2014-03-26T15:15", 84.0]
["CDISCPILOT01", "LB", "01-701-1015", 203.0, "BASO", "Basophils", "HEMATOLOGY", "0.03", "10^9/L", "0", "0.2", "0.03", 0.03, "10^9/L", 0.0, 0.19999999999999998, "NORMAL", "", 10.0, "WEEK 16", 112.0, "TREATMENT", "2014-05-07T11:21", 126.0]
["CDISCPILOT01", "LB", "01-701-1015", 233.0, "BASO", "Basophils", "HEMATOLOGY", "0.03", "10^9/L", "0", "0.2", "0.03", 0.03, "10^9/L", 0.0, 0.19999999999999998, "NORMAL", "", 11.0, "WEEK 20", 140.0, "TREATMENT", "2014-05-21T10:58", 140.0]
["CDISCPILOT01", "LB", "01-701-1015", 263.0, "BASO", "Basophils", "HEMATOLOGY", "0.04", "10^9/L", "0", "0.2", "0.04", 0.039999999999999994, "10^9/L", 0.0, 0.19999999999999998, "NORMAL", "", 12.0, "WEEK 24", 168.0, "TREATMENT", "2014-06-18T13:00", 168.0]
["CDISCPILOT01", "LB", "01-701-1015", 298.0, "BASO", "Basophils", "HEMATOLOGY", "0.03", "10^9/L", "0", "0.2", "0.03", 0.03, "10^9/L", 0.0, 0.19999999999999998, "NORMAL", "", 13.0, "WEEK 26", 182.0, "TREATMENT", "2014-07-02T11:45", 182.0]
["CDISCPILOT01", "LB", "01-701-1015", 15.0, "EOS", "Eosinophils", "HEMATOLOGY", "0.13", "10^9/L", "0", "0.57", "0.13", 0.13, "10^9/L", 0.0, 0.57, "NORMAL", "Y", 1.0, "SCREENING 1", -7.0, "SCREENING", "2013-12-26T14:45", -7.0]
["CDISCPILOT01", "LB", "01-701-1015", 52.0, "EOS", "Eosinophils", "HEMATOLOGY", "0.08", "10^9/L", "0", "0.57", "0.08", 0.08, "10^9/L", 0.0, 0.57, "NORMAL", "", 4.0, "WEEK 2", 14.0, "TREATMENT", "2014-01-16T13:17", 15.0]
["CDISCPILOT01", "LB", "01-701-1015", 86.0, "EOS", "Eosinophils", "HEMATOLOGY", "0.08", "10^9/L", "0", "0.57", "0.08", 0.08, "10^9/L", 0.0, 0.57, "NORMAL", "", 5.0, "WEEK 4", 28.0, "TREATMENT", "2014-01-30T08:50", 29.0]
["CDISCPILOT01", "LB", "01-701-1015", 116.0, "EOS", "Eosinophils", "HEMATOLOGY", "0.08", "10^9/L", "0", "0.57", "0.08", 0.08, "10^9/L", 0.0, 0.57, "NORMAL", "", 7.0, "WEEK 6", 42.0, "TREATMENT", "2014-02-12T12:56", 42.0]
["CDISCPILOT01", "LB", "01-701-1015", 146.0, "EOS", "Eosinophils", "HEMATOLOGY", "0.09", "10^9/L", "0", "0.57", "0.09", 0.09, "10^9/L", 0.0, 0.57, "NORMAL", "", 8.0, "WEEK 8", 56.0, "TREATMENT", "2014-03-05T12:25", 63.0]
["CDISCPILOT01", "LB", "01-701-1015", 177.0, "EOS", "Eosinophils", "HEMATOLOGY", "0.13", "10^9/L", "0", "0.57", "0.13", 0.13, "10^9/L", 0.0, 0.57, "NORMAL", "", 9.0, "WEEK 12", 84.0, "TREATMENT", "2014-03-26T15:15", 84.0]
["CDISCPILOT01", "LB", "01-701-1015", 211.0, "EOS", "Eosinophils", "HEMATOLOGY", "0.09", "10^9/L", "0", "0.57", "0.09", 0.09, "10^9/L", 0.0, 0.57, "NORMAL", "", 10.0, "WEEK 16", 112.0, "TREATMENT", "2014-05-07T11:21", 126.0]
["CDISCPILOT01", "LB", "01-701-1015", 241.0, "EOS", "Eosinophils", "HEMATOLOGY", "0.06", "10^9/L", "0", "0.57", "0.06", 0.06, "10^9/L", 0.0, 0.57, "NORMAL", "", 11.0, "WEEK 20", 140.0, "TREATMENT", "2014-05-21T10:58", 140.0]
["CDISCPILOT01", "LB", "01-701-1015", 272.0, "EOS", "Eosinophils", "HEMATOLOGY", "0.09", "10^9/L", "0", "0.57", "0.09", 0.09, "10^9/L", 0.0, 0.57, "NORMAL", "", 12.0, "WEEK 24", 168.0, "TREATMENT", "2014-06-18T13:00", 168.0]
["CDISCPILOT01", "LB", "01-701-1015", 306.0, "EOS", "Eosinophils", "HEMATOLOGY", "0.07", "10^9/L", "0", "0.57", "0.07", 0.07, "10^9/L", 0.0, 0.57, "NORMAL", "", 13.0, "WEEK 26", 182.0, "TREATMENT", "2014-07-02T11:45", 182.0]
["CDISCPILOT01", "LB", "01-701-1015", 18.0, "HCT", "Hematocrit", "HEMATOLOGY", "42.0", "%", "34", "48", "0.42", 0.42, "", 0.33999999999999997, 0.48, "NORMAL", "Y", 1.0, "SCREENING 1", -7.0, "SCREENING", "2013-12-26T14:45", -7.0]
["CDISCPILOT01", "LB", "01-701-1015", 55.0, "HCT", "Hematocrit", "HEMATOLOGY", "43.0", "%", "34", "48", "0.43", 0.43, "", 0.33999999999999997, 0.48, "NORMAL", "", 4.0, "WEEK 2", 14.0, "TREATMENT", "2014-01-16T13:17", 15.0]
["CDISCPILOT01", "LB", "01-701-1015", 89.0, "HCT", "Hematocrit", "HEMATOLOGY", "39.0", "%", "34", "48", "0.39", 0.38999999999999996, "", 0.33999999999999997, 0.48, "NORMAL", "", 5.0, "WEEK 4", 28.0, "TREATMENT", "2014-01-30T08:50", 29.0]
["CDISCPILOT01", "LB", "01-701-1015", 119.0, "HCT", "Hematocrit", "HEMATOLOGY", "40.0", "%", "34", "48", "0.4", 0.39999999999999997, "", 0.33999999999999997, 0.48, "NORMAL", "", 7.0, "WEEK 6", 42.0, "TREATMENT", "2014-02-12T12:56", 42.0]
["CDISCPILOT01", "LB", "01-701-1015", 149.0, "HCT", "Hematocrit", "HEMATOLOGY", "42.0", "%", "34", "48", "0.42", 0.42, "", 0.33999999999999997, 0.48, "NORMAL", "", 8.0, "WEEK 8", 56.0, "TREATMENT", "2014-03-05T12:25", 63.0]
["CDISCPILOT01", "LB", "01-701-1015", 180.0, "HCT", "Hematocrit", "HEMATOLOGY", "41.0", "%", "34", "48", "0.41", 0.41, "", 0.33999999999999997, 0.48, "NORMAL", "", 9.0, "WEEK 12", 84.0, "TREATMENT", "2014-03-26T15:15", 84.0]
["CDISCPILOT01", "LB", "01-701-1015", 214.0, "HCT", "Hematocrit", "HEMATOLOGY", "41.0", "%", "34", "48", "0.41", 0.41, "", 0.33999999999999997, 0.48, "NORMAL", "", 10.0, "WEEK 16", 112.0, "TREATMENT", "2014-05-07T11:21", 126.0]
["CDISCPILOT01", "LB", "01-701-1015", 244.0, "HCT", "Hematocrit", "HEMATOLOGY", "40.0", "%", "34", "48", "0.4", 0.39999999999999997, "", 0.33999999999999997, 0.48, "NORMAL", "", 11.0, "WEEK 20", 140.0, "TREATMENT", "2014-05-21T10:58", 140.0]
["CDISCPILOT01", "LB", "01-701-1015", 275.0, "HCT", "Hematocrit", "HEMATOLOGY", "44.0", "%", "34", "48", "0.44", 0.44, "", 0.33999999999999997, 0.48, "NORMAL", "", 12.0, "WEEK 24", 168.0, "TREATMENT", "2014-06-18T13:00", 168.0]
["CDISCPILOT01", "LB", "01-701-1015", 309.0, "HCT", "Hematocrit", "HEMATOLOGY", "45.0", "%", "34", "48", "0.45", 0.44999999999999996, "", 0.33999999999999997, 0.48, "NORMAL", "", 13.0, "WEEK 26", 182.0, "TREATMENT", "2014-07-02T11:45", 182.0]
["CDISCPILOT01", "LB", "01-701-1015", 19.0, "HGB", "Hemoglobin", "HEMATOLOGY", "14.3", "g/dL", "11.5", "15.8", "8.87458", 8.87458, "mmol/L", 7.14, 9.809999999999999, "NORMAL", "Y", 1.0, "SCREENING 1", -7.0, "SCREENING", "2013-12-26T14:45", -7.0]
["CDISCPILOT01", "LB", "01-701-1015", 56.0, "HGB", "Hemoglobin", "HEMATOLOGY", "14.3", "g/dL", "11.5", "15.8", "8.87458", 8.87458, "mmol/L", 7.14, 9.809999999999999, "NORMAL", "", 4.0, "WEEK 2", 14.0, "TREATMENT", "2014-01-16T13:17", 15.0]
["CDISCPILOT01", "LB", "01-701-1015", 90.0, "HGB", "Hemoglobin", "HEMATOLOGY", "13.4", "g/dL", "11.5", "15.8", "8.31604", 8.31604, "mmol/L", 7.14, 9.809999999999999, "NORMAL", "", 5.0, "WEEK 4", 28.0, "TREATMENT", "2014-01-30T08:50", 29.0]
["CDISCPILOT01", "LB", "01-701-1015", 120.0, "HGB", "Hemoglobin", "HEMATOLOGY", "13.8", "g/dL", "11.5", "15.8", "8.56428", 8.564279999999998, "mmol/L", 7.14, 9.809999999999999, "NORMAL", "", 7.0, "WEEK 6", 42.0, "TREATMENT", "2014-02-12T12:56", 42.0]
["CDISCPILOT01", "LB", "01-701-1015", 150.0, "HGB", "Hemoglobin", "HEMATOLOGY", "14.0", "g/dL", "11.5", "15.8", "8.6884", 8.6884, "mmol/L", 7.14, 9.809999999999999, "NORMAL", "", 8.0, "WEEK 8", 56.0, "TREATMENT", "2014-03-05T12:25", 63.0]
["CDISCPILOT01", "LB", "01-701-1015", 181.0, "HGB", "Hemoglobin", "HEMATOLOGY", "13.4", "g/dL", "11.5", "15.8", "8.31604", 8.31604, "mmol/L", 7.14, 9.809999999999999, "NORMAL", "", 9.0, "WEEK 12", 84.0, "TREATMENT", "2014-03-26T15:15", 84.0]
["CDISCPILOT01", "LB", "01-701-1015", 215.0, "HGB", "Hemoglobin", "HEMATOLOGY", "14.1", "g/dL", "11.5", "15.8", "8.75046", 8.750459999999999, "mmol/L", 7.14, 9.809999999999999, "NORMAL", "", 10.0, "WEEK 16", 112.0, "TREATMENT", "2014-05-07T11:21", 126.0]
["CDISCPILOT01", "LB", "01-701-1015", 245.0, "HGB", "Hemoglobin", "HEMATOLOGY", "13.7", "g/dL", "11.5", "15.8", "8.50222", 8.50222, "mmol/L", 7.14, 9.809999999999999, "NORMAL", "", 11.0, "WEEK 20", 140.0, "TREATMENT", "2014-05-21T10:58", 140.0]
["CDISCPILOT01", "LB", "01-701-1015", 276.0, "HGB", "Hemoglobin", "HEMATOLOGY", "14.0", "g/dL", "11.5", "15.8", "8.6884", 8.6884, "mmol/L", 7.14, 9.809999999999999, "NORMAL", "", 12.0, "WEEK 24", 168.0, "TREATMENT", "2014-06-18T13:00", 168.0]
["CDISCPILOT01", "LB", "01-701-1015", 310.0, "HGB", "Hemoglobin", "HEMATOLOGY", "14.3", "g/dL", "11.5", "15.8", "8.87458", 8.87458, "mmol/L", 7.14, 9.809999999999999, "NORMAL", "", 13.0, "WEEK 26", 182.0, "TREATMENT", "2014-07-02T11:45", 182.0]
["CDISCPILOT01", "LB", "01-701-1015", 22.0, "LYM", "Lymphocytes", "HEMATOLOGY", "2.11", "10^9/L", "0.8", "3", "2.11", 2.11, "10^9/L", 0.7999999999999999, 3.0, "NORMAL", "Y", 1.0, "SCREENING 1", -7.0, "SCREENING", "2013-12-26T14:45", -7.0]
["CDISCPILOT01", "LB", "01-701-1015", 59.0, "LYM", "Lymphocytes", "HEMATOLOGY", "1.98", "10^9/L", "0.8", "3", "1.98", 1.98, "10^9/L", 0.7999999999999999, 3.0, "NORMAL", "", 4.0, "WEEK 2", 14.0, "TREATMENT", "2014-01-16T13:17", 15.0]
["CDISCPILOT01", "LB", "01-701-1015", 92.0, "LYM", "Lymphocytes", "HEMATOLOGY", "1.93", "10^9/L", "0.8", "3", "1.93", 1.93, "10^9/L", 0.7999999999999999, 3.0, "NORMAL", "", 5.0, "WEEK 4", 28.0, "TREATMENT", "2014-01-30T08:50", 29.0]
["CDISCPILOT01", "LB", "01-701-1015", 122.0, "LYM", "Lymphocytes", "HEMATOLOGY", "1.51", "10^9/L", "0.8", "3", "1.51", 1.51, "10^9/L", 0.7999999999999999, 3.0, "NORMAL", "", 7.0, "WEEK 6", 42.0, "TREATMENT", "2014-02-12T12:56", 42.0]
["CDISCPILOT01", "LB", "01-701-1015", 152.0, "LYM", "Lymphocytes", "HEMATOLOGY", "1.97", "10^9/L", "0.8", "3", "1.97", 1.97, "10^9/L", 0.7999999999999999, 3.0, "NORMAL", "", 8.0, "WEEK 8", 56.0, "TREATMENT", "2014-03-05T12:25", 63.0]
["CDISCPILOT01", "LB", "01-701-1015", 184.0, "LYM", "Lymphocytes", "HEMATOLOGY", "2.09", "10^9/L", "0.8", "3", "2.09", 2.09, "10^9/L", 0.7999999999999999, 3.0, "NORMAL", "", 9.0, "WEEK 12", 84.0, "TREATMENT", "2014-03-26T15:15", 84.0]
["CDISCPILOT01", "LB", "01-701-1015", 217.0, "LYM", "Lymphocytes", "HEMATOLOGY", "2.02", "10^9/L", "0.8", "3", "2.02", 2.02, "10^9/L", 0.7999999999999999, 3.0, "NORMAL", "", 10.0, "WEEK 16", 112.0, "TREATMENT", "2014-05-07T11:21", 126.0]
["CDISCPILOT01", "LB", "01-701-1015", 247.0, "LYM", "Lymphocytes", "HEMATOLOGY", "1.78", "10^9/L", "0.8", "3", "1.78", 1.78, "10^9/L", 0.7999999999999999, 3.0, "NORMAL", "", 11.0, "WEEK 20", 140.0, "TREATMENT", "2014-05-21T10:58", 140.0]
["CDISCPILOT01", "LB", "01-701-1015", 279.0, "LYM", "Lymphocytes", "HEMATOLOGY", "2.55", "10^9/L", "0.8", "3", "2.55", 2.55, "10^9/L", 0.7999999999999999, 3.0, "NORMAL", "", 12.0, "WEEK 24", 168.0, "TREATMENT", "2014-06-18T13:00", 168.0]
["CDISCPILOT01", "LB", "01-701-1015", 312.0, "LYM", "Lymphocytes", "HEMATOLOGY", "2.03", "10^9/L", "0.8", "3", "2.03", 2.03, "10^9/L", 0.7999999999999999, 3.0, "NORMAL", "", 13.0, "WEEK 26", 182.0, "TREATMENT", "2014-07-02T11:45", 182.0]
["CDISCPILOT01", "LB", "01-701-1015", 23.0, "MCH", "Ery. Mean Corpuscular Hemoglobin", "HEMATOLOGY", "27", "pg", "26", "34", "1.67562", 1.67562, "fmol", 1.6, 2.1, "NORMAL", "Y", 1.0, "SCREENING 1", -7.0, "SCREENING", "2013-12-26T14:45", -7.0]
["CDISCPILOT01", "LB", "01-701-1015", 60.0, "MCH", "Ery. Mean Corpuscular Hemoglobin", "HEMATOLOGY", "27", "pg", "26", "34", "1.67562", 1.67562, "fmol", 1.6, 2.1, "NORMAL", "", 4.0, "WEEK 2", 14.0, "TREATMENT", "2014-01-16T13:17", 15.0]
["CDISCPILOT01", "LB", "01-701-1015", 93.0, "MCH", "Ery. Mean Corpuscular Hemoglobin", "HEMATOLOGY", "27", "pg", "26", "34", "1.67562", 1.67562, "fmol", 1.6, 2.1, "NORMAL", "", 5.0, "WEEK 4", 28.0, "TREATMENT", "2014-01-30T08:50", 29.0]
["CDISCPILOT01", "LB", "01-701-1015", 123.0, "MCH", "Ery. Mean Corpuscular Hemoglobin", "HEMATOLOGY", "27", "pg", "26", "34", "1.67562", 1.67562, "fmol", 1.6, 2.1, "NORMAL", "", 7.0, "WEEK 6", 42.0, "TREATMENT", "2014-02-12T12:56", 42.0]
["CDISCPILOT01", "LB", "01-701-1015", 153.0, "MCH", "Ery. Mean Corpuscular Hemoglobin", "HEMATOLOGY", "27", "pg", "26", "34", "1.67562", 1.67562, "fmol", 1.6, 2.1, "NORMAL", "", 8.0, "WEEK 8", 56.0, "TREATMENT", "2014-03-05T12:25", 63.0]
["CDISCPILOT01", "LB", "01-701-1015", 185.0, "MCH", "Ery. Mean Corpuscular Hemoglobin", "HEMATOLOGY", "27", "pg", "26", "34", "1.67562", 1.67562, "fmol", 1.6, 2.1, "NORMAL", "", 9.0, "WEEK 12", 84.0, "TREATMENT", "2014-03-26T15:15", 84.0]
["CDISCPILOT01", "LB", "01-701-1015", 218.0, "MCH", "Ery. Mean Corpuscular Hemoglobin", "HEMATOLOGY", "27", "pg", "26", "34", "1.67562", 1.67562, "fmol", 1.6, 2.1, "NORMAL", "", 10.0, "WEEK 16", 112.0, "TREATMENT", "2014-05-07T11:21", 126.0]
["CDISCPILOT01", "LB", "01-701-1015", 248.0, "MCH", "Ery. Mean Corpuscular Hemoglobin", "HEMATOLOGY", "28", "pg", "26", "34", "1.73768", 1.73768, "fmol", 1.6, 2.1, "NORMAL", "", 11.0, "WEEK 20", 140.0, "TREATMENT", "2014-05-21T10:58", 140.0]
["CDISCPILOT01", "LB", "01-701-1015", 280.0, "MCH", "Ery. Mean Corpuscular Hemoglobin", "HEMATOLOGY", "27", "pg", "26", "34", "1.67562", 1.67562, "fmol", 1.6, 2.1, "NORMAL", "", 12.0, "WEEK 24", 168.0, "TREATMENT", "2014-06-18T13:00", 168.0]
["CDISCPILOT01", "LB", "01-701-1015", 313.0, "MCH", "Ery. Mean Corpuscular Hemoglobin", "HEMATOLOGY", "27", "pg", "26", "34", "1.67562", 1.67562, "fmol", 1.6, 2.1, "NORMAL", "", 13.0, "WEEK 26", 182.0, "TREATMENT", "2014-07-02T11:45", 182.0]
["CDISCPILOT01", "LB", "01-701-1015", 24.0, "MCHC", "Ery. Mean Corpuscular HGB Concentration", "HEMATOLOGY", "34", "g/dL", "31", "38", "21.1004", 21.1004, "mmol/L", 19.0, 24.0, "NORMAL", "Y", 1.0, "SCREENING 1", -7.0, "SCREENING", "2013-12-26T14:45", -7.0]
["CDISCPILOT01", "LB", "01-701-1015", 61.0, "MCHC", "Ery. Mean Corpuscular HGB Concentration", "HEMATOLOGY", "33", "g/dL", "31", "38", "20.4798", 20.4798, "mmol/L", 19.0, 24.0, "NORMAL", "", 4.0, "WEEK 2", 14.0, "TREATMENT", "2014-01-16T13:17", 15.0]
["CDISCPILOT01", "LB", "01-701-1015", 94.0, "MCHC", "Ery. Mean Corpuscular HGB Concentration", "HEMATOLOGY", "34", "g/dL", "31", "38", "21.1004", 21.1004, "mmol/L", 19.0, 24.0, "NORMAL", "", 5.0, "WEEK 4", 28.0, "TREATMENT", "2014-01-30T08:50", 29.0]
["CDISCPILOT01", "LB", "01-701-1015", 124.0, "MCHC", "Ery. Mean Corpuscular HGB Concentration", "HEMATOLOGY", "34", "g/dL", "31", "38", "21.1004", 21.1004, "mmol/L", 19.0, 24.0, "NORMAL", "", 7.0, "WEEK 6", 42.0, "TREATMENT", "2014-02-12T12:56", 42.0]
["CDISCPILOT01", "LB", "01-701-1015", 154.0, "MCHC", "Ery. Mean Corpuscular HGB Concentration", "HEMATOLOGY", "33", "g/dL", "31", "38", "20.4798", 20.4798, "mmol/L", 19.0, 24.0, "NORMAL", "", 8.0, "WEEK 8", 56.0, "TREATMENT", "2014-03-05T12:25", 63.0]
["CDISCPILOT01", "LB", "01-701-1015", 186.0, "MCHC", "Ery. Mean Corpuscular HGB Concentration", "HEMATOLOGY", "33", "g/dL", "31", "38", "20.4798", 20.4798, "mmol/L", 19.0, 24.0, "NORMAL", "", 9.0, "WEEK 12", 84.0, "TREATMENT", "2014-03-26T15:15", 84.0]
["CDISCPILOT01", "LB", "01-701-1015", 219.0, "MCHC", "Ery. Mean Corpuscular HGB Concentration", "HEMATOLOGY", "35", "g/dL", "31", "38", "21.721", 21.721, "mmol/L", 19.0, 24.0, "NORMAL", "", 10.0, "WEEK 16", 112.0, "TREATMENT", "2014-05-07T11:21", 126.0]
["CDISCPILOT01", "LB", "01-701-1015", 249.0, "MCHC", "Ery. Mean Corpuscular HGB Concentration", "HEMATOLOGY", "35", "g/dL", "31", "38", "21.721", 21.721, "mmol/L", 19.0, 24.0, "NORMAL", "", 11.0, "WEEK 20", 140.0, "TREATMENT", "2014-05-21T10:58", 140.0]
["CDISCPILOT01", "LB", "01-701-1015", 281.0, "MCHC", "Ery. Mean Corpuscular HGB Concentration", "HEMATOLOGY", "32", "g/dL", "31", "38", "19.8592", 19.8592, "mmol/L", 19.0, 24.0, "NORMAL", "", 12.0, "WEEK 24", 168.0, "TREATMENT", "2014-06-18T13:00", 168.0]
["CDISCPILOT01", "LB", "01-701-1015", 314.0, "MCHC", "Ery. Mean Corpuscular HGB Concentration", "HEMATOLOGY", "32", "g/dL", "31", "38", "19.8592", 19.8592, "mmol/L", 19.0, 24.0, "NORMAL", "", 13.0, "WEEK 26", 182.0, "TREATMENT", "2014-07-02T11:45", 182.0]
["CDISCPILOT01", "LB", "01-701-1015", 25.0, "MCV", "Ery. Mean Corpuscular Volume", "HEMATOLOGY", "80", "fL", "80", "100", "80", 80.0, "fL", 80.0, 100.0, "NORMAL", "Y", 1.0, "SCREENING 1", -7.0, "SCREENING", "2013-12-26T14:45", -7.0]
["CDISCPILOT01", "LB", "01-701-1015", 62.0, "MCV", "Ery. Mean Corpuscular Volume", "HEMATOLOGY", "81", "fL", "80", "100", "81", 81.0, "fL", 80.0, 100.0, "NORMAL", "", 4.0, "WEEK 2", 14.0, "TREATMENT", "2014-01-16T13:17", 15.0]
["CDISCPILOT01", "LB", "01-701-1015", 95.0, "MCV", "Ery. Mean Corpuscular Volume", "HEMATOLOGY", "78", "fL", "80", "100", "78", 78.0, "fL", 80.0, 100.0, "LOW", "", 5.0, "WEEK 4", 28.0, "TREATMENT", "2014-01-30T08:50", 29.0]
["CDISCPILOT01", "LB", "01-701-1015", 125.0, "MCV", "Ery. Mean Corpuscular Volume", "HEMATOLOGY", "80", "fL", "80", "100", "80", 80.0, "fL", 80.0, 100.0, "NORMAL", "", 7.0, "WEEK 6", 42.0, "TREATMENT", "2014-02-12T12:56", 42.0]
["CDISCPILOT01", "LB", "01-701-1015", 155.0, "MCV", "Ery. Mean Corpuscular Volume", "HEMATOLOGY", "83", "fL", "80", "100", "83", 83.0, "fL", 80.0, 100.0, "NORMAL", "", 8.0, "WEEK 8", 56.0, "TREATMENT", "2014-03-05T12:25", 63.0]
["CDISCPILOT01", "LB", "01-701-1015", 187.0, "MCV", "Ery. Mean Corpuscular Volume", "HEMATOLOGY", "81", "fL", "80", "100", "81", 81.0, "fL", 80.0, 100.0, "NORMAL", "", 9.0, "WEEK 12", 84.0, "TREATMENT", "2014-03-26T15:15", 84.0]
["CDISCPILOT01", "LB", "01-701-1015", 220.0, "MCV", "Ery. Mean Corpuscular Volume", "HEMATOLOGY", "79", "fL", "80", "100", "79", 79.0, "fL", 80.0, 100.0, "LOW", "", 10.0, "WEEK 16", 112.0, "TREATMENT", "2014-05-07T11:21", 126.0]
["CDISCPILOT01", "LB", "01-701-1015", 250.0, "MCV", "Ery. Mean Corpuscular Volume", "HEMATOLOGY", "80", "fL", "80", "100", "80", 80.0, "fL", 80.0, 100.0, "NORMAL", "", 11.0, "WEEK 20", 140.0, "TREATMENT", "2014-05-21T10:58", 140.0]
["CDISCPILOT01", "LB", "01-701-1015", 282.0, "MCV", "Ery. Mean Corpuscular Volume", "HEMATOLOGY", "82", "fL", "80", "100", "82", 82.0, "fL", 80.0, 100.0, "NORMAL", "", 12.0, "WEEK 24", 168.0, "TREATMENT", "2014-06-18T13:00", 168.0]
["CDISCPILOT01", "LB", "01-701-1015", 315.0, "MCV", "Ery. Mean Corpuscular Volume", "HEMATOLOGY", "84", "fL", "80", "100", "84", 84.0, "fL", 80.0, 100.0, "NORMAL", "", 13.0, "WEEK 26", 182.0, "TREATMENT", "2014-07-02T11:45", 182.0]
["CDISCPILOT01", "LB", "01-701-1015", 26.0, "MONO", "Monocytes", "HEMATOLOGY", "0.22", "10^9/L", "0.12", "0.92", "0.22", 0.22, "10^9/L", 0.12, 0.9199999999999999, "NORMAL", "Y", 1.0, "SCREENING 1", -7.0, "SCREENING", "2013-12-26T14:45", -7.0]
["CDISCPILOT01", "LB", "01-701-1015", 63.0, "MONO", "Monocytes", "HEMATOLOGY", "0.26", "10^9/L", "0.12", "0.92", "0.26", 0.25999999999999995, "10^9/L", 0.12, 0.9199999999999999, "NORMAL", "", 4.0, "WEEK 2", 14.0, "TREATMENT", "2014-01-16T13:17", 15.0]
["CDISCPILOT01", "LB", "01-701-1015", 96.0, "MONO", "Monocytes", "HEMATOLOGY", "0.23", "10^9/L", "0.12", "0.92", "0.23", 0.22999999999999998, "10^9/L", 0.12, 0.9199999999999999, "NORMAL", "", 5.0, "WEEK 4", 28.0, "TREATMENT", "2014-01-30T08:50", 29.0]
["CDISCPILOT01", "LB", "01-701-1015", 126.0, "MONO", "Monocytes", "HEMATOLOGY", "0.28", "10^9/L", "0.12", "0.92", "0.28", 0.27999999999999997, "10^9/L", 0.12, 0.9199999999999999, "NORMAL", "", 7.0, "WEEK 6", 42.0, "TREATMENT", "2014-02-12T12:56", 42.0]
["CDISCPILOT01", "LB", "01-701-1015", 156.0, "MONO", "Monocytes", "HEMATOLOGY", "0.24", "10^9/L", "0.12", "0.92", "0.24", 0.24, "10^9/L", 0.12, 0.9199999999999999, "NORMAL", "", 8.0, "WEEK 8", 56.0, "TREATMENT", "2014-03-05T12:25", 63.0]
["CDISCPILOT01", "LB", "01-701-1015", 188.0, "MONO", "Monocytes", "HEMATOLOGY", "0.24", "10^9/L", "0.12", "0.92", "0.24", 0.24, "10^9/L", 0.12, 0.9199999999999999, "NORMAL", "", 9.0, "WEEK 12", 84.0, "TREATMENT", "2014-03-26T15:15", 84.0]
["CDISCPILOT01", "LB", "01-701-1015", 221.0, "MONO", "Monocytes", "HEMATOLOGY", "0.33", "10^9/L", "0.12", "0.92", "0.33", 0.32999999999999996, "10^9/L", 0.12, 0.9199999999999999, "NORMAL", "", 10.0, "WEEK 16", 112.0, "TREATMENT", "2014-05-07T11:21", 126.0]
["CDISCPILOT01", "LB", "01-701-1015", 251.0, "MONO", "Monocytes", "HEMATOLOGY", "0.28", "10^9/L", "0.12", "0.92", "0.28", 0.27999999999999997, "10^9/L", 0.12, 0.9199999999999999, "NORMAL", "", 11.0, "WEEK 20", 140.0, "TREATMENT", "2014-05-21T10:58", 140.0]
["CDISCPILOT01", "LB", "01-701-1015", 283.0, "MONO", "Monocytes", "HEMATOLOGY", "0.31", "10^9/L", "0.12", "0.92", "0.31", 0.31, "10^9/L", 0.12, 0.9199999999999999, "NORMAL", "", 12.0, "WEEK 24", 168.0, "TREATMENT", "2014-06-18T13:00", 168.0]
["CDISCPILOT01", "LB", "01-701-1015", 316.0, "MONO", "Monocytes", "HEMATOLOGY", "0.31", "10^9/L", "0.12", "0.92", "0.31", 0.31, "10^9/L", 0.12, 0.9199999999999999, "NORMAL", "", 13.0, "WEEK 26", 182.0, "TREATMENT", "2014-07-02T11:45", 182.0]
["CDISCPILOT01", "LB", "01-701-1015", 30.0, "PLAT", "Platelets", "HEMATOLOGY", "266", "10^9/L", "130", "394", "266", 266.0, "10^9/L", 130.0, 394.0, "NORMAL", "Y", 1.0, "SCREENING 1", -7.0, "SCREENING", "2013-12-26T14:45", -7.0]
["CDISCPILOT01", "LB", "01-701-1015", 67.0, "PLAT", "Platelets", "HEMATOLOGY", "306", "10^9/L", "130", "394", "306", 306.0, "10^9/L", 130.0, 394.0, "NORMAL", "", 4.0, "WEEK 2", 14.0, "TREATMENT", "2014-01-16T13:17", 15.0]
["CDISCPILOT01", "LB", "01-701-1015", 99.0, "PLAT", "Platelets", "HEMATOLOGY", "238", "10^9/L", "130", "394", "238", 238.0, "10^9/L", 130.0, 394.0, "NORMAL", "", 5.0, "WEEK 4", 28.0, "TREATMENT", "2014-01-30T08:50", 29.0]
["CDISCPILOT01", "LB", "01-701-1015", 129.0, "PLAT", "Platelets", "HEMATOLOGY", "237", "10^9/L", "130", "394", "237", 237.0, "10^9/L", 130.0, 394.0, "NORMAL", "", 7.0, "WEEK 6", 42.0, "TREATMENT", "2014-02-12T12:56", 42.0]
["CDISCPILOT01", "LB", "01-701-1015", 159.0, "PLAT", "Platelets", "HEMATOLOGY", "266", "10^9/L", "130", "394", "266", 266.0, "10^9/L", 130.0, 394.0, "NORMAL", "", 8.0, "WEEK 8", 56.0, "TREATMENT", "2014-03-05T12:25", 63.0]
["CDISCPILOT01", "LB", "01-701-1015", 192.0, "PLAT", "Platelets", "HEMATOLOGY", "260", "10^9/L", "130", "394", "260", 260.0, "10^9/L", 130.0, 394.0, "NORMAL", "", 9.0, "WEEK 12", 84.0, "TREATMENT", "2014-03-26T15:15", 84.0]
["CDISCPILOT01", "LB", "01-701-1015", 224.0, "PLAT", "Platelets", "HEMATOLOGY", "266", "10^9/L", "130", "394", "266", 266.0, "10^9/L", 130.0, 394.0, "NORMAL", "", 10.0, "WEEK 16", 112.0, "TREATMENT", "2014-05-07T11:21", 126.0]
["CDISCPILOT01", "LB", "01-701-1015", 254.0, "PLAT", "Platelets", "HEMATOLOGY", "233", "10^9/L", "130", "394", "233", 233.0, "10^9/L", 130.0, 394.0, "NORMAL", "", 11.0, "WEEK 20", 140.0, "TREATMENT", "2014-05-21T10:58", 140.0]
["CDISCPILOT01", "LB", "01-701-1015", 287.0, "PLAT", "Platelets", "HEMATOLOGY", "259", "10^9/L", "130", "394", "259", 259.0, "10^9/L", 130.0, 394.0, "NORMAL", "", 12.0, "WEEK 24", 168.0, "TREATMENT", "2014-06-18T13:00", 168.0]
["CDISCPILOT01", "LB", "01-701-1015", 319.0, "PLAT", "Platelets", "HEMATOLOGY", "300", "10^9/L", "130", "394", "300", 300.0, "10^9/L", 130.0, 394.0, "NORMAL", "", 13.0, "WEEK 26", 182.0, "TREATMENT", "2014-07-02T11:45", 182.0]
["CDISCPILOT01", "LB", "01-701-1015", 32.0, "RBC", "Erythrocytes", "HEMATOLOGY", "5.30", "10^12/L", "3.9", "5.5", "5.3", 5.3, "10^12/L", 3.9, 5.5, "NORMAL", "Y", 1.0, "SCREENING 1", -7.0, "SCREENING", "2013-12-26T14:45", -7.0]
["CDISCPILOT01", "LB", "01-701-1015", 69.0, "RBC", "Erythrocytes", "HEMATOLOGY", "5.30", "10^12/L", "3.9", "5.5", "5.3", 5.3, "10^12/L", 3.9, 5.5, "NORMAL", "", 4.0, "WEEK 2", 14.0, "TREATMENT", "2014-01-16T13:17", 15.0]
["CDISCPILOT01", "LB", "01-701-1015", 101.0, "RBC", "Erythrocytes", "HEMATOLOGY", "5.00", "10^12/L", "3.9", "5.5", "5", 5.0, "10^12/L", 3.9, 5.5, "NORMAL", "", 5.0, "WEEK 4", 28.0, "TREATMENT", "2014-01-30T08:50", 29.0]
["CDISCPILOT01", "LB", "01-701-1015", 131.0, "RBC", "Erythrocytes", "HEMATOLOGY", "5.10", "10^12/L", "3.9", "5.5", "5.1", 5.1, "10^12/L", 3.9, 5.5, "NORMAL", "", 7.0, "WEEK 6", 42.0, "TREATMENT", "2014-02-12T12:56", 42.0]
["CDISCPILOT01", "LB", "01-701-1015", 161.0, "RBC", "Erythrocytes", "HEMATOLOGY", "5.10", "10^12/L", "3.9", "5.5", "5.1", 5.1, "10^12/L", 3.9, 5.5, "NORMAL", "", 8.0, "WEEK 8", 56.0, "TREATMENT", "2014-03-05T12:25", 63.0]
["CDISCPILOT01", "LB", "01-701-1015", 194.0, "RBC", "Erythrocytes", "HEMATOLOGY", "5.00", "10^12/L", "3.9", "5.5", "5", 5.0, "10^12/L", 3.9, 5.5, "NORMAL", "", 9.0, "WEEK 12", 84.0, "TREATMENT", "2014-03-26T15:15", 84.0]
["CDISCPILOT01", "LB", "01-701-1015", 226.0, "RBC", "Erythrocytes", "HEMATOLOGY", "5.20", "10^12/L", "3.9", "5.5", "5.2", 5.199999999999999, "10^12/L", 3.9, 5.5, "NORMAL", "", 10.0, "WEEK 16", 112.0, "TREATMENT", "2014-05-07T11:21", 126.0]
["CDISCPILOT01", "LB", "01-701-1015", 256.0, "RBC", "Erythrocytes", "HEMATOLOGY", "4.90", "10^12/L", "3.9", "5.5", "4.9", 4.8999999999999995, "10^12/L", 3.9, 5.5, "NORMAL", "", 11.0, "WEEK 20", 140.0, "TREATMENT", "2014-05-21T10:58", 140.0]
["CDISCPILOT01", "LB", "01-701-1015", 289.0, "RBC", "Erythrocytes", "HEMATOLOGY", "5.30", "10^12/L", "3.9", "5.5", "5.3", 5.3, "10^12/L", 3.9, 5.5, "NORMAL", "", 12.0, "WEEK 24", 168.0, "TREATMENT", "2014-06-18T13:00", 168.0]
["CDISCPILOT01", "LB", "01-701-1015", 321.0, "RBC", "Erythrocytes", "HEMATOLOGY", "5.40", "10^12/L", "3.9", "5.5", "5.4", 5.3999999999999995, "10^12/L", 3.9, 5.5, "NORMAL", "", 13.0, "WEEK 26", 182.0, "TREATMENT", "2014-07-02T11:45", 182.0]
["CDISCPILOT01", "LB", "01-701-1015", 38.0, "WBC", "Leukocytes", "HEMATOLOGY", "5.78", "10^9/L", "3.8", "10.7", "5.78", 5.779999999999999, "10^9/L", 3.8, 10.7, "NORMAL", "Y", 1.0, "SCREENING 1", -7.0, "SCREENING", "2013-12-26T14:45", -7.0]
["CDISCPILOT01", "LB", "01-701-1015", 73.0, "WBC", "Leukocytes", "HEMATOLOGY", "5.33", "10^9/L", "3.8", "10.7", "5.33", 5.33, "10^9/L", 3.8, 10.7, "NORMAL", "", 4.0, "WEEK 2", 14.0, "TREATMENT", "2014-01-16T13:17", 15.0]
["CDISCPILOT01", "LB", "01-701-1015", 103.0, "WBC", "Leukocytes", "HEMATOLOGY", "4.54", "10^9/L", "3.8", "10.7", "4.54", 4.54, "10^9/L", 3.8, 10.7, "NORMAL", "", 5.0, "WEEK 4", 28.0, "TREATMENT", "2014-01-30T08:50", 29.0]
["CDISCPILOT01", "LB", "01-701-1015", 133.0, "WBC", "Leukocytes", "HEMATOLOGY", "4.25", "10^9/L", "3.8", "10.7", "4.25", 4.25, "10^9/L", 3.8, 10.7, "NORMAL", "", 7.0, "WEEK 6", 42.0, "TREATMENT", "2014-02-12T12:56", 42.0]
["CDISCPILOT01", "LB", "01-701-1015", 163.0, "WBC", "Leukocytes", "HEMATOLOGY", "5.35", "10^9/L", "3.8", "10.7", "5.35", 5.35, "10^9/L", 3.8, 10.7, "NORMAL", "", 8.0, "WEEK 8", 56.0, "TREATMENT", "2014-03-05T12:25", 63.0]
["CDISCPILOT01", "LB", "01-701-1015", 198.0, "WBC", "Leukocytes", "HEMATOLOGY", "5.24", "10^9/L", "3.8", "10.7", "5.24", 5.239999999999999, "10^9/L", 3.8, 10.7, "NORMAL", "", 9.0, "WEEK 12", 84.0, "TREATMENT", "2014-03-26T15:15", 84.0]
["CDISCPILOT01", "LB", "01-701-1015", 228.0, "WBC", "Leukocytes", "HEMATOLOGY", "5.62", "10^9/L", "3.8", "10.7", "5.62", 5.62, "10^9/L", 3.8, 10.7, "NORMAL", "", 10.0, "WEEK 16", 112.0, "TREATMENT", "2014-05-07T11:21", 126.0]
["CDISCPILOT01", "LB", "01-701-1015", 258.0, "WBC", "Leukocytes", "HEMATOLOGY", "4.36", "10^9/L", "3.8", "10.7", "4.36", 4.359999999999999, "10^9/L", 3.8, 10.7, "NORMAL", "", 11.0, "WEEK 20", 140.0, "TREATMENT", "2014-05-21T10:58", 140.0]
["CDISCPILOT01", "LB", "01-701-1015", 293.0, "WBC", "Leukocytes", "HEMATOLOGY", "7.23", "10^9/L", "3.8", "10.7", "7.23", 7.2299999999999995, "10^9/L", 3.8, 10.7, "NORMAL", "", 12.0, "WEEK 24", 168.0, "TREATMENT", "2014-06-18T13:00", 168.0]
["CDISCPILOT01", "LB", "01-701-1015", 323.0, "WBC", "Leukocytes", "HEMATOLOGY", "5.43", "10^9/L", "3.8", "10.7", "5.43", 5.43, "10^9/L", 3.8, 10.7, "NORMAL", "", 13.0, "WEEK 26", 182.0, "TREATMENT", "2014-07-02T11:45", 182.0]
["CDISCPILOT01", "LB", "01-701-1023", 5.0, "BASO", "Basophils", "HEMATOLOGY", "0.06", "10^9/L", "0", "0.2", "0.06", 0.06, "10^9/L", 0.0, 0.19999999999999998, "NORMAL", "Y", 1.0, "SCREENING 1", -7.0, "SCREENING", "2012-07-22T12:13", -14.0]
["CDISCPILOT01", "LB", "01-701-1023", 42.0, "BASO", "Basophils", "HEMATOLOGY", "0.03", "10^9/L", "0", "0.2", "0.03", 0.03, "10^9/L", 0.0, 0.19999999999999998, "NORMAL", "", 4.0, "WEEK 2", 14.0, "TREATMENT", "2012-08-27T15:47", 23.0]
["CDISCPILOT01", "LB", "01-701-1023", 77.0, "BASO", "Basophils", "HEMATOLOGY", "0.04", "10^9/L", "0", "0.2", "0.04", 0.039999999999999994, "10^9/L", 0.0, 0.19999999999999998, "NORMAL", "", 5.0, "WEEK 4", 28.0, "TREATMENT", "2012-09-02T10:15", 29.0]
["CDISCPILOT01", "LB", "01-701-1023", 14.0, "EOS", "Eosinophils", "HEMATOLOGY", "0.09", "10^9/L", "0", "0.57", "0.09", 0.09, "10^9/L", 0.0, 0.57, "NORMAL", "Y", 1.0, "SCREENING 1", -7.0, "SCREENING", "2012-07-22T12:13", -14.0]
["CDISCPILOT01", "LB", "01-701-1023", 51.0, "EOS", "Eosinophils", "HEMATOLOGY", "0.07", "10^9/L", "0", "0.57", "0.07", 0.07, "10^9/L", 0.0, 0.57, "NORMAL", "", 4.0, "WEEK 2", 14.0, "TREATMENT", "2012-08-27T15:47", 23.0]
["CDISCPILOT01", "LB", "01-701-1023", 86.0, "EOS", "Eosinophils", "HEMATOLOGY", "0.07", "10^9/L", "0", "0.57", "0.07", 0.07, "10^9/L", 0.0, 0.57, "NORMAL", "", 5.0, "WEEK 4", 28.0, "TREATMENT", "2012-09-02T10:15", 29.0]
["CDISCPILOT01", "LB", "01-701-1023", 17.0, "HCT", "Hematocrit", "HEMATOLOGY", "49.0", "%", "37", "51", "0.49", 0.49, "", 0.37, 0.5099999999999999, "NORMAL", "Y", 1.0, "SCREENING 1", -7.0, "SCREENING", "2012-07-22T12:13", -14.0]
["CDISCPILOT01", "LB", "01-701-1023", 54.0, "HCT", "Hematocrit", "HEMATOLOGY", "46.0", "%", "37", "51", "0.46", 0.45999999999999996, "", 0.37, 0.5099999999999999, "NORMAL", "", 4.0, "WEEK 2", 14.0, "TREATMENT", "2012-08-27T15:47", 23.0]
["CDISCPILOT01", "LB", "01-701-1023", 89.0, "HCT", "Hematocrit", "HEMATOLOGY", "48.0", "%", "37", "51", "0.48", 0.48, "", 0.37, 0.5099999999999999, "NORMAL", "", 5.0, "WEEK 4", 28.0, "TREATMENT", "2012-09-02T10:15", 29.0]
["CDISCPILOT01", "LB", "01-701-1023", 18.0, "HGB", "Hemoglobin", "HEMATOLOGY", "16.2", "g/dL", "12.5", "17", "10.05372", 10.053719999999998, "mmol/L", 7.76, 10.549999999999999, "NORMAL", "Y", 1.0, "SCREENING 1", -7.0, "SCREENING", "2012-07-22T12:13", -14.0]
["CDISCPILOT01", "LB", "01-701-1023", 55.0, "HGB", "Hemoglobin", "HEMATOLOGY", "14.9", "g/dL", "12.5", "17", "9.24694", 9.246939999999999, "mmol/L", 7.76, 10.549999999999999, "NORMAL", "", 4.0, "WEEK 2", 14.0, "TREATMENT", "2012-08-27T15:47", 23.0]
["CDISCPILOT01", "LB", "01-701-1023", 90.0, "HGB", "Hemoglobin", "HEMATOLOGY", "15.3", "g/dL", "12.5", "17", "9.49518", 9.49518, "mmol/L", 7.76, 10.549999999999999, "NORMAL", "", 5.0, "WEEK 4", 28.0, "TREATMENT", "2012-09-02T10:15", 29.0]
["CDISCPILOT01", "LB", "01-701-1023", 21.0, "LYM", "Lymphocytes", "HEMATOLOGY", "1.69", "10^9/L", "0.8", "3", "1.69", 1.69, "10^9/L", 0.7999999999999999, 3.0, "NORMAL", "Y", 1.0, "SCREENING 1", -7.0, "SCREENING", "2012-07-22T12:13", -14.0]
["CDISCPILOT01", "LB", "01-701-1023", 58.0, "LYM", "Lymphocytes", "HEMATOLOGY", "2.33", "10^9/L", "0.8", "3", "2.33", 2.33, "10^9/L", 0.7999999999999999, 3.0, "NORMAL", "", 4.0, "WEEK 2", 14.0, "TREATMENT", "2012-08-27T15:47", 23.0]
["CDISCPILOT01", "LB", "01-701-1023", 93.0, "LYM", "Lymphocytes", "HEMATOLOGY", "1.40", "10^9/L", "0.8", "3", "1.4", 1.4, "10^9/L", 0.7999999999999999, 3.0, "NORMAL", "", 5.0, "WEEK 4", 28.0, "TREATMENT", "2012-09-02T10:15", 29.0]
["CDISCPILOT01", "LB", "01-701-1023", 22.0, "MCH", "Ery. Mean Corpuscular Hemoglobin", "HEMATOLOGY", "30", "pg", "26", "34", "1.8618", 1.8618, "fmol", 1.6, 2.1, "NORMAL", "Y", 1.0, "SCREENING 1", -7.0, "SCREENING", "2012-07-22T12:13", -14.0]
["CDISCPILOT01", "LB", "01-701-1023", 59.0, "MCH", "Ery. Mean Corpuscular Hemoglobin", "HEMATOLOGY", "31", "pg", "26", "34", "1.92386", 1.92386, "fmol", 1.6, 2.1, "NORMAL", "", 4.0, "WEEK 2", 14.0, "TREATMENT", "2012-08-27T15:47", 23.0]
["CDISCPILOT01", "LB", "01-701-1023", 94.0, "MCH", "Ery. Mean Corpuscular Hemoglobin", "HEMATOLOGY", "30", "pg", "26", "34", "1.8618", 1.8618, "fmol", 1.6, 2.1, "NORMAL", "", 5.0, "WEEK 4", 28.0, "TREATMENT", "2012-09-02T10:15", 29.0]
["CDISCPILOT01", "LB", "01-701-1023", 23.0, "MCHC", "Ery. Mean Corpuscular HGB Concentration", "HEMATOLOGY", "33", "g/dL", "31", "38", "20.4798", 20.4798, "mmol/L", 19.0, 24.0, "NORMAL", "Y", 1.0, "SCREENING 1", -7.0, "SCREENING", "2012-07-22T12:13", -14.0]
["CDISCPILOT01", "LB", "01-701-1023", 60.0, "MCHC", "Ery. Mean Corpuscular HGB Concentration", "HEMATOLOGY", "33", "g/dL", "31", "38", "20.4798", 20.4798, "mmol/L", 19.0, 24.0, "NORMAL", "", 4.0, "WEEK 2", 14.0, "TREATMENT", "2012-08-27T15:47", 23.0]
["CDISCPILOT01", "LB", "01-701-1023", 95.0, "MCHC", "Ery. Mean Corpuscular HGB Concentration", "HEMATOLOGY", "32", "g/dL", "31", "38", "19.8592", 19.8592, "mmol/L", 19.0, 24.0, "NORMAL", "", 5.0, "WEEK 4", 28.0, "TREATMENT", "2012-09-02T10:15", 29.0]
["CDISCPILOT01", "LB", "01-701-1023", 24.0, "MCV", "Ery. Mean Corpuscular Volume", "HEMATOLOGY", "92", "fL", "80", "100", "92", 92.0, "fL", 80.0, 100.0, "NORMAL", "Y", 1.0, "SCREENING 1", -7.0, "SCREENING", "2012-07-22T12:13", -14.0]
["CDISCPILOT01", "LB", "01-701-1023", 61.0, "MCV", "Ery. Mean Corpuscular Volume", "HEMATOLOGY", "95", "fL", "80", "100", "95", 95.0, "fL", 80.0, 100.0, "NORMAL", "", 4.0, "WEEK 2", 14.0, "TREATMENT", "2012-08-27T15:47", 23.0]
["CDISCPILOT01", "LB", "01-701-1023", 96.0, "MCV", "Ery. Mean Corpuscular Volume", "HEMATOLOGY", "92", "fL", "80", "100", "92", 92.0, "fL", 80.0, 100.0, "NORMAL", "", 5.0, "WEEK 4", 28.0, "TREATMENT", "2012-09-02T10:15", 29.0]
["CDISCPILOT01", "LB", "01-701-1023", 25.0, "MONO", "Monocytes", "HEMATOLOGY", "0.61", "10^9/L", "0.12", "0.92", "0.61", 0.61, "10^9/L", 0.12, 0.9199999999999999, "NORMAL", "Y", 1.0, "SCREENING 1", -7.0, "SCREENING", "2012-07-22T12:13", -14.0]
["CDISCPILOT01", "LB", "01-701-1023", 62.0, "MONO", "Monocytes", "HEMATOLOGY", "0.64", "10^9/L", "0.12", "0.92", "0.64", 0.6399999999999999, "10^9/L", 0.12, 0.9199999999999999, "NORMAL", "", 4.0, "WEEK 2", 14.0, "TREATMENT", "2012-08-27T15:47", 23.0]
["CDISCPILOT01", "LB", "01-701-1023", 97.0, "MONO", "Monocytes", "HEMATOLOGY", "0.58", "10^9/L", "0.12", "0.92", "0.58", 0.58, "10^9/L", 0.12, 0.9199999999999999, "NORMAL", "", 5.0, "WEEK 4", 28.0, "TREATMENT", "2012-09-02T10:15", 29.0]
["CDISCPILOT01", "LB", "01-701-1023", 29.0, "PLAT", "Platelets", "HEMATOLOGY", "217", "10^9/L", "130", "394", "217", 217.0, "10^9/L", 130.0, 394.0, "NORMAL", "Y", 1.0, "SCREENING 1", -7.0, "SCREENING", "2012-07-22T12:13", -14.0]
["CDISCPILOT01", "LB", "01-701-1023", 66.0, "PLAT", "Platelets", "HEMATOLOGY", "222", "10^9/L", "130", "394", "222", 222.0, "10^9/L", 130.0, 394.0, "NORMAL", "", 4.0, "WEEK 2", 14.0, "TREATMENT", "2012-08-27T15:47", 23.0]
["CDISCPILOT01", "LB", "01-701-1023", 101.0, "PLAT", "Platelets", "HEMATOLOGY", "198", "10^9/L", "130", "394", "198", 198.0, "10^9/L", 130.0, 394.0, "NORMAL", "", 5.0, "WEEK 4", 28.0, "TREATMENT", "2012-09-02T10:15", 29.0]
["CDISCPILOT01", "LB", "01-701-1023", 31.0, "RBC", "Erythrocytes", "HEMATOLOGY", "5.30", "10^12/L", "4", "5.8", "5.3", 5.3, "10^12/L", 4.0, 5.8, "NORMAL", "Y", 1.0, "SCREENING 1", -7.0, "SCREENING", "2012-07-22T12:13", -14.0]
["CDISCPILOT01", "LB", "01-701-1023", 68.0, "RBC", "Erythrocytes", "HEMATOLOGY", "4.80", "10^12/L", "4", "5.8", "4.8", 4.8, "10^12/L", 4.0, 5.8, "NORMAL", "", 4.0, "WEEK 2", 14.0, "TREATMENT", "2012-08-27T15:47", 23.0]
["CDISCPILOT01", "LB", "01-701-1023", 103.0, "RBC", "Erythrocytes", "HEMATOLOGY", "5.20", "10^12/L", "4", "5.8", "5.2", 5.199999999999999, "10^12/L", 4.0, 5.8, "NORMAL", "", 5.0, "WEEK 4", 28.0, "TREATMENT", "2012-09-02T10:15", 29.0]
["CDISCPILOT01", "LB", "01-701-1023", 37.0, "WBC", "Leukocytes", "HEMATOLOGY", "8.78", "10^9/L", "3.8", "10.7", "8.78", 8.78, "10^9/L", 3.8, 10.7, "NORMAL", "Y", 1.0, "SCREENING 1", -7.0, "SCREENING", "2012-07-22T12:13", -14.0]
["CDISCPILOT01", "LB", "01-701-1023", 72.0, "WBC", "Leukocytes", "HEMATOLOGY", "8.55", "10^9/L", "3.8", "10.7", "8.55", 8.549999999999999, "10^9/L", 3.8, 10.7, "NORMAL", "", 4.0, "WEEK 2", 14.0, "TREATMENT", "2012-08-27T15:47", 23.0]
["CDISCPILOT01", "LB", "01-701-1023", 107.0, "WBC", "Leukocytes", "HEMATOLOGY", "7.67", "10^9/L", "3.8", "10.7", "7.67", 7.67, "10^9/L", 3.8, 10.7, "NORMAL", "", 5.0, "WEEK 4", 28.0, "TREATMENT", "2012-09-02T10:15", 29.0]
["CDISCPILOT01", "LB", "01-701-1028", 201.0, "ANISO", "Anisocytes", "HEMATOLOGY", "1", "", "", "", "1", 1.0, "", null, null, "ABNORMAL", "", 10.0, "WEEK 16", 112.0, "TREATMENT", "2013-11-06T10:08", 111.0]
["CDISCPILOT01", "LB", "01-701-1028", 233.0, "ANISO", "Anisocytes", "HEMATOLOGY", "1", "", "", "", "1", 1.0, "", null, null, "ABNORMAL", "", 11.0, "WEEK 20", 140.0, "TREATMENT", "2013-12-04T15:10", 139.0]
["CDISCPILOT01", "LB", "01-701-1028", 5.0, "BASO", "Basophils", "HEMATOLOGY", "0.06", "10^9/L", "0", "0.2", "0.06", 0.06, "10^9/L", 0.0, 0.19999999999999998, "NORMAL", "Y", 1.0, "SCREENING 1", -7.0, "SCREENING", "2013-07-11T12:02", -8.0]
["CDISCPILOT01", "LB", "01-701-1028", 42.0, "BASO", "Basophils", "HEMATOLOGY", "0.06", "10^9/L", "0", "0.2", "0.06", 0.06, "10^9/L", 0.0, 0.19999999999999998, "NORMAL", "", 4.0, "WEEK 2", 14.0, "TREATMENT", "2013-08-01T09:15", 14.0]
["CDISCPILOT01", "LB", "01-701-1028", 77.0, "BASO", "Basophils", "HEMATOLOGY", "0.04", "10^9/L", "0", "0.2", "0.04", 0.039999999999999994, "10^9/L", 0.0, 0.19999999999999998, "NORMAL", "", 5.0, "WEEK 4", 28.0, "TREATMENT", "2013-08-14T13:24", 27.0]
["CDISCPILOT01", "LB", "01-701-1028", 107.0, "BASO", "Basophils", "HEMATOLOGY", "0.04", "10^9/L", "0", "0.2", "0.04", 0.039999999999999994, "10^9/L", 0.0, 0.19999999999999998, "NORMAL", "", 7.0, "WEEK 6", 42.0, "TREATMENT", "2013-08-29T11:54", 42.0]
["CDISCPILOT01", "LB", "01-701-1028", 137.0, "BASO", "Basophils", "HEMATOLOGY", "0.04", "10^9/L", "0", "0.2", "0.04", 0.039999999999999994, "10^9/L", 0.0, 0.19999999999999998, "NORMAL", "", 8.0, "WEEK 8", 56.0, "TREATMENT", "2013-09-10T09:13", 54.0]
["CDISCPILOT01", "LB", "01-701-1028", 167.0, "BASO", "Basophils", "HEMATOLOGY", "0.07", "10^9/L", "0", "0.2", "0.07", 0.07, "10^9/L", 0.0, 0.19999999999999998, "NORMAL", "", 9.0, "WEEK 12", 84.0, "TREATMENT", "2013-10-09T08:42", 83.0]
["CDISCPILOT01", "LB", "01-701-1028", 203.0, "BASO", "Basophils", "HEMATOLOGY", "0.05", "10^9/L", "0", "0.2", "0.05", 0.049999999999999996, "10^9/L", 0.0, 0.19999999999999998, "NORMAL", "", 10.0, "WEEK 16", 112.0, "TREATMENT", "2013-11-06T10:08", 111.0]
["CDISCPILOT01", "LB", "01-701-1028", 235.0, "BASO", "Basophils", "HEMATOLOGY", "0.06", "10^9/L", "0", "0.2", "0.06", 0.06, "10^9/L", 0.0, 0.19999999999999998, "NORMAL", "", 11.0, "WEEK 20", 140.0, "TREATMENT", "2013-12-04T15:10", 139.0]
["CDISCPILOT01", "LB", "01-701-1028", 265.0, "BASO", "Basophils", "HEMATOLOGY", "0.04", "10^9/L", "0", "0.2", "0.04", 0.039999999999999994, "10^9/L", 0.0, 0.19999999999999998, "NORMAL", "", 12.0, "WEEK 24", 168.0, "TREATMENT", "2014-01-06T10:00", 172.0]
["CDISCPILOT01", "LB", "01-701-1028", 302.0, "BASO", "Basophils", "HEMATOLOGY", "0.06", "10^9/L", "0", "0.2", "0.06", 0.06, "10^9/L", 0.0, 0.19999999999999998, "NORMAL", "", 13.0, "WEEK 26", 182.0, "TREATMENT", "2014-01-14T11:10", 180.0]
["CDISCPILOT01", "LB", "01-701-1028", 14.0, "EOS", "Eosinophils", "HEMATOLOGY", "0.12", "10^9/L", "0", "0.57", "0.12", 0.12, "10^9/L", 0.0, 0.57, "NORMAL", "Y", 1.0, "SCREENING 1", -7.0, "SCREENING", "2013-07-11T12:02", -8.0]
["CDISCPILOT01", "LB", "01-701-1028", 51.0, "EOS", "Eosinophils", "HEMATOLOGY", "0.28", "10^9/L", "0", "0.57", "0.28", 0.27999999999999997, "10^9/L", 0.0, 0.57, "NORMAL", "", 4.0, "WEEK 2", 14.0, "TREATMENT", "2013-08-01T09:15", 14.0]
["CDISCPILOT01", "LB", "01-701-1028", 85.0, "EOS", "Eosinophils", "HEMATOLOGY", "0.21", "10^9/L", "0", "0.57", "0.21", 0.21, "10^9/L", 0.0, 0.57, "NORMAL", "", 5.0, "WEEK 4", 28.0, "TREATMENT", "2013-08-14T13:24", 27.0]
["CDISCPILOT01", "LB", "01-701-1028", 115.0, "EOS", "Eosinophils", "HEMATOLOGY", "0.17", "10^9/L", "0", "0.57", "0.17", 0.16999999999999998, "10^9/L", 0.0, 0.57, "NORMAL", "", 7.0, "WEEK 6", 42.0, "TREATMENT", "2013-08-29T11:54", 42.0]
["CDISCPILOT01", "LB", "01-701-1028", 145.0, "EOS", "Eosinophils", "HEMATOLOGY", "0.26", "10^9/L", "0", "0.57", "0.26", 0.25999999999999995, "10^9/L", 0.0, 0.57, "NORMAL", "", 8.0, "WEEK 8", 56.0, "TREATMENT", "2013-09-10T09:13", 54.0]
["CDISCPILOT01", "LB", "01-701-1028", 176.0, "EOS", "Eosinophils", "HEMATOLOGY", "0.17", "10^9/L", "0", "0.57", "0.17", 0.16999999999999998, "10^9/L", 0.0, 0.57, "NORMAL", "", 9.0, "WEEK 12", 84.0, "TREATMENT", "2013-10-09T08:42", 83.0]
["CDISCPILOT01", "LB", "01-701-1028", 211.0, "EOS", "Eosinophils", "HEMATOLOGY", "0.18", "10^9/L", "0", "0.57", "0.18", 0.18, "10^9/L", 0.0, 0.57, "NORMAL", "", 10.0, "WEEK 16", 112.0, "TREATMENT", "2013-11-06T10:08", 111.0]
["CDISCPILOT01", "LB", "01-701-1028", 243.0, "EOS", "Eosinophils", "HEMATOLOGY", "0.19", "10^9/L", "0", "0.57", "0.19", 0.19, "10^9/L", 0.0, 0.57, "NORMAL", "", 11.0, "WEEK 20", 140.0, "TREATMENT", "2013-12-04T15:10", 139.0]
["CDISCPILOT01", "LB", "01-701-1028", 274.0, "EOS", "Eosinophils", "HEMATOLOGY", "0.10", "10^9/L", "0", "0.57", "0.1", 0.1, "10^9/L", 0.0, 0.57, "NORMAL", "", 12.0, "WEEK 24", 168.0, "TREATMENT", "2014-01-06T10:00", 172.0]
["CDISCPILOT01", "LB", "01-701-1028", 310.0, "EOS", "Eosinophils", "HEMATOLOGY", "0.06", "10^9/L", "0", "0.57", "0.06", 0.06, "10^9/L", 0.0, 0.57, "NORMAL", "", 13.0, "WEEK 26", 182.0, "TREATMENT", "2014-01-14T11:10", 180.0]
["CDISCPILOT01", "LB", "01-701-1028", 17.0, "HCT", "Hematocrit", "HEMATOLOGY", "47.0", "%", "37", "51", "0.47", 0.47, "", 0.37, 0.5099999999999999, "NORMAL", "Y", 1.0, "SCREENING 1", -7.0, "SCREENING", "2013-07-11T12:02", -8.0]
["CDISCPILOT01", "LB", "01-701-1028", 54.0, "HCT", "Hematocrit", "HEMATOLOGY", "46.0", "%", "37", "51", "0.46", 0.45999999999999996, "", 0.37, 0.5099999999999999, "NORMAL", "", 4.0, "WEEK 2", 14.0, "TREATMENT", "2013-08-01T09:15", 14.0]
["CDISCPILOT01", "LB", "01-701-1028", 88.0, "HCT", "Hematocrit", "HEMATOLOGY", "45.0", "%", "37", "51", "0.45", 0.44999999999999996, "", 0.37, 0.5099999999999999, "NORMAL", "", 5.0, "WEEK 4", 28.0, "TREATMENT", "2013-08-14T13:24", 27.0]
["CDISCPILOT01", "LB", "01-701-1028", 118.0, "HCT", "Hematocrit", "HEMATOLOGY", "47.0", "%", "37", "51", "0.47", 0.47, "", 0.37, 0.5099999999999999, "NORMAL", "", 7.0, "WEEK 6", 42.0, "TREATMENT", "2013-08-29T11:54", 42.0]
["CDISCPILOT01", "LB", "01-701-1028", 148.0, "HCT", "Hematocrit", "HEMATOLOGY", "45.0", "%", "37", "51", "0.45", 0.44999999999999996, "", 0.37, 0.5099999999999999, "NORMAL", "", 8.0, "WEEK 8", 56.0, "TREATMENT", "2013-09-10T09:13", 54.0]
["CDISCPILOT01", "LB", "01-701-1028", 179.0, "HCT", "Hematocrit", "HEMATOLOGY", "49.0", "%", "37", "51", "0.49", 0.49, "", 0.37, 0.5099999999999999, "NORMAL", "", 9.0, "WEEK 12", 84.0, "TREATMENT", "2013-10-09T08:42", 83.0]
["CDISCPILOT01", "LB", "01-701-1028", 214.0, "HCT", "Hematocrit", "HEMATOLOGY", "43.0", "%", "37", "51", "0.43", 0.43, "", 0.37, 0.5099999999999999, "NORMAL", "", 10.0, "WEEK 16", 112.0, "TREATMENT", "2013-11-06T10:08", 111.0]
["CDISCPILOT01", "LB", "01-701-1028", 246.0, "HCT", "Hematocrit", "HEMATOLOGY", "43.0", "%", "37", "51", "0.43", 0.43, "", 0.37, 0.5099999999999999, "NORMAL", "", 11.0, "WEEK 20", 140.0, "TREATMENT", "2013-12-04T15:10", 139.0]
["CDISCPILOT01", "LB", "01-701-1028", 277.0, "HCT", "Hematocrit", "HEMATOLOGY", "48.0", "%", "37", "51", "0.48", 0.48, "", 0.37, 0.5099999999999999, "NORMAL", "", 12.0, "WEEK 24", 168.0, "TREATMENT", "2014-01-06T10:00", 172.0]
["CDISCPILOT01", "LB", "01-701-1028", 313.0, "HCT", "Hematocrit", "HEMATOLOGY", "48.0", "%", "37", "51", "0.48", 0.48, "", 0.37, 0.5099999999999999, "NORMAL", "", 13.0, "WEEK 26", 182.0, "TREATMENT", "2014-01-14T11:10", 180.0]
["CDISCPILOT01", "LB", "01-701-1028", 18.0, "HGB", "Hemoglobin", "HEMATOLOGY", "16.8", "g/dL", "12.5", "17", "10.42608", 10.426079999999999, "mmol/L", 7.76, 10.549999999999999, "NORMAL", "Y", 1.0, "SCREENING 1", -7.0, "SCREENING", "2013-07-11T12:02", -8.0]
["CDISCPILOT01", "LB", "01-701-1028", 55.0, "HGB", "Hemoglobin", "HEMATOLOGY", "15.7", "g/dL", "12.5", "17", "9.74342", 9.743419999999999, "mmol/L", 7.76, 10.549999999999999, "NORMAL", "", 4.0, "WEEK 2", 14.0, "TREATMENT", "2013-08-01T09:15", 14.0]
["CDISCPILOT01", "LB", "01-701-1028", 89.0, "HGB", "Hemoglobin", "HEMATOLOGY", "15.4", "g/dL", "12.5", "17", "9.55724", 9.557239999999998, "mmol/L", 7.76, 10.549999999999999, "NORMAL", "", 5.0, "WEEK 4", 28.0, "TREATMENT", "2013-08-14T13:24", 27.0]
["CDISCPILOT01", "LB", "01-701-1028", 119.0, "HGB", "Hemoglobin", "HEMATOLOGY", "15.9", "g/dL", "12.5", "17", "9.86754", 9.86754, "mmol/L", 7.76, 10.549999999999999, "NORMAL", "", 7.0, "WEEK 6", 42.0, "TREATMENT", "2013-08-29T11:54", 42.0]
["CDISCPILOT01", "LB", "01-701-1028", 149.0, "HGB", "Hemoglobin", "HEMATOLOGY", "15.6", "g/dL", "12.5", "17", "9.68136", 9.68136, "mmol/L", 7.76, 10.549999999999999, "NORMAL", "", 8.0, "WEEK 8", 56.0, "TREATMENT", "2013-09-10T09:13", 54.0]
["CDISCPILOT01", "LB", "01-701-1028", 180.0, "HGB", "Hemoglobin", "HEMATOLOGY", "16.3", "g/dL", "12.5", "17", "10.11578", 10.115779999999999, "mmol/L", 7.76, 10.549999999999999, "NORMAL", "", 9.0, "WEEK 12", 84.0, "TREATMENT", "2013-10-09T08:42", 83.0]
["CDISCPILOT01", "LB", "01-701-1028", 215.0, "HGB", "Hemoglobin", "HEMATOLOGY", "14.9", "g/dL", "12.5", "17", "9.24694", 9.246939999999999, "mmol/L", 7.76, 10.549999999999999, "NORMAL", "", 10.0, "WEEK 16", 112.0, "TREATMENT", "2013-11-06T10:08", 111.0]
["CDISCPILOT01", "LB", "01-701-1028", 247.0, "HGB", "Hemoglobin", "HEMATOLOGY", "14.9", "g/dL", "12.5", "17", "9.24694", 9.246939999999999, "mmol/L", 7.76, 10.549999999999999, "NORMAL", "", 11.0, "WEEK 20", 140.0, "TREATMENT", "2013-12-04T15:10", 139.0]
["CDISCPILOT01", "LB", "01-701-1028", 278.0, "HGB", "Hemoglobin", "HEMATOLOGY", "15.9", "g/dL", "12.5", "17", "9.86754", 9.86754, "mmol/L", 7.76, 10.549999999999999, "NORMAL", "", 12.0, "WEEK 24", 168.0, "TREATMENT", "2014-01-06T10:00", 172.0]
["CDISCPILOT01", "LB", "01-701-1028", 314.0, "HGB", "Hemoglobin", "HEMATOLOGY", "15.8", "g/dL", "12.5", "17", "9.80548", 9.80548, "mmol/L", 7.76, 10.549999999999999, "NORMAL", "", 13.0, "WEEK 26", 182.0, "TREATMENT", "2014-01-14T11:10", 180.0]
["CDISCPILOT01", "LB", "01-701-1028", 21.0, "LYM", "Lymphocytes", "HEMATOLOGY", "1.97", "10^9/L", "0.8", "3", "1.97", 1.97, "10^9/L", 0.7999999999999999, 3.0, "NORMAL", "Y", 1.0, "SCREENING 1", -7.0, "SCREENING", "2013-07-11T12:02", -8.0]
["CDISCPILOT01", "LB", "01-701-1028", 58.0, "LYM", "Lymphocytes", "HEMATOLOGY", "1.85", "10^9/L", "0.8", "3", "1.85", 1.85, "10^9/L", 0.7999999999999999, 3.0, "NORMAL", "", 4.0, "WEEK 2", 14.0, "TREATMENT", "2013-08-01T09:15", 14.0]
["CDISCPILOT01", "LB", "01-701-1028", 91.0, "LYM", "Lymphocytes", "HEMATOLOGY", "1.94", "10^9/L", "0.8", "3", "1.94", 1.94, "10^9/L", 0.7999999999999999, 3.0, "NORMAL", "", 5.0, "WEEK 4", 28.0, "TREATMENT", "2013-08-14T13:24", 27.0]
["CDISCPILOT01", "LB", "01-701-1028", 121.0, "LYM", "Lymphocytes", "HEMATOLOGY", "1.97", "10^9/L", "0.8", "3", "1.97", 1.97, "10^9/L", 0.7999999999999999, 3.0, "NORMAL", "", 7.0, "WEEK 6", 42.0, "TREATMENT", "2013-08-29T11:54", 42.0]
["CDISCPILOT01", "LB", "01-701-1028", 151.0, "LYM", "Lymphocytes", "HEMATOLOGY", "2.05", "10^9/L", "0.8", "3", "2.05", 2.05, "10^9/L", 0.7999999999999999, 3.0, "NORMAL", "", 8.0, "WEEK 8", 56.0, "TREATMENT", "2013-09-10T09:13", 54.0]
["CDISCPILOT01", "LB", "01-701-1028", 183.0, "LYM", "Lymphocytes", "HEMATOLOGY", "1.71", "10^9/L", "0.8", "3", "1.71", 1.71, "10^9/L", 0.7999999999999999, 3.0, "NORMAL", "", 9.0, "WEEK 12", 84.0, "TREATMENT", "2013-10-09T08:42", 83.0]
["CDISCPILOT01", "LB", "01-701-1028", 217.0, "LYM", "Lymphocytes", "HEMATOLOGY", "1.46", "10^9/L", "0.8", "3", "1.46", 1.46, "10^9/L", 0.7999999999999999, 3.0, "NORMAL", "", 10.0, "WEEK 16", 112.0, "TREATMENT", "2013-11-06T10:08", 111.0]
["CDISCPILOT01", "LB", "01-701-1028", 249.0, "LYM", "Lymphocytes", "HEMATOLOGY", "2.30", "10^9/L", "0.8", "3", "2.3", 2.3, "10^9/L", 0.7999999999999999, 3.0, "NORMAL", "", 11.0, "WEEK 20", 140.0, "TREATMENT", "2013-12-04T15:10", 139.0]
["CDISCPILOT01", "LB", "01-701-1028", 281.0, "LYM", "Lymphocytes", "HEMATOLOGY", "1.68", "10^9/L", "0.8", "3", "1.68", 1.68, "10^9/L", 0.7999999999999999, 3.0, "NORMAL", "", 12.0, "WEEK 24", 168.0, "TREATMENT", "2014-01-06T10:00", 172.0]
["CDISCPILOT01", "LB", "01-701-1028", 316.0, "LYM", "Lymphocytes", "HEMATOLOGY", "2.06", "10^9/L", "0.8", "3", "2.06", 2.06, "10^9/L", 0.7999999999999999, 3.0, "NORMAL", "", 13.0, "WEEK 26", 182.0, "TREATMENT", "2014-01-14T11:10", 180.0]
["CDISCPILOT01", "LB", "01-701-1028", 218.0, "MACROCY", "Macrocytes", "HEMATOLOGY", "1", "", "", "", "1", 1.0, "", null, null, "ABNORMAL", "", 10.0, "WEEK 16", 112.0, "TREATMENT", "2013-11-06T10:08", 111.0]
["CDISCPILOT01", "LB", "01-701-1028", 282.0, "MACROCY", "Macrocytes", "HEMATOLOGY", "1", "", "", "", "1", 1.0, "", null, null, "ABNORMAL", "", 12.0, "WEEK 24", 168.0, "TREATMENT", "2014-01-06T10:00", 172.0]
["CDISCPILOT01", "LB", "01-701-1028", 317.0, "MACROCY", "Macrocytes", "HEMATOLOGY", "1", "", "", "", "1", 1.0, "", null, null, "ABNORMAL", "", 13.0, "WEEK 26", 182.0, "TREATMENT", "2014-01-14T11:10", 180.0]
["CDISCPILOT01", "LB", "01-701-1028", 22.0, "MCH", "Ery. Mean Corpuscular Hemoglobin", "HEMATOLOGY", "37", "pg", "26", "34", "2.29622", 2.29622, "fmol", 1.6, 2.1, "HIGH", "Y", 1.0, "SCREENING 1", -7.0, "SCREENING", "2013-07-11T12:02", -8.0]
["CDISCPILOT01", "LB", "01-701-1028", 59.0, "MCH", "Ery. Mean Corpuscular Hemoglobin", "HEMATOLOGY", "34", "pg", "26", "34", "2.11004", 2.1100399999999997, "fmol", 1.6, 2.1, "NORMAL", "", 4.0, "WEEK 2", 14.0, "TREATMENT", "2013-08-01T09:15", 14.0]
["CDISCPILOT01", "LB", "01-701-1028", 92.0, "MCH", "Ery. Mean Corpuscular Hemoglobin", "HEMATOLOGY", "35", "pg", "26", "34", "2.1721", 2.1721, "fmol", 1.6, 2.1, "HIGH", "", 5.0, "WEEK 4", 28.0, "TREATMENT", "2013-08-14T13:24", 27.0]
["CDISCPILOT01", "LB", "01-701-1028", 122.0, "MCH", "Ery. Mean Corpuscular Hemoglobin", "HEMATOLOGY", "34", "pg", "26", "34", "2.11004", 2.1100399999999997, "fmol", 1.6, 2.1, "NORMAL", "", 7.0, "WEEK 6", 42.0, "TREATMENT", "2013-08-29T11:54", 42.0]
["CDISCPILOT01", "LB", "01-701-1028", 152.0, "MCH", "Ery. Mean Corpuscular Hemoglobin", "HEMATOLOGY", "35", "pg", "26", "34", "2.1721", 2.1721, "fmol", 1.6, 2.1, "HIGH", "", 8.0, "WEEK 8", 56.0, "TREATMENT", "2013-09-10T09:13", 54.0]
["CDISCPILOT01", "LB", "01-701-1028", 184.0, "MCH", "Ery. Mean Corpuscular Hemoglobin", "HEMATOLOGY", "34", "pg", "26", "34", "2.11004", 2.1100399999999997, "fmol", 1.6, 2.1, "NORMAL", "", 9.0, "WEEK 12", 84.0, "TREATMENT", "2013-10-09T08:42", 83.0]
["CDISCPILOT01", "LB", "01-701-1028", 219.0, "MCH", "Ery. Mean Corpuscular Hemoglobin", "HEMATOLOGY", "35", "pg", "26", "34", "2.1721", 2.1721, "fmol", 1.6, 2.1, "HIGH", "", 10.0, "WEEK 16", 112.0, "TREATMENT", "2013-11-06T10:08", 111.0]
["CDISCPILOT01", "LB", "01-701-1028", 250.0, "MCH", "Ery. Mean Corpuscular Hemoglobin", "HEMATOLOGY", "35", "pg", "26", "34", "2.1721", 2.1721, "fmol", 1.6, 2.1, "HIGH", "", 11.0, "WEEK 20", 140.0, "TREATMENT", "2013-12-04T15:10", 139.0]
["CDISCPILOT01", "LB", "01-701-1028", 283.0, "MCH", "Ery. Mean Corpuscular Hemoglobin", "HEMATOLOGY", "34", "pg", "26", "34", "2.11004", 2.1100399999999997, "fmol", 1.6, 2.1, "NORMAL", "", 12.0, "WEEK 24", 168.0, "TREATMENT", "2014-01-06T10:00", 172.0]
["CDISCPILOT01", "LB", "01-701-1028", 318.0, "MCH", "Ery. Mean Corpuscular Hemoglobin", "HEMATOLOGY", "35", "pg", "26", "34", "2.1721", 2.1721, "fmol", 1.6, 2.1, "HIGH", "", 13.0, "WEEK 26", 182.0, "TREATMENT", "2014-01-14T11:10", 180.0]
["CDISCPILOT01", "LB", "01-701-1028", 23.0, "MCHC", "Ery. Mean Corpuscular HGB Concentration", "HEMATOLOGY", "36", "g/dL", "31", "38", "22.3416", 22.3416, "mmol/L", 19.0, 24.0, "NORMAL", "Y", 1.0, "SCREENING 1", -7.0, "SCREENING", "2013-07-11T12:02", -8.0]
["CDISCPILOT01", "LB", "01-701-1028", 60.0, "MCHC", "Ery. Mean Corpuscular HGB Concentration", "HEMATOLOGY", "35", "g/dL", "31", "38", "21.721", 21.721, "mmol/L", 19.0, 24.0, "NORMAL", "", 4.0, "WEEK 2", 14.0, "TREATMENT", "2013-08-01T09:15", 14.0]
["CDISCPILOT01", "LB", "01-701-1028", 93.0, "MCHC", "Ery. Mean Corpuscular HGB Concentration", "HEMATOLOGY", "34", "g/dL", "31", "38", "21.1004", 21.1004, "mmol/L", 19.0, 24.0, "NORMAL", "", 5.0, "WEEK 4", 28.0, "TREATMENT", "2013-08-14T13:24", 27.0]
["CDISCPILOT01", "LB", "01-701-1028", 123.0, "MCHC", "Ery. Mean Corpuscular HGB Concentration", "HEMATOLOGY", "34", "g/dL", "31", "38", "21.1004", 21.1004, "mmol/L", 19.0, 24.0, "NORMAL", "", 7.0, "WEEK 6", 42.0, "TREATMENT", "2013-08-29T11:54", 42.0]
["CDISCPILOT01", "LB", "01-701-1028", 153.0, "MCHC", "Ery. Mean Corpuscular HGB Concentration", "HEMATOLOGY", "35", "g/dL", "31", "38", "21.721", 21.721, "mmol/L", 19.0, 24.0, "NORMAL", "", 8.0, "WEEK 8", 56.0, "TREATMENT", "2013-09-10T09:13", 54.0]
["CDISCPILOT01", "LB", "01-701-1028", 185.0, "MCHC", "Ery. Mean Corpuscular HGB Concentration", "HEMATOLOGY", "33", "g/dL", "31", "38", "20.4798", 20.4798, "mmol/L", 19.0, 24.0, "NORMAL", "", 9.0, "WEEK 12", 84.0, "TREATMENT", "2013-10-09T08:42", 83.0]
["CDISCPILOT01", "LB", "01-701-1028", 220.0, "MCHC", "Ery. Mean Corpuscular HGB Concentration", "HEMATOLOGY", "35", "g/dL", "31", "38", "21.721", 21.721, "mmol/L", 19.0, 24.0, "NORMAL", "", 10.0, "WEEK 16", 112.0, "TREATMENT", "2013-11-06T10:08", 111.0]
["CDISCPILOT01", "LB", "01-701-1028", 251.0, "MCHC", "Ery. Mean Corpuscular HGB Concentration", "HEMATOLOGY", "35", "g/dL", "31", "38", "21.721", 21.721, "mmol/L", 19.0, 24.0, "NORMAL", "", 11.0, "WEEK 20", 140.0, "TREATMENT", "2013-12-04T15:10", 139.0]
["CDISCPILOT01", "LB", "01-701-1028", 284.0, "MCHC", "Ery. Mean Corpuscular HGB Concentration", "HEMATOLOGY", "33", "g/dL", "31", "38", "20.4798", 20.4798, "mmol/L", 19.0, 24.0, "NORMAL", "", 12.0, "WEEK 24", 168.0, "TREATMENT", "2014-01-06T10:00", 172.0]
["CDISCPILOT01", "LB", "01-701-1028", 319.0, "MCHC", "Ery. Mean Corpuscular HGB Concentration", "HEMATOLOGY", "33", "g/dL", "31", "38", "20.4798", 20.4798, "mmol/L", 19.0, 24.0, "NORMAL", "", 13.0, "WEEK 26", 182.0, "TREATMENT", "2014-01-14T11:10", 180.0]
["CDISCPILOT01", "LB", "01-701-1028", 24.0, "MCV", "Ery. Mean Corpuscular Volume", "HEMATOLOGY", "104", "fL", "80", "100", "104", 104.0, "fL", 80.0, 100.0, "HIGH", "Y", 1.0, "SCREENING 1", -7.0, "SCREENING", "2013-07-11T12:02", -8.0]
["CDISCPILOT01", "LB", "01-701-1028", 61.0, "MCV", "Ery. Mean Corpuscular Volume", "HEMATOLOGY", "99", "fL", "80", "100", "99", 99.0, "fL", 80.0, 100.0, "NORMAL", "", 4.0, "WEEK 2", 14.0, "TREATMENT", "2013-08-01T09:15", 14.0]
["CDISCPILOT01", "LB", "01-701-1028", 94.0, "MCV", "Ery. Mean Corpuscular Volume", "HEMATOLOGY", "101", "fL", "80", "100", "101", 101.0, "fL", 80.0, 100.0, "HIGH", "", 5.0, "WEEK 4", 28.0, "TREATMENT", "2013-08-14T13:24", 27.0]
["CDISCPILOT01", "LB", "01-701-1028", 124.0, "MCV", "Ery. Mean Corpuscular Volume", "HEMATOLOGY", "101", "fL", "80", "100", "101", 101.0, "fL", 80.0, 100.0, "HIGH", "", 7.0, "WEEK 6", 42.0, "TREATMENT", "2013-08-29T11:54", 42.0]
["CDISCPILOT01", "LB", "01-701-1028", 154.0, "MCV", "Ery. Mean Corpuscular Volume", "HEMATOLOGY", "100", "fL", "80", "100", "100", 100.0, "fL", 80.0, 100.0, "NORMAL", "", 8.0, "WEEK 8", 56.0, "TREATMENT", "2013-09-10T09:13", 54.0]
["CDISCPILOT01", "LB", "01-701-1028", 186.0, "MCV", "Ery. Mean Corpuscular Volume", "HEMATOLOGY", "103", "fL", "80", "100", "103", 103.0, "fL", 80.0, 100.0, "HIGH", "", 9.0, "WEEK 12", 84.0, "TREATMENT", "2013-10-09T08:42", 83.0]
["CDISCPILOT01", "LB", "01-701-1028", 221.0, "MCV", "Ery. Mean Corpuscular Volume", "HEMATOLOGY", "102", "fL", "80", "100", "102", 102.0, "fL", 80.0, 100.0, "HIGH", "", 10.0, "WEEK 16", 112.0, "TREATMENT", "2013-11-06T10:08", 111.0]
["CDISCPILOT01", "LB", "01-701-1028", 252.0, "MCV", "Ery. Mean Corpuscular Volume", "HEMATOLOGY", "100", "fL", "80", "100", "100", 100.0, "fL", 80.0, 100.0, "NORMAL", "", 11.0, "WEEK 20", 140.0, "TREATMENT", "2013-12-04T15:10", 139.0]
["CDISCPILOT01", "LB", "01-701-1028", 285.0, "MCV", "Ery. Mean Corpuscular Volume", "HEMATOLOGY", "104", "fL", "80", "100", "104", 104.0, "fL", 80.0, 100.0, "HIGH", "", 12.0, "WEEK 24", 168.0, "TREATMENT", "2014-01-06T10:00", 172.0]
["CDISCPILOT01", "LB", "01-701-1028", 320.0, "MCV", "Ery. Mean Corpuscular Volume", "HEMATOLOGY", "106", "fL", "80", "100", "106", 106.0, "fL", 80.0, 100.0, "HIGH", "", 13.0, "WEEK 26", 182.0, "TREATMENT", "2014-01-14T11:10", 180.0]
["CDISCPILOT01", "LB", "01-701-1028", 25.0, "MONO", "Monocytes", "HEMATOLOGY", "0.43", "10^9/L", "0.12", "0.92", "0.43", 0.43, "10^9/L", 0.12, 0.9199999999999999, "NORMAL", "Y", 1.0, "SCREENING 1", -7.0, "SCREENING", "2013-07-11T12:02", -8.0]
["CDISCPILOT01", "LB", "01-701-1028", 62.0, "MONO", "Monocytes", "HEMATOLOGY", "0.50", "10^9/L", "0.12", "0.92", "0.5", 0.5, "10^9/L", 0.12, 0.9199999999999999, "NORMAL", "", 4.0, "WEEK 2", 14.0, "TREATMENT", "2013-08-01T09:15", 14.0]
["CDISCPILOT01", "LB", "01-701-1028", 95.0, "MONO", "Monocytes", "HEMATOLOGY", "0.65", "10^9/L", "0.12", "0.92", "0.65", 0.6499999999999999, "10^9/L", 0.12, 0.9199999999999999, "NORMAL", "", 5.0, "WEEK 4", 28.0, "TREATMENT", "2013-08-14T13:24", 27.0]
["CDISCPILOT01", "LB", "01-701-1028", 125.0, "MONO", "Monocytes", "HEMATOLOGY", "0.42", "10^9/L", "0.12", "0.92", "0.42", 0.42, "10^9/L", 0.12, 0.9199999999999999, "NORMAL", "", 7.0, "WEEK 6", 42.0, "TREATMENT", "2013-08-29T11:54", 42.0]
["CDISCPILOT01", "LB", "01-701-1028", 155.0, "MONO", "Monocytes", "HEMATOLOGY", "0.66", "10^9/L", "0.12", "0.92", "0.66", 0.6599999999999999, "10^9/L", 0.12, 0.9199999999999999, "NORMAL", "", 8.0, "WEEK 8", 56.0, "TREATMENT", "2013-09-10T09:13", 54.0]
["CDISCPILOT01", "LB", "01-701-1028", 187.0, "MONO", "Monocytes", "HEMATOLOGY", "0.50", "10^9/L", "0.12", "0.92", "0.5", 0.5, "10^9/L", 0.12, 0.9199999999999999, "NORMAL", "", 9.0, "WEEK 12", 84.0, "TREATMENT", "2013-10-09T08:42", 83.0]
["CDISCPILOT01", "LB", "01-701-1028", 222.0, "MONO", "Monocytes", "HEMATOLOGY", "0.44", "10^9/L", "0.12", "0.92", "0.44", 0.44, "10^9/L", 0.12, 0.9199999999999999, "NORMAL", "", 10.0, "WEEK 16", 112.0, "TREATMENT", "2013-11-06T10:08", 111.0]
["CDISCPILOT01", "LB", "01-701-1028", 253.0, "MONO", "Monocytes", "HEMATOLOGY", "0.47", "10^9/L", "0.12", "0.92", "0.47", 0.47, "10^9/L", 0.12, 0.9199999999999999, "NORMAL", "", 11.0, "WEEK 20", 140.0, "TREATMENT", "2013-12-04T15:10", 139.0]
["CDISCPILOT01", "LB", "01-701-1028", 286.0, "MONO", "Monocytes", "HEMATOLOGY", "0.28", "10^9/L", "0.12", "0.92", "0.28", 0.27999999999999997, "10^9/L", 0.12, 0.9199999999999999, "NORMAL", "", 12.0, "WEEK 24", 168.0, "TREATMENT", "2014-01-06T10:00", 172.0]
["CDISCPILOT01", "LB", "01-701-1028", 321.0, "MONO", "Monocytes", "HEMATOLOGY", "0.37", "10^9/L", "0.12", "0.92", "0.37", 0.37, "10^9/L", 0.12, 0.9199999999999999, "NORMAL", "", 13.0, "WEEK 26", 182.0, "TREATMENT", "2014-01-14T11:10", 180.0]
["CDISCPILOT01", "LB", "01-701-1028", 29.0, "PLAT", "Platelets", "HEMATOLOGY", "168", "10^9/L", "130", "394", "168", 168.0, "10^9/L", 130.0, 394.0, "NORMAL", "Y", 1.0, "SCREENING 1", -7.0, "SCREENING", "2013-07-11T12:02", -8.0]
["CDISCPILOT01", "LB", "01-701-1028", 66.0, "PLAT", "Platelets", "HEMATOLOGY", "177", "10^9/L", "130", "394", "177", 177.0, "10^9/L", 130.0, 394.0, "NORMAL", "", 4.0, "WEEK 2", 14.0, "TREATMENT", "2013-08-01T09:15", 14.0]
["CDISCPILOT01", "LB", "01-701-1028", 98.0, "PLAT", "Platelets", "HEMATOLOGY", "152", "10^9/L", "130", "394", "152", 152.0, "10^9/L", 130.0, 394.0, "NORMAL", "", 5.0, "WEEK 4", 28.0, "TREATMENT", "2013-08-14T13:24", 27.0]
["CDISCPILOT01", "LB", "01-701-1028", 128.0, "PLAT", "Platelets", "HEMATOLOGY", "181", "10^9/L", "130", "394", "181", 181.0, "10^9/L", 130.0, 394.0, "NORMAL", "", 7.0, "WEEK 6", 42.0, "TREATMENT", "2013-08-29T11:54", 42.0]
["CDISCPILOT01", "LB", "01-701-1028", 158.0, "PLAT", "Platelets", "HEMATOLOGY", "176", "10^9/L", "130", "394", "176", 176.0, "10^9/L", 130.0, 394.0, "NORMAL", "", 8.0, "WEEK 8", 56.0, "TREATMENT", "2013-09-10T09:13", 54.0]
["CDISCPILOT01", "LB", "01-701-1028", 191.0, "PLAT", "Platelets", "HEMATOLOGY", "167", "10^9/L", "130", "394", "167", 167.0, "10^9/L", 130.0, 394.0, "NORMAL", "", 9.0, "WEEK 12", 84.0, "TREATMENT", "2013-10-09T08:42", 83.0]
["CDISCPILOT01", "LB", "01-701-1028", 225.0, "PLAT", "Platelets", "HEMATOLOGY", "153", "10^9/L", "130", "394", "153", 153.0, "10^9/L", 130.0, 394.0, "NORMAL", "", 10.0, "WEEK 16", 112.0, "TREATMENT", "2013-11-06T10:08", 111.0]
["CDISCPILOT01", "LB", "01-701-1028", 256.0, "PLAT", "Platelets", "HEMATOLOGY", "160", "10^9/L", "130", "394", "160", 160.0, "10^9/L", 130.0, 394.0, "NORMAL", "", 11.0, "WEEK 20", 140.0, "TREATMENT", "2013-12-04T15:10", 139.0]
["CDISCPILOT01", "LB", "01-701-1028", 290.0, "PLAT", "Platelets", "HEMATOLOGY", "188", "10^9/L", "130", "394", "188", 188.0, "10^9/L", 130.0, 394.0, "NORMAL", "", 12.0, "WEEK 24", 168.0, "TREATMENT", "2014-01-06T10:00", 172.0]
["CDISCPILOT01", "LB", "01-701-1028", 324.0, "PLAT", "Platelets", "HEMATOLOGY", "161", "10^9/L", "130", "394", "161", 161.0, "10^9/L", 130.0, 394.0, "NORMAL", "", 13.0, "WEEK 26", 182.0, "TREATMENT", "2014-01-14T11:10", 180.0]
["CDISCPILOT01", "LB", "01-701-1028", 291.0, "POLYCHR", "Polychromasia", "HEMATOLOGY", "1", "", "", "", "1", 1.0, "", null, null, "ABNORMAL", "", 12.0, "WEEK 24", 168.0, "TREATMENT", "2014-01-06T10:00", 172.0]
["CDISCPILOT01", "LB", "01-701-1028", 31.0, "RBC", "Erythrocytes", "HEMATOLOGY", "4.50", "10^12/L", "4", "5.8", "4.5", 4.5, "10^12/L", 4.0, 5.8, "NORMAL", "Y", 1.0, "SCREENING 1", -7.0, "SCREENING", "2013-07-11T12:02", -8.0]
["CDISCPILOT01", "LB", "01-701-1028", 68.0, "RBC", "Erythrocytes", "HEMATOLOGY", "4.60", "10^12/L", "4", "5.8", "4.6", 4.6, "10^12/L", 4.0, 5.8, "NORMAL", "", 4.0, "WEEK 2", 14.0, "TREATMENT", "2013-08-01T09:15", 14.0]
["CDISCPILOT01", "LB", "01-701-1028", 100.0, "RBC", "Erythrocytes", "HEMATOLOGY", "4.50", "10^12/L", "4", "5.8", "4.5", 4.5, "10^12/L", 4.0, 5.8, "NORMAL", "", 5.0, "WEEK 4", 28.0, "TREATMENT", "2013-08-14T13:24", 27.0]
["CDISCPILOT01", "LB", "01-701-1028", 130.0, "RBC", "Erythrocytes", "HEMATOLOGY", "4.60", "10^12/L", "4", "5.8", "4.6", 4.6, "10^12/L", 4.0, 5.8, "NORMAL", "", 7.0, "WEEK 6", 42.0, "TREATMENT", "2013-08-29T11:54", 42.0]
["CDISCPILOT01", "LB", "01-701-1028", 160.0, "RBC", "Erythrocytes", "HEMATOLOGY", "4.50", "10^12/L", "4", "5.8", "4.5", 4.5, "10^12/L", 4.0, 5.8, "NORMAL", "", 8.0, "WEEK 8", 56.0, "TREATMENT", "2013-09-10T09:13", 54.0]
["CDISCPILOT01", "LB", "01-701-1028", 193.0, "RBC", "Erythrocytes", "HEMATOLOGY", "4.80", "10^12/L", "4", "5.8", "4.8", 4.8, "10^12/L", 4.0, 5.8, "NORMAL", "", 9.0, "WEEK 12", 84.0, "TREATMENT", "2013-10-09T08:42", 83.0]
["CDISCPILOT01", "LB", "01-701-1028", 227.0, "RBC", "Erythrocytes", "HEMATOLOGY", "4.20", "10^12/L", "4", "5.8", "4.2", 4.199999999999999, "10^12/L", 4.0, 5.8, "NORMAL", "", 10.0, "WEEK 16", 112.0, "TREATMENT", "2013-11-06T10:08", 111.0]
["CDISCPILOT01", "LB", "01-701-1028", 258.0, "RBC", "Erythrocytes", "HEMATOLOGY", "4.30", "10^12/L", "4", "5.8", "4.3", 4.3, "10^12/L", 4.0, 5.8, "NORMAL", "", 11.0, "WEEK 20", 140.0, "TREATMENT", "2013-12-04T15:10", 139.0]
["CDISCPILOT01", "LB", "01-701-1028", 293.0, "RBC", "Erythrocytes", "HEMATOLOGY", "4.60", "10^12/L", "4", "5.8", "4.6", 4.6, "10^12/L", 4.0, 5.8, "NORMAL", "", 12.0, "WEEK 24", 168.0, "TREATMENT", "2014-01-06T10:00", 172.0]
["CDISCPILOT01", "LB", "01-701-1028", 326.0, "RBC", "Erythrocytes", "HEMATOLOGY", "4.50", "10^12/L", "4", "5.8", "4.5", 4.5, "10^12/L", 4.0, 5.8, "NORMAL", "", 13.0, "WEEK 26", 182.0, "TREATMENT", "2014-01-14T11:10", 180.0]
["CDISCPILOT01", "LB", "01-701-1028", 37.0, "WBC", "Leukocytes", "HEMATOLOGY", "5.05", "10^9/L", "3.8", "10.7", "5.05", 5.05, "10^9/L", 3.8, 10.7, "NORMAL", "Y", 1.0, "SCREENING 1", -7.0, "SCREENING", "2013-07-11T12:02", -8.0]
["CDISCPILOT01", "LB", "01-701-1028", 72.0, "WBC", "Leukocytes", "HEMATOLOGY", "4.95", "10^9/L", "3.8", "10.7", "4.95", 4.949999999999999, "10^9/L", 3.8, 10.7, "NORMAL", "", 4.0, "WEEK 2", 14.0, "TREATMENT", "2013-08-01T09:15", 14.0]
["CDISCPILOT01", "LB", "01-701-1028", 102.0, "WBC", "Leukocytes", "HEMATOLOGY", "5.67", "10^9/L", "3.8", "10.7", "5.67", 5.67, "10^9/L", 3.8, 10.7, "NORMAL", "", 5.0, "WEEK 4", 28.0, "TREATMENT", "2013-08-14T13:24", 27.0]
["CDISCPILOT01", "LB", "01-701-1028", 132.0, "WBC", "Leukocytes", "HEMATOLOGY", "5.62", "10^9/L", "3.8", "10.7", "5.62", 5.62, "10^9/L", 3.8, 10.7, "NORMAL", "", 7.0, "WEEK 6", 42.0, "TREATMENT", "2013-08-29T11:54", 42.0]
["CDISCPILOT01", "LB", "01-701-1028", 162.0, "WBC", "Leukocytes", "HEMATOLOGY", "5.63", "10^9/L", "3.8", "10.7", "5.63", 5.63, "10^9/L", 3.8, 10.7, "NORMAL", "", 8.0, "WEEK 8", 56.0, "TREATMENT", "2013-09-10T09:13", 54.0]
["CDISCPILOT01", "LB", "01-701-1028", 197.0, "WBC", "Leukocytes", "HEMATOLOGY", "5.61", "10^9/L", "3.8", "10.7", "5.61", 5.609999999999999, "10^9/L", 3.8, 10.7, "NORMAL", "", 9.0, "WEEK 12", 84.0, "TREATMENT", "2013-10-09T08:42", 83.0]
["CDISCPILOT01", "LB", "01-701-1028", 229.0, "WBC", "Leukocytes", "HEMATOLOGY", "4.66", "10^9/L", "3.8", "10.7", "4.66", 4.659999999999999, "10^9/L", 3.8, 10.7, "NORMAL", "", 10.0, "WEEK 16", 112.0, "TREATMENT", "2013-11-06T10:08", 111.0]
["CDISCPILOT01", "LB", "01-701-1028", 260.0, "WBC", "Leukocytes", "HEMATOLOGY", "5.45", "10^9/L", "3.8", "10.7", "5.45", 5.449999999999999, "10^9/L", 3.8, 10.7, "NORMAL", "", 11.0, "WEEK 20", 140.0, "TREATMENT", "2013-12-04T15:10", 139.0]
["CDISCPILOT01", "LB", "01-701-1028", 297.0, "WBC", "Leukocytes", "HEMATOLOGY", "4.69", "10^9/L", "3.8", "10.7", "4.69", 4.6899999999999995, "10^9/L", 3.8, 10.7, "NORMAL", "", 12.0, "WEEK 24", 168.0, "TREATMENT", "2014-01-06T10:00", 172.0]
["CDISCPILOT01", "LB", "01-701-1028", 328.0, "WBC", "Leukocytes", "HEMATOLOGY", "5.03", "10^9/L", "3.8", "10.7", "5.03", 5.029999999999999, "10^9/L", 3.8, 10.7, "NORMAL", "", 13.0, "WEEK 26", 182.0, "TREATMENT", "2014-01-14T11:10", 180.0]
["CDISCPILOT01", "LB", "01-701-1033", 5.0, "BASO", "Basophils", "HEMATOLOGY", "0.10", "10^9/L", "0", "0.2", "0.1", 0.1, "10^9/L", 0.0, 0.19999999999999998, "NORMAL", "Y", 1.0, "SCREENING 1", -7.0, "SCREENING", "2014-03-10T12:31", -8.0]
["CDISCPILOT01", "LB", "01-701-1033", 42.0, "BASO", "Basophils", "HEMATOLOGY", "0.10", "10^9/L", "0", "0.2", "0.1", 0.1, "10^9/L", 0.0, 0.19999999999999998, "NORMAL", "", 4.0, "WEEK 2", 14.0, "TREATMENT", "2014-04-01T08:55", 15.0]
["CDISCPILOT01", "LB", "01-701-1033", 77.0, "BASO", "Basophils", "HEMATOLOGY", "0.09", "10^9/L", "0", "0.2", "0.09", 0.09, "10^9/L", 0.0, 0.19999999999999998, "NORMAL", "", 5.0, "WEEK 4", 28.0, "TREATMENT", "2014-04-14T10:38", 28.0]
["CDISCPILOT01", "LB", "01-701-1033", 14.0, "EOS", "Eosinophils", "HEMATOLOGY", "0.08", "10^9/L", "0", "0.57", "0.08", 0.08, "10^9/L", 0.0, 0.57, "NORMAL", "Y", 1.0, "SCREENING 1", -7.0, "SCREENING", "2014-03-10T12:31", -8.0]
["CDISCPILOT01", "LB", "01-701-1033", 51.0, "EOS", "Eosinophils", "HEMATOLOGY", "0.12", "10^9/L", "0", "0.57", "0.12", 0.12, "10^9/L", 0.0, 0.57, "NORMAL", "", 4.0, "WEEK 2", 14.0, "TREATMENT", "2014-04-01T08:55", 15.0]
["CDISCPILOT01", "LB", "01-701-1033", 86.0, "EOS", "Eosinophils", "HEMATOLOGY", "0.16", "10^9/L", "0", "0.57", "0.16", 0.16, "10^9/L", 0.0, 0.57, "NORMAL", "", 5.0, "WEEK 4", 28.0, "TREATMENT", "2014-04-14T10:38", 28.0]
["CDISCPILOT01", "LB", "01-701-1033", 17.0, "HCT", "Hematocrit", "HEMATOLOGY", "50.0", "%", "37", "51", "0.5", 0.5, "", 0.37, 0.5099999999999999, "NORMAL", "Y", 1.0, "SCREENING 1", -7.0, "SCREENING", "2014-03-10T12:31", -8.0]
["CDISCPILOT01", "LB", "01-701-1033", 54.0, "HCT", "Hematocrit", "HEMATOLOGY", "49.0", "%", "37", "51", "0.49", 0.49, "", 0.37, 0.5099999999999999, "NORMAL", "", 4.0, "WEEK 2", 14.0, "TREATMENT", "2014-04-01T08:55", 15.0]
["CDISCPILOT01", "LB", "01-701-1033", 89.0, "HCT", "Hematocrit", "HEMATOLOGY", "48.0", "%", "37", "51", "0.48", 0.48, "", 0.37, 0.5099999999999999, "NORMAL", "", 5.0, "WEEK 4", 28.0, "TREATMENT", "2014-04-14T10:38", 28.0]
["CDISCPILOT01", "LB", "01-701-1033", 18.0, "HGB", "Hemoglobin", "HEMATOLOGY", "16.1", "g/dL", "12.5", "17", "9.99166", 9.99166, "mmol/L", 7.76, 10.549999999999999, "NORMAL", "Y", 1.0, "SCREENING 1", -7.0, "SCREENING", "2014-03-10T12:31", -8.0]
["CDISCPILOT01", "LB", "01-701-1033", 55.0, "HGB", "Hemoglobin", "HEMATOLOGY", "16.4", "g/dL", "12.5", "17", "10.17784", 10.17784, "mmol/L", 7.76, 10.549999999999999, "NORMAL", "", 4.0, "WEEK 2", 14.0, "TREATMENT", "2014-04-01T08:55", 15.0]
["CDISCPILOT01", "LB", "01-701-1033", 90.0, "HGB", "Hemoglobin", "HEMATOLOGY", "16.2", "g/dL", "12.5", "17", "10.05372", 10.053719999999998, "mmol/L", 7.76, 10.549999999999999, "NORMAL", "", 5.0, "WEEK 4", 28.0, "TREATMENT", "2014-04-14T10:38", 28.0]
["CDISCPILOT01", "LB", "01-701-1033", 21.0, "LYM", "Lymphocytes", "HEMATOLOGY", "3.03", "10^9/L", "0.8", "3", "3.03", 3.03, "10^9/L", 0.7999999999999999, 3.0, "HIGH", "Y", 1.0, "SCREENING 1", -7.0, "SCREENING", "2014-03-10T12:31", -8.0]
["CDISCPILOT01", "LB", "01-701-1033", 58.0, "LYM", "Lymphocytes", "HEMATOLOGY", "2.54", "10^9/L", "0.8", "3", "2.54", 2.54, "10^9/L", 0.7999999999999999, 3.0, "NORMAL", "", 4.0, "WEEK 2", 14.0, "TREATMENT", "2014-04-01T08:55", 15.0]
["CDISCPILOT01", "LB", "01-701-1033", 93.0, "LYM", "Lymphocytes", "HEMATOLOGY", "2.94", "10^9/L", "0.8", "3", "2.94", 2.94, "10^9/L", 0.7999999999999999, 3.0, "NORMAL", "", 5.0, "WEEK 4", 28.0, "TREATMENT", "2014-04-14T10:38", 28.0]
["CDISCPILOT01", "LB", "01-701-1033", 22.0, "MCH", "Ery. Mean Corpuscular Hemoglobin", "HEMATOLOGY", "31", "pg", "26", "34", "1.92386", 1.92386, "fmol", 1.6, 2.1, "NORMAL", "Y", 1.0, "SCREENING 1", -7.0, "SCREENING", "2014-03-10T12:31", -8.0]
["CDISCPILOT01", "LB", "01-701-1033", 59.0, "MCH", "Ery. Mean Corpuscular Hemoglobin", "HEMATOLOGY", "32", "pg", "26", "34", "1.98592", 1.98592, "fmol", 1.6, 2.1, "NORMAL", "", 4.0, "WEEK 2", 14.0, "TREATMENT", "2014-04-01T08:55", 15.0]
["CDISCPILOT01", "LB", "01-701-1033", 94.0, "MCH", "Ery. Mean Corpuscular Hemoglobin", "HEMATOLOGY", "31", "pg", "26", "34", "1.92386", 1.92386, "fmol", 1.6, 2.1, "NORMAL", "", 5.0, "WEEK 4", 28.0, "TREATMENT", "2014-04-14T10:38", 28.0]
["CDISCPILOT01", "LB", "01-701-1033", 23.0, "MCHC", "Ery. Mean Corpuscular HGB Concentration", "HEMATOLOGY", "32", "g/dL", "31", "38", "19.8592", 19.8592, "mmol/L", 19.0, 24.0, "NORMAL", "Y", 1.0, "SCREENING 1", -7.0, "SCREENING", "2014-03-10T12:31", -8.0]
["CDISCPILOT01", "LB", "01-701-1033", 60.0, "MCHC", "Ery. Mean Corpuscular HGB Concentration", "HEMATOLOGY", "34", "g/dL", "31", "38", "21.1004", 21.1004, "mmol/L", 19.0, 24.0, "NORMAL", "", 4.0, "WEEK 2", 14.0, "TREATMENT", "2014-04-01T08:55", 15.0]
["CDISCPILOT01", "LB", "01-701-1033", 95.0, "MCHC", "Ery. Mean Corpuscular HGB Concentration", "HEMATOLOGY", "34", "g/dL", "31", "38", "21.1004", 21.1004, "mmol/L", 19.0, 24.0, "NORMAL", "", 5.0, "WEEK 4", 28.0, "TREATMENT", "2014-04-14T10:38", 28.0]
["CDISCPILOT01", "LB", "01-701-1033", 24.0, "MCV", "Ery. Mean Corpuscular Volume", "HEMATOLOGY", "95", "fL", "80", "100", "95", 95.0, "fL", 80.0, 100.0, "NORMAL", "Y", 1.0, "SCREENING 1", -7.0, "SCREENING", "2014-03-10T12:31", -8.0]
["CDISCPILOT01", "LB", "01-701-1033", 61.0, "MCV", "Ery. Mean Corpuscular Volume", "HEMATOLOGY", "95", "fL", "80", "100", "95", 95.0, "fL", 80.0, 100.0, "NORMAL", "", 4.0, "WEEK 2", 14.0, "TREATMENT", "2014-04-01T08:55", 15.0]
["CDISCPILOT01", "LB", "01-701-1033", 96.0, "MCV", "Ery. Mean Corpuscular Volume", "HEMATOLOGY", "94", "fL", "80", "100", "94", 94.0, "fL", 80.0, 100.0, "NORMAL", "", 5.0, "WEEK 4", 28.0, "TREATMENT", "2014-04-14T10:38", 28.0]
["CDISCPILOT01", "LB", "01-701-1033", 25.0, "MONO", "Monocytes", "HEMATOLOGY", "0.64", "10^9/L", "0.12", "0.92", "0.64", 0.6399999999999999, "10^9/L", 0.12, 0.9199999999999999, "NORMAL", "Y", 1.0, "SCREENING 1", -7.0, "SCREENING", "2014-03-10T12:31", -8.0]
["CDISCPILOT01", "LB", "01-701-1033", 62.0, "MONO", "Monocytes", "HEMATOLOGY", "0.49", "10^9/L", "0.12", "0.92", "0.49", 0.49, "10^9/L", 0.12, 0.9199999999999999, "NORMAL", "", 4.0, "WEEK 2", 14.0, "TREATMENT", "2014-04-01T08:55", 15.0]
["CDISCPILOT01", "LB", "01-701-1033", 97.0, "MONO", "Monocytes", "HEMATOLOGY", "0.44", "10^9/L", "0.12", "0.92", "0.44", 0.44, "10^9/L", 0.12, 0.9199999999999999, "NORMAL", "", 5.0, "WEEK 4", 28.0, "TREATMENT", "2014-04-14T10:38", 28.0]
["CDISCPILOT01", "LB", "01-701-1033", 29.0, "PLAT", "Platelets", "HEMATOLOGY", "190", "10^9/L", "130", "394", "190", 190.0, "10^9/L", 130.0, 394.0, "NORMAL", "Y", 1.0, "SCREENING 1", -7.0, "SCREENING", "2014-03-10T12:31", -8.0]
["CDISCPILOT01", "LB", "01-701-1033", 66.0, "PLAT", "Platelets", "HEMATOLOGY", "188", "10^9/L", "130", "394", "188", 188.0, "10^9/L", 130.0, 394.0, "NORMAL", "", 4.0, "WEEK 2", 14.0, "TREATMENT", "2014-04-01T08:55", 15.0]
["CDISCPILOT01", "LB", "01-701-1033", 101.0, "PLAT", "Platelets", "HEMATOLOGY", "158", "10^9/L", "130", "394", "158", 158.0, "10^9/L", 130.0, 394.0, "NORMAL", "", 5.0, "WEEK 4", 28.0, "TREATMENT", "2014-04-14T10:38", 28.0]
["CDISCPILOT01", "LB", "01-701-1033", 31.0, "RBC", "Erythrocytes", "HEMATOLOGY", "5.30", "10^12/L", "4", "5.8", "5.3", 5.3, "10^12/L", 4.0, 5.8, "NORMAL", "Y", 1.0, "SCREENING 1", -7.0, "SCREENING", "2014-03-10T12:31", -8.0]
["CDISCPILOT01", "LB", "01-701-1033", 68.0, "RBC", "Erythrocytes", "HEMATOLOGY", "5.20", "10^12/L", "4", "5.8", "5.2", 5.199999999999999, "10^12/L", 4.0, 5.8, "NORMAL", "", 4.0, "WEEK 2", 14.0, "TREATMENT", "2014-04-01T08:55", 15.0]
["CDISCPILOT01", "LB", "01-701-1033", 103.0, "RBC", "Erythrocytes", "HEMATOLOGY", "5.20", "10^12/L", "4", "5.8", "5.2", 5.199999999999999, "10^12/L", 4.0, 5.8, "NORMAL", "", 5.0, "WEEK 4", 28.0, "TREATMENT", "2014-04-14T10:38", 28.0]
["CDISCPILOT01", "LB", "01-701-1033", 37.0, "WBC", "Leukocytes", "HEMATOLOGY", "9.53", "10^9/L", "3.8", "10.7", "9.53", 9.53, "10^9/L", 3.8, 10.7, "NORMAL", "Y", 1.0, "SCREENING 1", -7.0, "SCREENING", "2014-03-10T12:31", -8.0]
["CDISCPILOT01", "LB", "01-701-1033", 72.0, "WBC", "Leukocytes", "HEMATOLOGY", "8.13", "10^9/L", "3.8", "10.7", "8.13", 8.129999999999999, "10^9/L", 3.8, 10.7, "NORMAL", "", 4.0, "WEEK 2", 14.0, "TREATMENT", "2014-04-01T08:55", 15.0]
["CDISCPILOT01", "LB", "01-701-1033", 107.0, "WBC", "Leukocytes", "HEMATOLOGY", "8.20", "10^9/L", "3.8", "10.7", "8.2", 8.2, "10^9/L", 3.8, 10.7, "NORMAL", "", 5.0, "WEEK 4", 28.0, "TREATMENT", "2014-04-14T10:38", 28.0]
["CDISCPILOT01", "LB", "01-701-1034", 4.0, "ANISO", "Anisocytes", "HEMATOLOGY", "1", "", "", "", "1", 1.0, "", null, null, "ABNORMAL", "Y", 1.0, "SCREENING 1", -7.0, "SCREENING", "2014-06-24T15:30", -7.0]
["CDISCPILOT01", "LB", "01-701-1034", 78.0, "ANISO", "Anisocytes", "HEMATOLOGY", "1", "", "", "", "1", 1.0, "", null, null, "ABNORMAL", "", 5.0, "WEEK 4", 28.0, "TREATMENT", "2014-07-29T08:40", 29.0]
["CDISCPILOT01", "LB", "01-701-1034", 109.0, "ANISO", "Anisocytes", "HEMATOLOGY", "1", "", "", "", "1", 1.0, "", null, null, "ABNORMAL", "", 7.0, "WEEK 6", 42.0, "TREATMENT", "2014-08-11T13:15", 42.0]
["CDISCPILOT01", "LB", "01-701-1034", 303.0, "ANISO", "Anisocytes", "HEMATOLOGY", "1", "", "", "", "1", 1.0, "", null, null, "ABNORMAL", "", 13.0, "WEEK 26", 182.0, "TREATMENT", "2014-12-30T09:50", 183.0]
["CDISCPILOT01", "LB", "01-701-1034", 6.0, "BASO", "Basophils", "HEMATOLOGY", "0.03", "10^9/L", "0", "0.2", "0.03", 0.03, "10^9/L", 0.0, 0.19999999999999998, "NORMAL", "Y", 1.0, "SCREENING 1", -7.0, "SCREENING", "2014-06-24T15:30", -7.0]
["CDISCPILOT01", "LB", "01-701-1034", 43.0, "BASO", "Basophils", "HEMATOLOGY", "0.05", "10^9/L", "0", "0.2", "0.05", 0.049999999999999996, "10^9/L", 0.0, 0.19999999999999998, "NORMAL", "", 4.0, "WEEK 2", 14.0, "TREATMENT", "2014-07-15T09:25", 15.0]
["CDISCPILOT01", "LB", "01-701-1034", 80.0, "BASO", "Basophils", "HEMATOLOGY", "0.04", "10^9/L", "0", "0.2", "0.04", 0.039999999999999994, "10^9/L", 0.0, 0.19999999999999998, "NORMAL", "", 5.0, "WEEK 4", 28.0, "TREATMENT", "2014-07-29T08:40", 29.0]
["CDISCPILOT01", "LB", "01-701-1034", 111.0, "BASO", "Basophils", "HEMATOLOGY", "0.04", "10^9/L", "0", "0.2", "0.04", 0.039999999999999994, "10^9/L", 0.0, 0.19999999999999998, "NORMAL", "", 7.0, "WEEK 6", 42.0, "TREATMENT", "2014-08-11T13:15", 42.0]
["CDISCPILOT01", "LB", "01-701-1034", 141.0, "BASO", "Basophils", "HEMATOLOGY", "0.04", "10^9/L", "0", "0.2", "0.04", 0.039999999999999994, "10^9/L", 0.0, 0.19999999999999998, "NORMAL", "", 8.0, "WEEK 8", 56.0, "TREATMENT", "2014-08-26T09:57", 57.0]
["CDISCPILOT01", "LB", "01-701-1034", 171.0, "BASO", "Basophils", "HEMATOLOGY", "0.02", "10^9/L", "0", "0.2", "0.02", 0.02, "10^9/L", 0.0, 0.19999999999999998, "NORMAL", "", 9.0, "WEEK 12", 84.0, "TREATMENT", "2014-09-25T15:40", 87.0]
["CDISCPILOT01", "LB", "01-701-1034", 206.0, "BASO", "Basophils", "HEMATOLOGY", "0.04", "10^9/L", "0", "0.2", "0.04", 0.039999999999999994, "10^9/L", 0.0, 0.19999999999999998, "NORMAL", "", 10.0, "WEEK 16", 112.0, "TREATMENT", "2014-10-21T09:52", 113.0]
["CDISCPILOT01", "LB", "01-701-1034", 237.0, "BASO", "Basophils", "HEMATOLOGY", "0.03", "10^9/L", "0", "0.2", "0.03", 0.03, "10^9/L", 0.0, 0.19999999999999998, "NORMAL", "", 11.0, "WEEK 20", 140.0, "TREATMENT", "2014-11-18T12:23", 141.0]
["CDISCPILOT01", "LB", "01-701-1034", 268.0, "BASO", "Basophils", "HEMATOLOGY", "0.04", "10^9/L", "0", "0.2", "0.04", 0.039999999999999994, "10^9/L", 0.0, 0.19999999999999998, "NORMAL", "", 12.0, "WEEK 24", 168.0, "TREATMENT", "2014-12-17T14:27", 170.0]
["CDISCPILOT01", "LB", "01-701-1034", 305.0, "BASO", "Basophils", "HEMATOLOGY", "0.03", "10^9/L", "0", "0.2", "0.03", 0.03, "10^9/L", 0.0, 0.19999999999999998, "NORMAL", "", 13.0, "WEEK 26", 182.0, "TREATMENT", "2014-12-30T09:50", 183.0]
["CDISCPILOT01", "LB", "01-701-1034", 15.0, "EOS", "Eosinophils", "HEMATOLOGY", "0.10", "10^9/L", "0", "0.57", "0.1", 0.1, "10^9/L", 0.0, 0.57, "NORMAL", "Y", 1.0, "SCREENING 1", -7.0, "SCREENING", "2014-06-24T15:30", -7.0]
["CDISCPILOT01", "LB", "01-701-1034", 52.0, "EOS", "Eosinophils", "HEMATOLOGY", "0.10", "10^9/L", "0", "0.57", "0.1", 0.1, "10^9/L", 0.0, 0.57, "NORMAL", "", 4.0, "WEEK 2", 14.0, "TREATMENT", "2014-07-15T09:25", 15.0]
["CDISCPILOT01", "LB", "01-701-1034", 88.0, "EOS", "Eosinophils", "HEMATOLOGY", "0.06", "10^9/L", "0", "0.57", "0.06", 0.06, "10^9/L", 0.0, 0.57, "NORMAL", "", 5.0, "WEEK 4", 28.0, "TREATMENT", "2014-07-29T08:40", 29.0]
["CDISCPILOT01", "LB", "01-701-1034", 119.0, "EOS", "Eosinophils", "HEMATOLOGY", "0.04", "10^9/L", "0", "0.57", "0.04", 0.039999999999999994, "10^9/L", 0.0, 0.57, "NORMAL", "", 7.0, "WEEK 6", 42.0, "TREATMENT", "2014-08-11T13:15", 42.0]
["CDISCPILOT01", "LB", "01-701-1034", 149.0, "EOS", "Eosinophils", "HEMATOLOGY", "0.09", "10^9/L", "0", "0.57", "0.09", 0.09, "10^9/L", 0.0, 0.57, "NORMAL", "", 8.0, "WEEK 8", 56.0, "TREATMENT", "2014-08-26T09:57", 57.0]
["CDISCPILOT01", "LB", "01-701-1034", 180.0, "EOS", "Eosinophils", "HEMATOLOGY", "0.10", "10^9/L", "0", "0.57", "0.1", 0.1, "10^9/L", 0.0, 0.57, "NORMAL", "", 9.0, "WEEK 12", 84.0, "TREATMENT", "2014-09-25T15:40", 87.0]
["CDISCPILOT01", "LB", "01-701-1034", 214.0, "EOS", "Eosinophils", "HEMATOLOGY", "0.10", "10^9/L", "0", "0.57", "0.1", 0.1, "10^9/L", 0.0, 0.57, "NORMAL", "", 10.0, "WEEK 16", 112.0, "TREATMENT", "2014-10-21T09:52", 113.0]
["CDISCPILOT01", "LB", "01-701-1034", 245.0, "EOS", "Eosinophils", "HEMATOLOGY", "0.09", "10^9/L", "0", "0.57", "0.09", 0.09, "10^9/L", 0.0, 0.57, "NORMAL", "", 11.0, "WEEK 20", 140.0, "TREATMENT", "2014-11-18T12:23", 141.0]
["CDISCPILOT01", "LB", "01-701-1034", 277.0, "EOS", "Eosinophils", "HEMATOLOGY", "0.18", "10^9/L", "0", "0.57", "0.18", 0.18, "10^9/L", 0.0, 0.57, "NORMAL", "", 12.0, "WEEK 24", 168.0, "TREATMENT", "2014-12-17T14:27", 170.0]
["CDISCPILOT01", "LB", "01-701-1034", 313.0, "EOS", "Eosinophils", "HEMATOLOGY", "0.13", "10^9/L", "0", "0.57", "0.13", 0.13, "10^9/L", 0.0, 0.57, "NORMAL", "", 13.0, "WEEK 26", 182.0, "TREATMENT", "2014-12-30T09:50", 183.0]
["CDISCPILOT01", "LB", "01-701-1034", 18.0, "HCT", "Hematocrit", "HEMATOLOGY", "40.0", "%", "34", "48", "0.4", 0.39999999999999997, "", 0.33999999999999997, 0.48, "NORMAL", "Y", 1.0, "SCREENING 1", -7.0, "SCREENING", "2014-06-24T15:30", -7.0]
["CDISCPILOT01", "LB", "01-701-1034", 55.0, "HCT", "Hematocrit", "HEMATOLOGY", "42.0", "%", "34", "48", "0.42", 0.42, "", 0.33999999999999997, 0.48, "NORMAL", "", 4.0, "WEEK 2", 14.0, "TREATMENT", "2014-07-15T09:25", 15.0]
["CDISCPILOT01", "LB", "01-701-1034", 91.0, "HCT", "Hematocrit", "HEMATOLOGY", "39.0", "%", "34", "48", "0.39", 0.38999999999999996, "", 0.33999999999999997, 0.48, "NORMAL", "", 5.0, "WEEK 4", 28.0, "TREATMENT", "2014-07-29T08:40", 29.0]
["CDISCPILOT01", "LB", "01-701-1034", 122.0, "HCT", "Hematocrit", "HEMATOLOGY", "38.0", "%", "34", "48", "0.38", 0.38, "", 0.33999999999999997, 0.48, "NORMAL", "", 7.0, "WEEK 6", 42.0, "TREATMENT", "2014-08-11T13:15", 42.0]
["CDISCPILOT01", "LB", "01-701-1034", 152.0, "HCT", "Hematocrit", "HEMATOLOGY", "40.0", "%", "34", "48", "0.4", 0.39999999999999997, "", 0.33999999999999997, 0.48, "NORMAL", "", 8.0, "WEEK 8", 56.0, "TREATMENT", "2014-08-26T09:57", 57.0]
["CDISCPILOT01", "LB", "01-701-1034", 183.0, "HCT", "Hematocrit", "HEMATOLOGY", "39.0", "%", "34", "48", "0.39", 0.38999999999999996, "", 0.33999999999999997, 0.48, "NORMAL", "", 9.0, "WEEK 12", 84.0, "TREATMENT", "2014-09-25T15:40", 87.0]
["CDISCPILOT01", "LB", "01-701-1034", 217.0, "HCT", "Hematocrit", "HEMATOLOGY", "39.0", "%", "34", "48", "0.39", 0.38999999999999996, "", 0.33999999999999997, 0.48, "NORMAL", "", 10.0, "WEEK 16", 112.0, "TREATMENT", "2014-10-21T09:52", 113.0]
["CDISCPILOT01", "LB", "01-701-1034", 248.0, "HCT", "Hematocrit", "HEMATOLOGY", "40.0", "%", "34", "48", "0.4", 0.39999999999999997, "", 0.33999999999999997, 0.48, "NORMAL", "", 11.0, "WEEK 20", 140.0, "TREATMENT", "2014-11-18T12:23", 141.0]
["CDISCPILOT01", "LB", "01-701-1034", 280.0, "HCT", "Hematocrit", "HEMATOLOGY", "36.0", "%", "34", "48", "0.36", 0.36, "", 0.33999999999999997, 0.48, "NORMAL", "", 12.0, "WEEK 24", 168.0, "TREATMENT", "2014-12-17T14:27", 170.0]
["CDISCPILOT01", "LB", "01-701-1034", 316.0, "HCT", "Hematocrit", "HEMATOLOGY", "37.0", "%", "34", "48", "0.37", 0.37, "", 0.33999999999999997, 0.48, "NORMAL", "", 13.0, "WEEK 26", 182.0, "TREATMENT", "2014-12-30T09:50", 183.0]
["CDISCPILOT01", "LB", "01-701-1034", 19.0, "HGB", "Hemoglobin", "HEMATOLOGY", "13.2", "g/dL", "11.5", "15.8", "8.19192", 8.19192, "mmol/L", 7.14, 9.809999999999999, "NORMAL", "Y", 1.0, "SCREENING 1", -7.0, "SCREENING", "2014-06-24T15:30", -7.0]
["CDISCPILOT01", "LB", "01-701-1034", 56.0, "HGB", "Hemoglobin", "HEMATOLOGY", "13.7", "g/dL", "11.5", "15.8", "8.50222", 8.50222, "mmol/L", 7.14, 9.809999999999999, "NORMAL", "", 4.0, "WEEK 2", 14.0, "TREATMENT", "2014-07-15T09:25", 15.0]
["CDISCPILOT01", "LB", "01-701-1034", 92.0, "HGB", "Hemoglobin", "HEMATOLOGY", "12.8", "g/dL", "11.5", "15.8", "7.94368", 7.94368, "mmol/L", 7.14, 9.809999999999999, "NORMAL", "", 5.0, "WEEK 4", 28.0, "TREATMENT", "2014-07-29T08:40", 29.0]
["CDISCPILOT01", "LB", "01-701-1034", 123.0, "HGB", "Hemoglobin", "HEMATOLOGY", "12.6", "g/dL", "11.5", "15.8", "7.81956", 7.81956, "mmol/L", 7.14, 9.809999999999999, "NORMAL", "", 7.0, "WEEK 6", 42.0, "TREATMENT", "2014-08-11T13:15", 42.0]
["CDISCPILOT01", "LB", "01-701-1034", 153.0, "HGB", "Hemoglobin", "HEMATOLOGY", "13.4", "g/dL", "11.5", "15.8", "8.31604", 8.31604, "mmol/L", 7.14, 9.809999999999999, "NORMAL", "", 8.0, "WEEK 8", 56.0, "TREATMENT", "2014-08-26T09:57", 57.0]
["CDISCPILOT01", "LB", "01-701-1034", 184.0, "HGB", "Hemoglobin", "HEMATOLOGY", "12.9", "g/dL", "11.5", "15.8", "8.00574", 8.00574, "mmol/L", 7.14, 9.809999999999999, "NORMAL", "", 9.0, "WEEK 12", 84.0, "TREATMENT", "2014-09-25T15:40", 87.0]
["CDISCPILOT01", "LB", "01-701-1034", 218.0, "HGB", "Hemoglobin", "HEMATOLOGY", "13.1", "g/dL", "11.5", "15.8", "8.12986", 8.129859999999999, "mmol/L", 7.14, 9.809999999999999, "NORMAL", "", 10.0, "WEEK 16", 112.0, "TREATMENT", "2014-10-21T09:52", 113.0]
["CDISCPILOT01", "LB", "01-701-1034", 249.0, "HGB", "Hemoglobin", "HEMATOLOGY", "13.0", "g/dL", "11.5", "15.8", "8.0678", 8.0678, "mmol/L", 7.14, 9.809999999999999, "NORMAL", "", 11.0, "WEEK 20", 140.0, "TREATMENT", "2014-11-18T12:23", 141.0]
["CDISCPILOT01", "LB", "01-701-1034", 281.0, "HGB", "Hemoglobin", "HEMATOLOGY", "13.0", "g/dL", "11.5", "15.8", "8.0678", 8.0678, "mmol/L", 7.14, 9.809999999999999, "NORMAL", "", 12.0, "WEEK 24", 168.0, "TREATMENT", "2014-12-17T14:27", 170.0]
["CDISCPILOT01", "LB", "01-701-1034", 317.0, "HGB", "Hemoglobin", "HEMATOLOGY", "12.8", "g/dL", "11.5", "15.8", "7.94368", 7.94368, "mmol/L", 7.14, 9.809999999999999, "NORMAL", "", 13.0, "WEEK 26", 182.0, "TREATMENT", "2014-12-30T09:50", 183.0]
["CDISCPILOT01", "LB", "01-701-1034", 22.0, "LYM", "Lymphocytes", "HEMATOLOGY", "2.46", "10^9/L", "0.8", "3", "2.46", 2.46, "10^9/L", 0.7999999999999999, 3.0, "NORMAL", "Y", 1.0, "SCREENING 1", -7.0, "SCREENING", "2014-06-24T15:30", -7.0]
["CDISCPILOT01", "LB", "01-701-1034", 59.0, "LYM", "Lymphocytes", "HEMATOLOGY", "2.17", "10^9/L", "0.8", "3", "2.17", 2.17, "10^9/L", 0.7999999999999999, 3.0, "NORMAL", "", 4.0, "WEEK 2", 14.0, "TREATMENT", "2014-07-15T09:25", 15.0]
["CDISCPILOT01", "LB", "01-701-1034", 94.0, "LYM", "Lymphocytes", "HEMATOLOGY", "1.99", "10^9/L", "0.8", "3", "1.99", 1.99, "10^9/L", 0.7999999999999999, 3.0, "NORMAL", "", 5.0, "WEEK 4", 28.0, "TREATMENT", "2014-07-29T08:40", 29.0]
["CDISCPILOT01", "LB", "01-701-1034", 125.0, "LYM", "Lymphocytes", "HEMATOLOGY", "1.96", "10^9/L", "0.8", "3", "1.96", 1.96, "10^9/L", 0.7999999999999999, 3.0, "NORMAL", "", 7.0, "WEEK 6", 42.0, "TREATMENT", "2014-08-11T13:15", 42.0]
["CDISCPILOT01", "LB", "01-701-1034", 155.0, "LYM", "Lymphocytes", "HEMATOLOGY", "2.41", "10^9/L", "0.8", "3", "2.41", 2.4099999999999997, "10^9/L", 0.7999999999999999, 3.0, "NORMAL", "", 8.0, "WEEK 8", 56.0, "TREATMENT", "2014-08-26T09:57", 57.0]
["CDISCPILOT01", "LB", "01-701-1034", 187.0, "LYM", "Lymphocytes", "HEMATOLOGY", "2.68", "10^9/L", "0.8", "3", "2.68", 2.6799999999999997, "10^9/L", 0.7999999999999999, 3.0, "NORMAL", "", 9.0, "WEEK 12", 84.0, "TREATMENT", "2014-09-25T15:40", 87.0]
["CDISCPILOT01", "LB", "01-701-1034", 220.0, "LYM", "Lymphocytes", "HEMATOLOGY", "1.92", "10^9/L", "0.8", "3", "1.92", 1.92, "10^9/L", 0.7999999999999999, 3.0, "NORMAL", "", 10.0, "WEEK 16", 112.0, "TREATMENT", "2014-10-21T09:52", 113.0]
["CDISCPILOT01", "LB", "01-701-1034", 251.0, "LYM", "Lymphocytes", "HEMATOLOGY", "2.24", "10^9/L", "0.8", "3", "2.24", 2.2399999999999998, "10^9/L", 0.7999999999999999, 3.0, "NORMAL", "", 11.0, "WEEK 20", 140.0, "TREATMENT", "2014-11-18T12:23", 141.0]
["CDISCPILOT01", "LB", "01-701-1034", 284.0, "LYM", "Lymphocytes", "HEMATOLOGY", "2.77", "10^9/L", "0.8", "3", "2.77", 2.77, "10^9/L", 0.7999999999999999, 3.0, "NORMAL", "", 12.0, "WEEK 24", 168.0, "TREATMENT", "2014-12-17T14:27", 170.0]
["CDISCPILOT01", "LB", "01-701-1034", 319.0, "LYM", "Lymphocytes", "HEMATOLOGY", "2.09", "10^9/L", "0.8", "3", "2.09", 2.09, "10^9/L", 0.7999999999999999, 3.0, "NORMAL", "", 13.0, "WEEK 26", 182.0, "TREATMENT", "2014-12-30T09:50", 183.0]
["CDISCPILOT01", "LB", "01-701-1034", 60.0, "MACROCY", "Macrocytes", "HEMATOLOGY", "1", "", "", "", "1", 1.0, "", null, null, "ABNORMAL", "", 4.0, "WEEK 2", 14.0, "TREATMENT", "2014-07-15T09:25", 15.0]
["CDISCPILOT01", "LB", "01-701-1034", 221.0, "MACROCY", "Macrocytes", "HEMATOLOGY", "1", "", "", "", "1", 1.0, "", null, null, "ABNORMAL", "", 10.0, "WEEK 16", 112.0, "TREATMENT", "2014-10-21T09:52", 113.0]
["CDISCPILOT01", "LB", "01-701-1034", 252.0, "MACROCY", "Macrocytes", "HEMATOLOGY", "1", "", "", "", "1", 1.0, "", null, null, "ABNORMAL", "", 11.0, "WEEK 20", 140.0, "TREATMENT", "2014-11-18T12:23", 141.0]
["CDISCPILOT01", "LB", "01-701-1034", 285.0, "MACROCY", "Macrocytes", "HEMATOLOGY", "1", "", "", "", "1", 1.0, "", null, null, "ABNORMAL", "", 12.0, "WEEK 24", 168.0, "TREATMENT", "2014-12-17T14:27", 170.0]
["CDISCPILOT01", "LB", "01-701-1034", 23.0, "MCH", "Ery. Mean Corpuscular Hemoglobin", "HEMATOLOGY", "34", "pg", "26", "34", "2.11004", 2.1100399999999997, "fmol", 1.6, 2.1, "NORMAL", "Y", 1.0, "SCREENING 1", -7.0, "SCREENING", "2014-06-24T15:30", -7.0]
["CDISCPILOT01", "LB", "01-701-1034", 61.0, "MCH", "Ery. Mean Corpuscular Hemoglobin", "HEMATOLOGY", "34", "pg", "26", "34", "2.11004", 2.1100399999999997, "fmol", 1.6, 2.1, "NORMAL", "", 4.0, "WEEK 2", 14.0, "TREATMENT", "2014-07-15T09:25", 15.0]
["CDISCPILOT01", "LB", "01-701-1034", 95.0, "MCH", "Ery. Mean Corpuscular Hemoglobin", "HEMATOLOGY", "34", "pg", "26", "34", "2.11004", 2.1100399999999997, "fmol", 1.6, 2.1, "NORMAL", "", 5.0, "WEEK 4", 28.0, "TREATMENT", "2014-07-29T08:40", 29.0]
["CDISCPILOT01", "LB", "01-701-1034", 126.0, "MCH", "Ery. Mean Corpuscular Hemoglobin", "HEMATOLOGY", "34", "pg", "26", "34", "2.11004", 2.1100399999999997, "fmol", 1.6, 2.1, "NORMAL", "", 7.0, "WEEK 6", 42.0, "TREATMENT", "2014-08-11T13:15", 42.0]
["CDISCPILOT01", "LB", "01-701-1034", 156.0, "MCH", "Ery. Mean Corpuscular Hemoglobin", "HEMATOLOGY", "34", "pg", "26", "34", "2.11004", 2.1100399999999997, "fmol", 1.6, 2.1, "NORMAL", "", 8.0, "WEEK 8", 56.0, "TREATMENT", "2014-08-26T09:57", 57.0]
["CDISCPILOT01", "LB", "01-701-1034", 188.0, "MCH", "Ery. Mean Corpuscular Hemoglobin", "HEMATOLOGY", "34", "pg", "26", "34", "2.11004", 2.1100399999999997, "fmol", 1.6, 2.1, "NORMAL", "", 9.0, "WEEK 12", 84.0, "TREATMENT", "2014-09-25T15:40", 87.0]
["CDISCPILOT01", "LB", "01-701-1034", 222.0, "MCH", "Ery. Mean Corpuscular Hemoglobin", "HEMATOLOGY", "35", "pg", "26", "34", "2.1721", 2.1721, "fmol", 1.6, 2.1, "HIGH", "", 10.0, "WEEK 16", 112.0, "TREATMENT", "2014-10-21T09:52", 113.0]
["CDISCPILOT01", "LB", "01-701-1034", 253.0, "MCH", "Ery. Mean Corpuscular Hemoglobin", "HEMATOLOGY", "33", "pg", "26", "34", "2.04798", 2.04798, "fmol", 1.6, 2.1, "NORMAL", "", 11.0, "WEEK 20", 140.0, "TREATMENT", "2014-11-18T12:23", 141.0]
["CDISCPILOT01", "LB", "01-701-1034", 286.0, "MCH", "Ery. Mean Corpuscular Hemoglobin", "HEMATOLOGY", "37", "pg", "26", "34", "2.29622", 2.29622, "fmol", 1.6, 2.1, "HIGH", "", 12.0, "WEEK 24", 168.0, "TREATMENT", "2014-12-17T14:27", 170.0]
["CDISCPILOT01", "LB", "01-701-1034", 320.0, "MCH", "Ery. Mean Corpuscular Hemoglobin", "HEMATOLOGY", "35", "pg", "26", "34", "2.1721", 2.1721, "fmol", 1.6, 2.1, "HIGH", "", 13.0, "WEEK 26", 182.0, "TREATMENT", "2014-12-30T09:50", 183.0]
["CDISCPILOT01", "LB", "01-701-1034", 24.0, "MCHC", "Ery. Mean Corpuscular HGB Concentration", "HEMATOLOGY", "33", "g/dL", "31", "38", "20.4798", 20.4798, "mmol/L", 19.0, 24.0, "NORMAL", "Y", 1.0, "SCREENING 1", -7.0, "SCREENING", "2014-06-24T15:30", -7.0]
["CDISCPILOT01", "LB", "01-701-1034", 62.0, "MCHC", "Ery. Mean Corpuscular HGB Concentration", "HEMATOLOGY", "33", "g/dL", "31", "38", "20.4798", 20.4798, "mmol/L", 19.0, 24.0, "NORMAL", "", 4.0, "WEEK 2", 14.0, "TREATMENT", "2014-07-15T09:25", 15.0]
["CDISCPILOT01", "LB", "01-701-1034", 96.0, "MCHC", "Ery. Mean Corpuscular HGB Concentration", "HEMATOLOGY", "33", "g/dL", "31", "38", "20.4798", 20.4798, "mmol/L", 19.0, 24.0, "NORMAL", "", 5.0, "WEEK 4", 28.0, "TREATMENT", "2014-07-29T08:40", 29.0]
["CDISCPILOT01", "LB", "01-701-1034", 127.0, "MCHC", "Ery. Mean Corpuscular HGB Concentration", "HEMATOLOGY", "33", "g/dL", "31", "38", "20.4798", 20.4798, "mmol/L", 19.0, 24.0, "NORMAL", "", 7.0, "WEEK 6", 42.0, "TREATMENT", "2014-08-11T13:15", 42.0]
["CDISCPILOT01", "LB", "01-701-1034", 157.0, "MCHC", "Ery. Mean Corpuscular HGB Concentration", "HEMATOLOGY", "33", "g/dL", "31", "38", "20.4798", 20.4798, "mmol/L", 19.0, 24.0, "NORMAL", "", 8.0, "WEEK 8", 56.0, "TREATMENT", "2014-08-26T09:57", 57.0]
["CDISCPILOT01", "LB", "01-701-1034", 189.0, "MCHC", "Ery. Mean Corpuscular HGB Concentration", "HEMATOLOGY", "33", "g/dL", "31", "38", "20.4798", 20.4798, "mmol/L", 19.0, 24.0, "NORMAL", "", 9.0, "WEEK 12", 84.0, "TREATMENT", "2014-09-25T15:40", 87.0]
["CDISCPILOT01", "LB", "01-701-1034", 223.0, "MCHC", "Ery. Mean Corpuscular HGB Concentration", "HEMATOLOGY", "34", "g/dL", "31", "38", "21.1004", 21.1004, "mmol/L", 19.0, 24.0, "NORMAL", "", 10.0, "WEEK 16", 112.0, "TREATMENT", "2014-10-21T09:52", 113.0]
["CDISCPILOT01", "LB", "01-701-1034", 254.0, "MCHC", "Ery. Mean Corpuscular HGB Concentration", "HEMATOLOGY", "32", "g/dL", "31", "38", "19.8592", 19.8592, "mmol/L", 19.0, 24.0, "NORMAL", "", 11.0, "WEEK 20", 140.0, "TREATMENT", "2014-11-18T12:23", 141.0]
["CDISCPILOT01", "LB", "01-701-1034", 287.0, "MCHC", "Ery. Mean Corpuscular HGB Concentration", "HEMATOLOGY", "36", "g/dL", "31", "38", "22.3416", 22.3416, "mmol/L", 19.0, 24.0, "NORMAL", "", 12.0, "WEEK 24", 168.0, "TREATMENT", "2014-12-17T14:27", 170.0]
["CDISCPILOT01", "LB", "01-701-1034", 321.0, "MCHC", "Ery. Mean Corpuscular HGB Concentration", "HEMATOLOGY", "34", "g/dL", "31", "38", "21.1004", 21.1004, "mmol/L", 19.0, 24.0, "NORMAL", "", 13.0, "WEEK 26", 182.0, "TREATMENT", "2014-12-30T09:50", 183.0]
["CDISCPILOT01", "LB", "01-701-1034", 25.0, "MCV", "Ery. Mean Corpuscular Volume", "HEMATOLOGY", "102", "fL", "80", "100", "102", 102.0, "fL", 80.0, 100.0, "HIGH", "Y", 1.0, "SCREENING 1", -7.0, "SCREENING", "2014-06-24T15:30", -7.0]
["CDISCPILOT01", "LB", "01-701-1034", 63.0, "MCV", "Ery. Mean Corpuscular Volume", "HEMATOLOGY", "106", "fL", "80", "100", "106", 106.0, "fL", 80.0, 100.0, "HIGH", "", 4.0, "WEEK 2", 14.0, "TREATMENT", "2014-07-15T09:25", 15.0]
["CDISCPILOT01", "LB", "01-701-1034", 97.0, "MCV", "Ery. Mean Corpuscular Volume", "HEMATOLOGY", "103", "fL", "80", "100", "103", 103.0, "fL", 80.0, 100.0, "HIGH", "", 5.0, "WEEK 4", 28.0, "TREATMENT", "2014-07-29T08:40", 29.0]
["CDISCPILOT01", "LB", "01-701-1034", 128.0, "MCV", "Ery. Mean Corpuscular Volume", "HEMATOLOGY", "103", "fL", "80", "100", "103", 103.0, "fL", 80.0, 100.0, "HIGH", "", 7.0, "WEEK 6", 42.0, "TREATMENT", "2014-08-11T13:15", 42.0]
["CDISCPILOT01", "LB", "01-701-1034", 158.0, "MCV", "Ery. Mean Corpuscular Volume", "HEMATOLOGY", "101", "fL", "80", "100", "101", 101.0, "fL", 80.0, 100.0, "HIGH", "", 8.0, "WEEK 8", 56.0, "TREATMENT", "2014-08-26T09:57", 57.0]
["CDISCPILOT01", "LB", "01-701-1034", 190.0, "MCV", "Ery. Mean Corpuscular Volume", "HEMATOLOGY", "101", "fL", "80", "100", "101", 101.0, "fL", 80.0, 100.0, "HIGH", "", 9.0, "WEEK 12", 84.0, "TREATMENT", "2014-09-25T15:40", 87.0]
["CDISCPILOT01", "LB", "01-701-1034", 224.0, "MCV", "Ery. Mean Corpuscular Volume", "HEMATOLOGY", "103", "fL", "80", "100", "103", 103.0, "fL", 80.0, 100.0, "HIGH", "", 10.0, "WEEK 16", 112.0, "TREATMENT", "2014-10-21T09:52", 113.0]
["CDISCPILOT01", "LB", "01-701-1034", 255.0, "MCV", "Ery. Mean Corpuscular Volume", "HEMATOLOGY", "102", "fL", "80", "100", "102", 102.0, "fL", 80.0, 100.0, "HIGH", "", 11.0, "WEEK 20", 140.0, "TREATMENT", "2014-11-18T12:23", 141.0]
["CDISCPILOT01", "LB", "01-701-1034", 288.0, "MCV", "Ery. Mean Corpuscular Volume", "HEMATOLOGY", "102", "fL", "80", "100", "102", 102.0, "fL", 80.0, 100.0, "HIGH", "", 12.0, "WEEK 24", 168.0, "TREATMENT", "2014-12-17T14:27", 170.0]
["CDISCPILOT01", "LB", "01-701-1034", 322.0, "MCV", "Ery. Mean Corpuscular Volume", "HEMATOLOGY", "102", "fL", "80", "100", "102", 102.0, "fL", 80.0, 100.0, "HIGH", "", 13.0, "WEEK 26", 182.0, "TREATMENT", "2014-12-30T09:50", 183.0]
["CDISCPILOT01", "LB", "01-701-1034", 26.0, "MONO", "Monocytes", "HEMATOLOGY", "0.62", "10^9/L", "0.12", "0.92", "0.62", 0.62, "10^9/L", 0.12, 0.9199999999999999, "NORMAL", "Y", 1.0, "SCREENING 1", -7.0, "SCREENING", "2014-06-24T15:30", -7.0]
["CDISCPILOT01", "LB", "01-701-1034", 64.0, "MONO", "Monocytes", "HEMATOLOGY", "0.66", "10^9/L", "0.12", "0.92", "0.66", 0.6599999999999999, "10^9/L", 0.12, 0.9199999999999999, "NORMAL", "", 4.0, "WEEK 2", 14.0, "TREATMENT", "2014-07-15T09:25", 15.0]
["CDISCPILOT01", "LB", "01-701-1034", 98.0, "MONO", "Monocytes", "HEMATOLOGY", "0.60", "10^9/L", "0.12", "0.92", "0.6", 0.6, "10^9/L", 0.12, 0.9199999999999999, "NORMAL", "", 5.0, "WEEK 4", 28.0, "TREATMENT", "2014-07-29T08:40", 29.0]
["CDISCPILOT01", "LB", "01-701-1034", 129.0, "MONO", "Monocytes", "HEMATOLOGY", "0.66", "10^9/L", "0.12", "0.92", "0.66", 0.6599999999999999, "10^9/L", 0.12, 0.9199999999999999, "NORMAL", "", 7.0, "WEEK 6", 42.0, "TREATMENT", "2014-08-11T13:15", 42.0]
["CDISCPILOT01", "LB", "01-701-1034", 159.0, "MONO", "Monocytes", "HEMATOLOGY", "0.63", "10^9/L", "0.12", "0.92", "0.63", 0.63, "10^9/L", 0.12, 0.9199999999999999, "NORMAL", "", 8.0, "WEEK 8", 56.0, "TREATMENT", "2014-08-26T09:57", 57.0]
["CDISCPILOT01", "LB", "01-701-1034", 191.0, "MONO", "Monocytes", "HEMATOLOGY", "0.40", "10^9/L", "0.12", "0.92", "0.4", 0.39999999999999997, "10^9/L", 0.12, 0.9199999999999999, "NORMAL", "", 9.0, "WEEK 12", 84.0, "TREATMENT", "2014-09-25T15:40", 87.0]
["CDISCPILOT01", "LB", "01-701-1034", 225.0, "MONO", "Monocytes", "HEMATOLOGY", "0.58", "10^9/L", "0.12", "0.92", "0.58", 0.58, "10^9/L", 0.12, 0.9199999999999999, "NORMAL", "", 10.0, "WEEK 16", 112.0, "TREATMENT", "2014-10-21T09:52", 113.0]
["CDISCPILOT01", "LB", "01-701-1034", 256.0, "MONO", "Monocytes", "HEMATOLOGY", "0.63", "10^9/L", "0.12", "0.92", "0.63", 0.63, "10^9/L", 0.12, 0.9199999999999999, "NORMAL", "", 11.0, "WEEK 20", 140.0, "TREATMENT", "2014-11-18T12:23", 141.0]
["CDISCPILOT01", "LB", "01-701-1034", 289.0, "MONO", "Monocytes", "HEMATOLOGY", "0.56", "10^9/L", "0.12", "0.92", "0.56", 0.5599999999999999, "10^9/L", 0.12, 0.9199999999999999, "NORMAL", "", 12.0, "WEEK 24", 168.0, "TREATMENT", "2014-12-17T14:27", 170.0]
["CDISCPILOT01", "LB", "01-701-1034", 323.0, "MONO", "Monocytes", "HEMATOLOGY", "0.58", "10^9/L", "0.12", "0.92", "0.58", 0.58, "10^9/L", 0.12, 0.9199999999999999, "NORMAL", "", 13.0, "WEEK 26", 182.0, "TREATMENT", "2014-12-30T09:50", 183.0]
["CDISCPILOT01", "LB", "01-701-1034", 30.0, "PLAT", "Platelets", "HEMATOLOGY", "253", "10^9/L", "130", "394", "253", 253.0, "10^9/L", 130.0, 394.0, "NORMAL", "Y", 1.0, "SCREENING 1", -7.0, "SCREENING", "2014-06-24T15:30", -7.0]
["CDISCPILOT01", "LB", "01-701-1034", 68.0, "PLAT", "Platelets", "HEMATOLOGY", "239", "10^9/L", "130", "394", "239", 239.0, "10^9/L", 130.0, 394.0, "NORMAL", "", 4.0, "WEEK 2", 14.0, "TREATMENT", "2014-07-15T09:25", 15.0]
["CDISCPILOT01", "LB", "01-701-1034", 101.0, "PLAT", "Platelets", "HEMATOLOGY", "227", "10^9/L", "130", "394", "227", 227.0, "10^9/L", 130.0, 394.0, "NORMAL", "", 5.0, "WEEK 4", 28.0, "TREATMENT", "2014-07-29T08:40", 29.0]
["CDISCPILOT01", "LB", "01-701-1034", 132.0, "PLAT", "Platelets", "HEMATOLOGY", "208", "10^9/L", "130", "394", "208", 208.0, "10^9/L", 130.0, 394.0, "NORMAL", "", 7.0, "WEEK 6", 42.0, "TREATMENT", "2014-08-11T13:15", 42.0]
["CDISCPILOT01", "LB", "01-701-1034", 162.0, "PLAT", "Platelets", "HEMATOLOGY", "293", "10^9/L", "130", "394", "293", 293.0, "10^9/L", 130.0, 394.0, "NORMAL", "", 8.0, "WEEK 8", 56.0, "TREATMENT", "2014-08-26T09:57", 57.0]
["CDISCPILOT01", "LB", "01-701-1034", 195.0, "PLAT", "Platelets", "HEMATOLOGY", "267", "10^9/L", "130", "394", "267", 267.0, "10^9/L", 130.0, 394.0, "NORMAL", "", 9.0, "WEEK 12", 84.0, "TREATMENT", "2014-09-25T15:40", 87.0]
["CDISCPILOT01", "LB", "01-701-1034", 228.0, "PLAT", "Platelets", "HEMATOLOGY", "252", "10^9/L", "130", "394", "252", 252.0, "10^9/L", 130.0, 394.0, "NORMAL", "", 10.0, "WEEK 16", 112.0, "TREATMENT", "2014-10-21T09:52", 113.0]
["CDISCPILOT01", "LB", "01-701-1034", 259.0, "PLAT", "Platelets", "HEMATOLOGY", "274", "10^9/L", "130", "394", "274", 274.0, "10^9/L", 130.0, 394.0, "NORMAL", "", 11.0, "WEEK 20", 140.0, "TREATMENT", "2014-11-18T12:23", 141.0]
["CDISCPILOT01", "LB", "01-701-1034", 293.0, "PLAT", "Platelets", "HEMATOLOGY", "246", "10^9/L", "130", "394", "246", 246.0, "10^9/L", 130.0, 394.0, "NORMAL", "", 12.0, "WEEK 24", 168.0, "TREATMENT", "2014-12-17T14:27", 170.0]
["CDISCPILOT01", "LB", "01-701-1034", 326.0, "PLAT", "Platelets", "HEMATOLOGY", "267", "10^9/L", "130", "394", "267", 267.0, "10^9/L", 130.0, 394.0, "NORMAL", "", 13.0, "WEEK 26", 182.0, "TREATMENT", "2014-12-30T09:50", 183.0]
["CDISCPILOT01", "LB", "01-701-1034", 32.0, "RBC", "Erythrocytes", "HEMATOLOGY", "3.90", "10^12/L", "3.9", "5.5", "3.9", 3.9, "10^12/L", 3.9, 5.5, "NORMAL", "Y", 1.0, "SCREENING 1", -7.0, "SCREENING", "2014-06-24T15:30", -7.0]
["CDISCPILOT01", "LB", "01-701-1034", 70.0, "RBC", "Erythrocytes", "HEMATOLOGY", "4.00", "10^12/L", "3.9", "5.5", "4", 4.0, "10^12/L", 3.9, 5.5, "NORMAL", "", 4.0, "WEEK 2", 14.0, "TREATMENT", "2014-07-15T09:25", 15.0]
["CDISCPILOT01", "LB", "01-701-1034", 103.0, "RBC", "Erythrocytes", "HEMATOLOGY", "3.80", "10^12/L", "3.9", "5.5", "3.8", 3.8, "10^12/L", 3.9, 5.5, "LOW", "", 5.0, "WEEK 4", 28.0, "TREATMENT", "2014-07-29T08:40", 29.0]
["CDISCPILOT01", "LB", "01-701-1034", 134.0, "RBC", "Erythrocytes", "HEMATOLOGY", "3.70", "10^12/L", "3.9", "5.5", "3.7", 3.6999999999999997, "10^12/L", 3.9, 5.5, "LOW", "", 7.0, "WEEK 6", 42.0, "TREATMENT", "2014-08-11T13:15", 42.0]
["CDISCPILOT01", "LB", "01-701-1034", 164.0, "RBC", "Erythrocytes", "HEMATOLOGY", "4.00", "10^12/L", "3.9", "5.5", "4", 4.0, "10^12/L", 3.9, 5.5, "NORMAL", "", 8.0, "WEEK 8", 56.0, "TREATMENT", "2014-08-26T09:57", 57.0]
["CDISCPILOT01", "LB", "01-701-1034", 197.0, "RBC", "Erythrocytes", "HEMATOLOGY", "3.80", "10^12/L", "3.9", "5.5", "3.8", 3.8, "10^12/L", 3.9, 5.5, "LOW", "", 9.0, "WEEK 12", 84.0, "TREATMENT", "2014-09-25T15:40", 87.0]
["CDISCPILOT01", "LB", "01-701-1034", 230.0, "RBC", "Erythrocytes", "HEMATOLOGY", "3.80", "10^12/L", "3.9", "5.5", "3.8", 3.8, "10^12/L", 3.9, 5.5, "LOW", "", 10.0, "WEEK 16", 112.0, "TREATMENT", "2014-10-21T09:52", 113.0]
["CDISCPILOT01", "LB", "01-701-1034", 261.0, "RBC", "Erythrocytes", "HEMATOLOGY", "3.90", "10^12/L", "3.9", "5.5", "3.9", 3.9, "10^12/L", 3.9, 5.5, "NORMAL", "", 11.0, "WEEK 20", 140.0, "TREATMENT", "2014-11-18T12:23", 141.0]
["CDISCPILOT01", "LB", "01-701-1034", 295.0, "RBC", "Erythrocytes", "HEMATOLOGY", "3.50", "10^12/L", "3.9", "5.5", "3.5", 3.5, "10^12/L", 3.9, 5.5, "LOW", "", 12.0, "WEEK 24", 168.0, "TREATMENT", "2014-12-17T14:27", 170.0]
["CDISCPILOT01", "LB", "01-701-1034", 328.0, "RBC", "Erythrocytes", "HEMATOLOGY", "3.70", "10^12/L", "3.9", "5.5", "3.7", 3.6999999999999997, "10^12/L", 3.9, 5.5, "LOW", "", 13.0, "WEEK 26", 182.0, "TREATMENT", "2014-12-30T09:50", 183.0]
["CDISCPILOT01", "LB", "01-701-1034", 38.0, "WBC", "Leukocytes", "HEMATOLOGY", "7.10", "10^9/L", "3.8", "10.7", "7.1", 7.1, "10^9/L", 3.8, 10.7, "NORMAL", "Y", 1.0, "SCREENING 1", -7.0, "SCREENING", "2014-06-24T15:30", -7.0]
["CDISCPILOT01", "LB", "01-701-1034", 74.0, "WBC", "Leukocytes", "HEMATOLOGY", "8.35", "10^9/L", "3.8", "10.7", "8.35", 8.35, "10^9/L", 3.8, 10.7, "NORMAL", "", 4.0, "WEEK 2", 14.0, "TREATMENT", "2014-07-15T09:25", 15.0]
["CDISCPILOT01", "LB", "01-701-1034", 105.0, "WBC", "Leukocytes", "HEMATOLOGY", "5.66", "10^9/L", "3.8", "10.7", "5.66", 5.659999999999999, "10^9/L", 3.8, 10.7, "NORMAL", "", 5.0, "WEEK 4", 28.0, "TREATMENT", "2014-07-29T08:40", 29.0]
["CDISCPILOT01", "LB", "01-701-1034", 136.0, "WBC", "Leukocytes", "HEMATOLOGY", "10.46", "10^9/L", "3.8", "10.7", "10.46", 10.459999999999999, "10^9/L", 3.8, 10.7, "NORMAL", "", 7.0, "WEEK 6", 42.0, "TREATMENT", "2014-08-11T13:15", 42.0]
["CDISCPILOT01", "LB", "01-701-1034", 166.0, "WBC", "Leukocytes", "HEMATOLOGY", "6.90", "10^9/L", "3.8", "10.7", "6.9", 6.8999999999999995, "10^9/L", 3.8, 10.7, "NORMAL", "", 8.0, "WEEK 8", 56.0, "TREATMENT", "2014-08-26T09:57", 57.0]
["CDISCPILOT01", "LB", "01-701-1034", 201.0, "WBC", "Leukocytes", "HEMATOLOGY", "7.45", "10^9/L", "3.8", "10.7", "7.45", 7.449999999999999, "10^9/L", 3.8, 10.7, "NORMAL", "", 9.0, "WEEK 12", 84.0, "TREATMENT", "2014-09-25T15:40", 87.0]
["CDISCPILOT01", "LB", "01-701-1034", 232.0, "WBC", "Leukocytes", "HEMATOLOGY", "6.72", "10^9/L", "3.8", "10.7", "6.72", 6.72, "10^9/L", 3.8, 10.7, "NORMAL", "", 10.0, "WEEK 16", 112.0, "TREATMENT", "2014-10-21T09:52", 113.0]
["CDISCPILOT01", "LB", "01-701-1034", 263.0, "WBC", "Leukocytes", "HEMATOLOGY", "8.26", "10^9/L", "3.8", "10.7", "8.26", 8.26, "10^9/L", 3.8, 10.7, "NORMAL", "", 11.0, "WEEK 20", 140.0, "TREATMENT", "2014-11-18T12:23", 141.0]
["CDISCPILOT01", "LB", "01-701-1034", 299.0, "WBC", "Leukocytes", "HEMATOLOGY", "9.71", "10^9/L", "3.8", "10.7", "9.71", 9.709999999999999, "10^9/L", 3.8, 10.7, "NORMAL", "", 12.0, "WEEK 24", 168.0, "TREATMENT", "2014-12-17T14:27", 170.0]
["CDISCPILOT01", "LB", "01-701-1034", 330.0, "WBC", "Leukocytes", "HEMATOLOGY", "9.08", "10^9/L", "3.8", "10.7", "9.08", 9.08, "10^9/L", 3.8, 10.7, "NORMAL", "", 13.0, "WEEK 26", 182.0, "TREATMENT", "2014-12-30T09:50", 183.0]
["CDISCPILOT01", "LB", "01-701-1047", 5.0, "BASO", "Basophils", "HEMATOLOGY", "0.05", "10^9/L", "0", "0.2", "0.05", 0.049999999999999996, "10^9/L", 0.0, 0.19999999999999998, "NORMAL", "Y", 1.0, "SCREENING 1", -7.0, "SCREENING", "2013-01-22T14:36", -21.0]
["CDISCPILOT01", "LB", "01-701-1047", 42.0, "BASO", "Basophils", "HEMATOLOGY", "0.05", "10^9/L", "0", "0.2", "0.05", 0.049999999999999996, "10^9/L", 0.0, 0.19999999999999998, "NORMAL", "", 4.0, "WEEK 2", 14.0, "TREATMENT", "2013-02-25T12:10", 14.0]
["CDISCPILOT01", "LB", "01-701-1047", 77.0, "BASO", "Basophils", "HEMATOLOGY", "0.04", "10^9/L", "0", "0.2", "0.04", 0.039999999999999994, "10^9/L", 0.0, 0.19999999999999998, "NORMAL", "", 5.0, "WEEK 4", 28.0, "TREATMENT", "2013-03-10T13:53", 27.0]
["CDISCPILOT01", "LB", "01-701-1047", 103.0, "BASO", "Basophils", "HEMATOLOGY", "0.03", "10^9/L", "0", "0.2", "0.03", 0.03, "10^9/L", 0.0, 0.19999999999999998, "NORMAL", "", 6.0, "AMBUL ECG REMOVAL", 30.0, "TREATMENT", "2013-03-29T12:53", 46.0]
["CDISCPILOT01", "LB", "01-701-1047", 14.0, "EOS", "Eosinophils", "HEMATOLOGY", "0.09", "10^9/L", "0", "0.57", "0.09", 0.09, "10^9/L", 0.0, 0.57, "NORMAL", "Y", 1.0, "SCREENING 1", -7.0, "SCREENING", "2013-01-22T14:36", -21.0]
["CDISCPILOT01", "LB", "01-701-1047", 51.0, "EOS", "Eosinophils", "HEMATOLOGY", "0.15", "10^9/L", "0", "0.57", "0.15", 0.15, "10^9/L", 0.0, 0.57, "NORMAL", "", 4.0, "WEEK 2", 14.0, "TREATMENT", "2013-02-25T12:10", 14.0]
["CDISCPILOT01", "LB", "01-701-1047", 85.0, "EOS", "Eosinophils", "HEMATOLOGY", "0.22", "10^9/L", "0", "0.57", "0.22", 0.22, "10^9/L", 0.0, 0.57, "NORMAL", "", 5.0, "WEEK 4", 28.0, "TREATMENT", "2013-03-10T13:53", 27.0]
["CDISCPILOT01", "LB", "01-701-1047", 105.0, "EOS", "Eosinophils", "HEMATOLOGY", "0.21", "10^9/L", "0", "0.57", "0.21", 0.21, "10^9/L", 0.0, 0.57, "NORMAL", "", 6.0, "AMBUL ECG REMOVAL", 30.0, "TREATMENT", "2013-03-29T12:53", 46.0]
["CDISCPILOT01", "LB", "01-701-1047", 17.0, "HCT", "Hematocrit", "HEMATOLOGY", "46.0", "%", "34", "48", "0.46", 0.45999999999999996, "", 0.33999999999999997, 0.48, "NORMAL", "Y", 1.0, "SCREENING 1", -7.0, "SCREENING", "2013-01-22T14:36", -21.0]
["CDISCPILOT01", "LB", "01-701-1047", 54.0, "HCT", "Hematocrit", "HEMATOLOGY", "43.0", "%", "34", "48", "0.43", 0.43, "", 0.33999999999999997, 0.48, "NORMAL", "", 4.0, "WEEK 2", 14.0, "TREATMENT", "2013-02-25T12:10", 14.0]
["CDISCPILOT01", "LB", "01-701-1047", 88.0, "HCT", "Hematocrit", "HEMATOLOGY", "40.0", "%", "34", "48", "0.4", 0.39999999999999997, "", 0.33999999999999997, 0.48, "NORMAL", "", 5.0, "WEEK 4", 28.0, "TREATMENT", "2013-03-10T13:53", 27.0]
["CDISCPILOT01", "LB", "01-701-1047", 106.0, "HCT", "Hematocrit", "HEMATOLOGY", "40.0", "%", "34", "48", "0.4", 0.39999999999999997, "", 0.33999999999999997, 0.48, "NORMAL", "", 6.0, "AMBUL ECG REMOVAL", 30.0, "TREATMENT", "2013-03-29T12:53", 46.0]
["CDISCPILOT01", "LB", "01-701-1047", 18.0, "HGB", "Hemoglobin", "HEMATOLOGY", "15.3", "g/dL", "11.5", "15.8", "9.49518", 9.49518, "mmol/L", 7.14, 9.809999999999999, "NORMAL", "Y", 1.0, "SCREENING 1", -7.0, "SCREENING", "2013-01-22T14:36", -21.0]
["CDISCPILOT01", "LB", "01-701-1047", 55.0, "HGB", "Hemoglobin", "HEMATOLOGY", "14.0", "g/dL", "11.5", "15.8", "8.6884", 8.6884, "mmol/L", 7.14, 9.809999999999999, "NORMAL", "", 4.0, "WEEK 2", 14.0, "TREATMENT", "2013-02-25T12:10", 14.0]
["CDISCPILOT01", "LB", "01-701-1047", 89.0, "HGB", "Hemoglobin", "HEMATOLOGY", "13.5", "g/dL", "11.5", "15.8", "8.3781", 8.3781, "mmol/L", 7.14, 9.809999999999999, "NORMAL", "", 5.0, "WEEK 4", 28.0, "TREATMENT", "2013-03-10T13:53", 27.0]
["CDISCPILOT01", "LB", "01-701-1047", 107.0, "HGB", "Hemoglobin", "HEMATOLOGY", "13.3", "g/dL", "11.5", "15.8", "8.25398", 8.253979999999999, "mmol/L", 7.14, 9.809999999999999, "NORMAL", "", 6.0, "AMBUL ECG REMOVAL", 30.0, "TREATMENT", "2013-03-29T12:53", 46.0]
["CDISCPILOT01", "LB", "01-701-1047", 21.0, "LYM", "Lymphocytes", "HEMATOLOGY", "2.46", "10^9/L", "0.8", "3", "2.46", 2.46, "10^9/L", 0.7999999999999999, 3.0, "NORMAL", "Y", 1.0, "SCREENING 1", -7.0, "SCREENING", "2013-01-22T14:36", -21.0]
["CDISCPILOT01", "LB", "01-701-1047", 58.0, "LYM", "Lymphocytes", "HEMATOLOGY", "2.15", "10^9/L", "0.8", "3", "2.15", 2.15, "10^9/L", 0.7999999999999999, 3.0, "NORMAL", "", 4.0, "WEEK 2", 14.0, "TREATMENT", "2013-02-25T12:10", 14.0]
["CDISCPILOT01", "LB", "01-701-1047", 91.0, "LYM", "Lymphocytes", "HEMATOLOGY", "2.06", "10^9/L", "0.8", "3", "2.06", 2.06, "10^9/L", 0.7999999999999999, 3.0, "NORMAL", "", 5.0, "WEEK 4", 28.0, "TREATMENT", "2013-03-10T13:53", 27.0]
["CDISCPILOT01", "LB", "01-701-1047", 109.0, "LYM", "Lymphocytes", "HEMATOLOGY", "1.84", "10^9/L", "0.8", "3", "1.84", 1.84, "10^9/L", 0.7999999999999999, 3.0, "NORMAL", "", 6.0, "AMBUL ECG REMOVAL", 30.0, "TREATMENT", "2013-03-29T12:53", 46.0]
["CDISCPILOT01", "LB", "01-701-1047", 22.0, "MCH", "Ery. Mean Corpuscular Hemoglobin", "HEMATOLOGY", "33", "pg", "26", "34", "2.04798", 2.04798, "fmol", 1.6, 2.1, "NORMAL", "Y", 1.0, "SCREENING 1", -7.0, "SCREENING", "2013-01-22T14:36", -21.0]
["CDISCPILOT01", "LB", "01-701-1047", 59.0, "MCH", "Ery. Mean Corpuscular Hemoglobin", "HEMATOLOGY", "31", "pg", "26", "34", "1.92386", 1.92386, "fmol", 1.6, 2.1, "NORMAL", "", 4.0, "WEEK 2", 14.0, "TREATMENT", "2013-02-25T12:10", 14.0]
["CDISCPILOT01", "LB", "01-701-1047", 92.0, "MCH", "Ery. Mean Corpuscular Hemoglobin", "HEMATOLOGY", "32", "pg", "26", "34", "1.98592", 1.98592, "fmol", 1.6, 2.1, "NORMAL", "", 5.0, "WEEK 4", 28.0, "TREATMENT", "2013-03-10T13:53", 27.0]
["CDISCPILOT01", "LB", "01-701-1047", 110.0, "MCH", "Ery. Mean Corpuscular Hemoglobin", "HEMATOLOGY", "32", "pg", "26", "34", "1.98592", 1.98592, "fmol", 1.6, 2.1, "NORMAL", "", 6.0, "AMBUL ECG REMOVAL", 30.0, "TREATMENT", "2013-03-29T12:53", 46.0]
["CDISCPILOT01", "LB", "01-701-1047", 23.0, "MCHC", "Ery. Mean Corpuscular HGB Concentration", "HEMATOLOGY", "34", "g/dL", "31", "38", "21.1004", 21.1004, "mmol/L", 19.0, 24.0, "NORMAL", "Y", 1.0, "SCREENING 1", -7.0, "SCREENING", "2013-01-22T14:36", -21.0]
["CDISCPILOT01", "LB", "01-701-1047", 60.0, "MCHC", "Ery. Mean Corpuscular HGB Concentration", "HEMATOLOGY", "33", "g/dL", "31", "38", "20.4798", 20.4798, "mmol/L", 19.0, 24.0, "NORMAL", "", 4.0, "WEEK 2", 14.0, "TREATMENT", "2013-02-25T12:10", 14.0]
["CDISCPILOT01", "LB", "01-701-1047", 93.0, "MCHC", "Ery. Mean Corpuscular HGB Concentration", "HEMATOLOGY", "34", "g/dL", "31", "38", "21.1004", 21.1004, "mmol/L", 19.0, 24.0, "NORMAL", "", 5.0, "WEEK 4", 28.0, "TREATMENT", "2013-03-10T13:53", 27.0]
["CDISCPILOT01", "LB", "01-701-1047", 111.0, "MCHC", "Ery. Mean Corpuscular HGB Concentration", "HEMATOLOGY", "33", "g/dL", "31", "38", "20.4798", 20.4798, "mmol/L", 19.0, 24.0, "NORMAL", "", 6.0, "AMBUL ECG REMOVAL", 30.0, "TREATMENT", "2013-03-29T12:53", 46.0]
["CDISCPILOT01", "LB", "01-701-1047", 24.0, "MCV", "Ery. Mean Corpuscular Volume", "HEMATOLOGY", "97", "fL", "80", "100", "97", 97.0, "fL", 80.0, 100.0, "NORMAL", "Y", 1.0, "SCREENING 1", -7.0, "SCREENING", "2013-01-22T14:36", -21.0]
["CDISCPILOT01", "LB", "01-701-1047", 61.0, "MCV", "Ery. Mean Corpuscular Volume", "HEMATOLOGY", "95", "fL", "80", "100", "95", 95.0, "fL", 80.0, 100.0, "NORMAL", "", 4.0, "WEEK 2", 14.0, "TREATMENT", "2013-02-25T12:10", 14.0]
["CDISCPILOT01", "LB", "01-701-1047", 94.0, "MCV", "Ery. Mean Corpuscular Volume", "HEMATOLOGY", "94", "fL", "80", "100", "94", 94.0, "fL", 80.0, 100.0, "NORMAL", "", 5.0, "WEEK 4", 28.0, "TREATMENT", "2013-03-10T13:53", 27.0]
["CDISCPILOT01", "LB", "01-701-1047", 112.0, "MCV", "Ery. Mean Corpuscular Volume", "HEMATOLOGY", "96", "fL", "80", "100", "96", 96.0, "fL", 80.0, 100.0, "NORMAL", "", 6.0, "AMBUL ECG REMOVAL", 30.0, "TREATMENT", "2013-03-29T12:53", 46.0]
["CDISCPILOT01", "LB", "01-701-1047", 25.0, "MONO", "Monocytes", "HEMATOLOGY", "0.36", "10^9/L", "0.12", "0.92", "0.36", 0.36, "10^9/L", 0.12, 0.9199999999999999, "NORMAL", "Y", 1.0, "SCREENING 1", -7.0, "SCREENING", "2013-01-22T14:36", -21.0]
["CDISCPILOT01", "LB", "01-701-1047", 62.0, "MONO", "Monocytes", "HEMATOLOGY", "0.36", "10^9/L", "0.12", "0.92", "0.36", 0.36, "10^9/L", 0.12, 0.9199999999999999, "NORMAL", "", 4.0, "WEEK 2", 14.0, "TREATMENT", "2013-02-25T12:10", 14.0]
["CDISCPILOT01", "LB", "01-701-1047", 95.0, "MONO", "Monocytes", "HEMATOLOGY", "0.37", "10^9/L", "0.12", "0.92", "0.37", 0.37, "10^9/L", 0.12, 0.9199999999999999, "NORMAL", "", 5.0, "WEEK 4", 28.0, "TREATMENT", "2013-03-10T13:53", 27.0]
["CDISCPILOT01", "LB", "01-701-1047", 113.0, "MONO", "Monocytes", "HEMATOLOGY", "0.42", "10^9/L", "0.12", "0.92", "0.42", 0.42, "10^9/L", 0.12, 0.9199999999999999, "NORMAL", "", 6.0, "AMBUL ECG REMOVAL", 30.0, "TREATMENT", "2013-03-29T12:53", 46.0]
["CDISCPILOT01", "LB", "01-701-1047", 29.0, "PLAT", "Platelets", "HEMATOLOGY", "224", "10^9/L", "130", "394", "224", 224.0, "10^9/L", 130.0, 394.0, "NORMAL", "Y", 1.0, "SCREENING 1", -7.0, "SCREENING", "2013-01-22T14:36", -21.0]
["CDISCPILOT01", "LB", "01-701-1047", 66.0, "PLAT", "Platelets", "HEMATOLOGY", "224", "10^9/L", "130", "394", "224", 224.0, "10^9/L", 130.0, 394.0, "NORMAL", "", 4.0, "WEEK 2", 14.0, "TREATMENT", "2013-02-25T12:10", 14.0]
["CDISCPILOT01", "LB", "01-701-1047", 98.0, "PLAT", "Platelets", "HEMATOLOGY", "225", "10^9/L", "130", "394", "225", 225.0, "10^9/L", 130.0, 394.0, "NORMAL", "", 5.0, "WEEK 4", 28.0, "TREATMENT", "2013-03-10T13:53", 27.0]
["CDISCPILOT01", "LB", "01-701-1047", 115.0, "PLAT", "Platelets", "HEMATOLOGY", "194", "10^9/L", "130", "394", "194", 194.0, "10^9/L", 130.0, 394.0, "NORMAL", "", 6.0, "AMBUL ECG REMOVAL", 30.0, "TREATMENT", "2013-03-29T12:53", 46.0]
["CDISCPILOT01", "LB", "01-701-1047", 31.0, "RBC", "Erythrocytes", "HEMATOLOGY", "4.70", "10^12/L", "3.9", "5.5", "4.7", 4.699999999999999, "10^12/L", 3.9, 5.5, "NORMAL", "Y", 1.0, "SCREENING 1", -7.0, "SCREENING", "2013-01-22T14:36", -21.0]
["CDISCPILOT01", "LB", "01-701-1047", 68.0, "RBC", "Erythrocytes", "HEMATOLOGY", "4.50", "10^12/L", "3.9", "5.5", "4.5", 4.5, "10^12/L", 3.9, 5.5, "NORMAL", "", 4.0, "WEEK 2", 14.0, "TREATMENT", "2013-02-25T12:10", 14.0]
["CDISCPILOT01", "LB", "01-701-1047", 100.0, "RBC", "Erythrocytes", "HEMATOLOGY", "4.30", "10^12/L", "3.9", "5.5", "4.3", 4.3, "10^12/L", 3.9, 5.5, "NORMAL", "", 5.0, "WEEK 4", 28.0, "TREATMENT", "2013-03-10T13:53", 27.0]
["CDISCPILOT01", "LB", "01-701-1047", 116.0, "RBC", "Erythrocytes", "HEMATOLOGY", "4.20", "10^12/L", "3.9", "5.5", "4.2", 4.199999999999999, "10^12/L", 3.9, 5.5, "NORMAL", "", 6.0, "AMBUL ECG REMOVAL", 30.0, "TREATMENT", "2013-03-29T12:53", 46.0]
["CDISCPILOT01", "LB", "01-701-1047", 37.0, "WBC", "Leukocytes", "HEMATOLOGY", "7.15", "10^9/L", "3.8", "10.7", "7.15", 7.1499999999999995, "10^9/L", 3.8, 10.7, "NORMAL", "Y", 1.0, "SCREENING 1", -7.0, "SCREENING", "2013-01-22T14:36", -21.0]
["CDISCPILOT01", "LB", "01-701-1047", 72.0, "WBC", "Leukocytes", "HEMATOLOGY", "5.88", "10^9/L", "3.8", "10.7", "5.88", 5.88, "10^9/L", 3.8, 10.7, "NORMAL", "", 4.0, "WEEK 2", 14.0, "TREATMENT", "2013-02-25T12:10", 14.0]
["CDISCPILOT01", "LB", "01-701-1047", 102.0, "WBC", "Leukocytes", "HEMATOLOGY", "5.68", "10^9/L", "3.8", "10.7", "5.68", 5.68, "10^9/L", 3.8, 10.7, "NORMAL", "", 5.0, "WEEK 4", 28.0, "TREATMENT", "2013-03-10T13:53", 27.0]
["CDISCPILOT01", "LB", "01-701-1047", 119.0, "WBC", "Leukocytes", "HEMATOLOGY", "7.68", "10^9/L", "3.8", "10.7", "7.68", 7.68, "10^9/L", 3.8, 10.7, "NORMAL", "", 6.0, "AMBUL ECG REMOVAL", 30.0, "TREATMENT", "2013-03-29T12:53", 46.0]
["CDISCPILOT01", "LB", "01-701-1097", 5.0, "BASO", "Basophils", "HEMATOLOGY", "0.06", "10^9/L", "0", "0.2", "0.06", 0.06, "10^9/L", 0.0, 0.19999999999999998, "NORMAL", "Y", 1.0, "SCREENING 1", -7.0, "SCREENING", "2013-12-23T12:30", -9.0]
["CDISCPILOT01", "LB", "01-701-1097", 42.0, "BASO", "Basophils", "HEMATOLOGY", "0.05", "10^9/L", "0", "0.2", "0.05", 0.049999999999999996, "10^9/L", 0.0, 0.19999999999999998, "NORMAL", "", 4.0, "WEEK 2", 14.0, "TREATMENT", "2014-01-15T10:03", 15.0]
["CDISCPILOT01", "LB", "01-701-1097", 77.0, "BASO", "Basophils", "HEMATOLOGY", "0.06", "10^9/L", "0", "0.2", "0.06", 0.06, "10^9/L", 0.0, 0.19999999999999998, "NORMAL", "", 5.0, "WEEK 4", 28.0, "TREATMENT", "2014-01-29T14:00", 29.0]
["CDISCPILOT01", "LB", "01-701-1097", 107.0, "BASO", "Basophils", "HEMATOLOGY", "0.07", "10^9/L", "0", "0.2", "0.07", 0.07, "10^9/L", 0.0, 0.19999999999999998, "NORMAL", "", 7.0, "WEEK 6", 42.0, "TREATMENT", "2014-02-11T11:16", 42.0]
["CDISCPILOT01", "LB", "01-701-1097", 137.0, "BASO", "Basophils", "HEMATOLOGY", "0.08", "10^9/L", "0", "0.2", "0.08", 0.08, "10^9/L", 0.0, 0.19999999999999998, "NORMAL", "", 8.0, "WEEK 8", 56.0, "TREATMENT", "2014-02-26T11:10", 57.0]
["CDISCPILOT01", "LB", "01-701-1097", 167.0, "BASO", "Basophils", "HEMATOLOGY", "0.06", "10^9/L", "0", "0.2", "0.06", 0.06, "10^9/L", 0.0, 0.19999999999999998, "NORMAL", "", 9.0, "WEEK 12", 84.0, "TREATMENT", "2014-03-26T08:55", 85.0]
["CDISCPILOT01", "LB", "01-701-1097", 202.0, "BASO", "Basophils", "HEMATOLOGY", "0.08", "10^9/L", "0", "0.2", "0.08", 0.08, "10^9/L", 0.0, 0.19999999999999998, "NORMAL", "", 10.0, "WEEK 16", 112.0, "TREATMENT", "2014-04-23T11:14", 113.0]
["CDISCPILOT01", "LB", "01-701-1097", 232.0, "BASO", "Basophils", "HEMATOLOGY", "0.04", "10^9/L", "0", "0.2", "0.04", 0.039999999999999994, "10^9/L", 0.0, 0.19999999999999998, "NORMAL", "", 11.0, "WEEK 20", 140.0, "TREATMENT", "2014-05-21T15:06", 141.0]
["CDISCPILOT01", "LB", "01-701-1097", 262.0, "BASO", "Basophils", "HEMATOLOGY", "0.06", "10^9/L", "0", "0.2", "0.06", 0.06, "10^9/L", 0.0, 0.19999999999999998, "NORMAL", "", 12.0, "WEEK 24", 168.0, "TREATMENT", "2014-06-18T10:41", 169.0]
["CDISCPILOT01", "LB", "01-701-1097", 297.0, "BASO", "Basophils", "HEMATOLOGY", "0.06", "10^9/L", "0", "0.2", "0.06", 0.06, "10^9/L", 0.0, 0.19999999999999998, "NORMAL", "", 13.0, "WEEK 26", 182.0, "TREATMENT", "2014-07-09T09:39", 190.0]
["CDISCPILOT01", "LB", "01-701-1097", 14.0, "EOS", "Eosinophils", "HEMATOLOGY", "0.08", "10^9/L", "0", "0.57", "0.08", 0.08, "10^9/L", 0.0, 0.57, "NORMAL", "Y", 1.0, "SCREENING 1", -7.0, "SCREENING", "2013-12-23T12:30", -9.0]
["CDISCPILOT01", "LB", "01-701-1097", 51.0, "EOS", "Eosinophils", "HEMATOLOGY", "0.08", "10^9/L", "0", "0.57", "0.08", 0.08, "10^9/L", 0.0, 0.57, "NORMAL", "", 4.0, "WEEK 2", 14.0, "TREATMENT", "2014-01-15T10:03", 15.0]
["CDISCPILOT01", "LB", "01-701-1097", 85.0, "EOS", "Eosinophils", "HEMATOLOGY", "0.30", "10^9/L", "0", "0.57", "0.3", 0.3, "10^9/L", 0.0, 0.57, "NORMAL", "", 5.0, "WEEK 4", 28.0, "TREATMENT", "2014-01-29T14:00", 29.0]
["CDISCPILOT01", "LB", "01-701-1097", 115.0, "EOS", "Eosinophils", "HEMATOLOGY", "0.39", "10^9/L", "0", "0.57", "0.39", 0.38999999999999996, "10^9/L", 0.0, 0.57, "NORMAL", "", 7.0, "WEEK 6", 42.0, "TREATMENT", "2014-02-11T11:16", 42.0]
["CDISCPILOT01", "LB", "01-701-1097", 145.0, "EOS", "Eosinophils", "HEMATOLOGY", "0.89", "10^9/L", "0", "0.57", "0.89", 0.8899999999999999, "10^9/L", 0.0, 0.57, "HIGH", "", 8.0, "WEEK 8", 56.0, "TREATMENT", "2014-02-26T11:10", 57.0]
["CDISCPILOT01", "LB", "01-701-1097", 176.0, "EOS", "Eosinophils", "HEMATOLOGY", "0.87", "10^9/L", "0", "0.57", "0.87", 0.87, "10^9/L", 0.0, 0.57, "HIGH", "", 9.0, "WEEK 12", 84.0, "TREATMENT", "2014-03-26T08:55", 85.0]
["CDISCPILOT01", "LB", "01-701-1097", 210.0, "EOS", "Eosinophils", "HEMATOLOGY", "0.44", "10^9/L", "0", "0.57", "0.44", 0.44, "10^9/L", 0.0, 0.57, "NORMAL", "", 10.0, "WEEK 16", 112.0, "TREATMENT", "2014-04-23T11:14", 113.0]
["CDISCPILOT01", "LB", "01-701-1097", 240.0, "EOS", "Eosinophils", "HEMATOLOGY", "0.56", "10^9/L", "0", "0.57", "0.56", 0.5599999999999999, "10^9/L", 0.0, 0.57, "NORMAL", "", 11.0, "WEEK 20", 140.0, "TREATMENT", "2014-05-21T15:06", 141.0]
["CDISCPILOT01", "LB", "01-701-1097", 271.0, "EOS", "Eosinophils", "HEMATOLOGY", "0.21", "10^9/L", "0", "0.57", "0.21", 0.21, "10^9/L", 0.0, 0.57, "NORMAL", "", 12.0, "WEEK 24", 168.0, "TREATMENT", "2014-06-18T10:41", 169.0]
["CDISCPILOT01", "LB", "01-701-1097", 306.0, "EOS", "Eosinophils", "HEMATOLOGY", "0.30", "10^9/L", "0", "0.57", "0.3", 0.3, "10^9/L", 0.0, 0.57, "NORMAL", "", 13.0, "WEEK 26", 182.0, "TREATMENT", "2014-07-09T09:39", 190.0]
["CDISCPILOT01", "LB", "01-701-1097", 17.0, "HCT", "Hematocrit", "HEMATOLOGY", "42.0", "%", "37", "51", "0.42", 0.42, "", 0.37, 0.5099999999999999, "NORMAL", "Y", 1.0, "SCREENING 1", -7.0, "SCREENING", "2013-12-23T12:30", -9.0]
["CDISCPILOT01", "LB", "01-701-1097", 54.0, "HCT", "Hematocrit", "HEMATOLOGY", "38.0", "%", "37", "51", "0.38", 0.38, "", 0.37, 0.5099999999999999, "NORMAL", "", 4.0, "WEEK 2", 14.0, "TREATMENT", "2014-01-15T10:03", 15.0]
["CDISCPILOT01", "LB", "01-701-1097", 88.0, "HCT", "Hematocrit", "HEMATOLOGY", "41.0", "%", "37", "51", "0.41", 0.41, "", 0.37, 0.5099999999999999, "NORMAL", "", 5.0, "WEEK 4", 28.0, "TREATMENT", "2014-01-29T14:00", 29.0]
["CDISCPILOT01", "LB", "01-701-1097", 118.0, "HCT", "Hematocrit", "HEMATOLOGY", "41.0", "%", "37", "51", "0.41", 0.41, "", 0.37, 0.5099999999999999, "NORMAL", "", 7.0, "WEEK 6", 42.0, "TREATMENT", "2014-02-11T11:16", 42.0]
["CDISCPILOT01", "LB", "01-701-1097", 148.0, "HCT", "Hematocrit", "HEMATOLOGY", "42.0", "%", "37", "51", "0.42", 0.42, "", 0.37, 0.5099999999999999, "NORMAL", "", 8.0, "WEEK 8", 56.0, "TREATMENT", "2014-02-26T11:10", 57.0]
["CDISCPILOT01", "LB", "01-701-1097", 179.0, "HCT", "Hematocrit", "HEMATOLOGY", "41.0", "%", "37", "51", "0.41", 0.41, "", 0.37, 0.5099999999999999, "NORMAL", "", 9.0, "WEEK 12", 84.0, "TREATMENT", "2014-03-26T08:55", 85.0]
["CDISCPILOT01", "LB", "01-701-1097", 213.0, "HCT", "Hematocrit", "HEMATOLOGY", "41.0", "%", "37", "51", "0.41", 0.41, "", 0.37, 0.5099999999999999, "NORMAL", "", 10.0, "WEEK 16", 112.0, "TREATMENT", "2014-04-23T11:14", 113.0]
["CDISCPILOT01", "LB", "01-701-1097", 243.0, "HCT", "Hematocrit", "HEMATOLOGY", "39.0", "%", "37", "51", "0.39", 0.38999999999999996, "", 0.37, 0.5099999999999999, "NORMAL", "", 11.0, "WEEK 20", 140.0, "TREATMENT", "2014-05-21T15:06", 141.0]
["CDISCPILOT01", "LB", "01-701-1097", 274.0, "HCT", "Hematocrit", "HEMATOLOGY", "41.0", "%", "37", "51", "0.41", 0.41, "", 0.37, 0.5099999999999999, "NORMAL", "", 12.0, "WEEK 24", 168.0, "TREATMENT", "2014-06-18T10:41", 169.0]
["CDISCPILOT01", "LB", "01-701-1097", 309.0, "HCT", "Hematocrit", "HEMATOLOGY", "39.0", "%", "37", "51", "0.39", 0.38999999999999996, "", 0.37, 0.5099999999999999, "NORMAL", "", 13.0, "WEEK 26", 182.0, "TREATMENT", "2014-07-09T09:39", 190.0]
["CDISCPILOT01", "LB", "01-701-1097", 18.0, "HGB", "Hemoglobin", "HEMATOLOGY", "15.1", "g/dL", "12.5", "17", "9.37106", 9.37106, "mmol/L", 7.76, 10.549999999999999, "NORMAL", "Y", 1.0, "SCREENING 1", -7.0, "SCREENING", "2013-12-23T12:30", -9.0]
["CDISCPILOT01", "LB", "01-701-1097", 55.0, "HGB", "Hemoglobin", "HEMATOLOGY", "14.4", "g/dL", "12.5", "17", "8.93664", 8.936639999999999, "mmol/L", 7.76, 10.549999999999999, "NORMAL", "", 4.0, "WEEK 2", 14.0, "TREATMENT", "2014-01-15T10:03", 15.0]
["CDISCPILOT01", "LB", "01-701-1097", 89.0, "HGB", "Hemoglobin", "HEMATOLOGY", "14.2", "g/dL", "12.5", "17", "8.81252", 8.81252, "mmol/L", 7.76, 10.549999999999999, "NORMAL", "", 5.0, "WEEK 4", 28.0, "TREATMENT", "2014-01-29T14:00", 29.0]
["CDISCPILOT01", "LB", "01-701-1097", 119.0, "HGB", "Hemoglobin", "HEMATOLOGY", "13.8", "g/dL", "12.5", "17", "8.56428", 8.564279999999998, "mmol/L", 7.76, 10.549999999999999, "NORMAL", "", 7.0, "WEEK 6", 42.0, "TREATMENT", "2014-02-11T11:16", 42.0]
["CDISCPILOT01", "LB", "01-701-1097", 149.0, "HGB", "Hemoglobin", "HEMATOLOGY", "14.8", "g/dL", "12.5", "17", "9.18488", 9.18488, "mmol/L", 7.76, 10.549999999999999, "NORMAL", "", 8.0, "WEEK 8", 56.0, "TREATMENT", "2014-02-26T11:10", 57.0]
["CDISCPILOT01", "LB", "01-701-1097", 180.0, "HGB", "Hemoglobin", "HEMATOLOGY", "14.8", "g/dL", "12.5", "17", "9.18488", 9.18488, "mmol/L", 7.76, 10.549999999999999, "NORMAL", "", 9.0, "WEEK 12", 84.0, "TREATMENT", "2014-03-26T08:55", 85.0]
["CDISCPILOT01", "LB", "01-701-1097", 214.0, "HGB", "Hemoglobin", "HEMATOLOGY", "13.9", "g/dL", "12.5", "17", "8.62634", 8.626339999999999, "mmol/L", 7.76, 10.549999999999999, "NORMAL", "", 10.0, "WEEK 16", 112.0, "TREATMENT", "2014-04-23T11:14", 113.0]
["CDISCPILOT01", "LB", "01-701-1097", 244.0, "HGB", "Hemoglobin", "HEMATOLOGY", "13.7", "g/dL", "12.5", "17", "8.50222", 8.50222, "mmol/L", 7.76, 10.549999999999999, "NORMAL", "", 11.0, "WEEK 20", 140.0, "TREATMENT", "2014-05-21T15:06", 141.0]
["CDISCPILOT01", "LB", "01-701-1097", 275.0, "HGB", "Hemoglobin", "HEMATOLOGY", "14.6", "g/dL", "12.5", "17", "9.06076", 9.060759999999998, "mmol/L", 7.76, 10.549999999999999, "NORMAL", "", 12.0, "WEEK 24", 168.0, "TREATMENT", "2014-06-18T10:41", 169.0]
["CDISCPILOT01", "LB", "01-701-1097", 310.0, "HGB", "Hemoglobin", "HEMATOLOGY", "14.1", "g/dL", "12.5", "17", "8.75046", 8.750459999999999, "mmol/L", 7.76, 10.549999999999999, "NORMAL", "", 13.0, "WEEK 26", 182.0, "TREATMENT", "2014-07-09T09:39", 190.0]
["CDISCPILOT01", "LB", "01-701-1097", 21.0, "LYM", "Lymphocytes", "HEMATOLOGY", "2.24", "10^9/L", "0.8", "3", "2.24", 2.2399999999999998, "10^9/L", 0.7999999999999999, 3.0, "NORMAL", "Y", 1.0, "SCREENING 1", -7.0, "SCREENING", "2013-12-23T12:30", -9.0]
["CDISCPILOT01", "LB", "01-701-1097", 58.0, "LYM", "Lymphocytes", "HEMATOLOGY", "2.61", "10^9/L", "0.8", "3", "2.61", 2.61, "10^9/L", 0.7999999999999999, 3.0, "NORMAL", "", 4.0, "WEEK 2", 14.0, "TREATMENT", "2014-01-15T10:03", 15.0]
["CDISCPILOT01", "LB", "01-701-1097", 91.0, "LYM", "Lymphocytes", "HEMATOLOGY", "3.13", "10^9/L", "0.8", "3", "3.13", 3.13, "10^9/L", 0.7999999999999999, 3.0, "HIGH", "", 5.0, "WEEK 4", 28.0, "TREATMENT", "2014-01-29T14:00", 29.0]
["CDISCPILOT01", "LB", "01-701-1097", 121.0, "LYM", "Lymphocytes", "HEMATOLOGY", "2.44", "10^9/L", "0.8", "3", "2.44", 2.44, "10^9/L", 0.7999999999999999, 3.0, "NORMAL", "", 7.0, "WEEK 6", 42.0, "TREATMENT", "2014-02-11T11:16", 42.0]
["CDISCPILOT01", "LB", "01-701-1097", 151.0, "LYM", "Lymphocytes", "HEMATOLOGY", "2.03", "10^9/L", "0.8", "3", "2.03", 2.03, "10^9/L", 0.7999999999999999, 3.0, "NORMAL", "", 8.0, "WEEK 8", 56.0, "TREATMENT", "2014-02-26T11:10", 57.0]
["CDISCPILOT01", "LB", "01-701-1097", 183.0, "LYM", "Lymphocytes", "HEMATOLOGY", "2.49", "10^9/L", "0.8", "3", "2.49", 2.4899999999999998, "10^9/L", 0.7999999999999999, 3.0, "NORMAL", "", 9.0, "WEEK 12", 84.0, "TREATMENT", "2014-03-26T08:55", 85.0]
["CDISCPILOT01", "LB", "01-701-1097", 216.0, "LYM", "Lymphocytes", "HEMATOLOGY", "2.28", "10^9/L", "0.8", "3", "2.28", 2.28, "10^9/L", 0.7999999999999999, 3.0, "NORMAL", "", 10.0, "WEEK 16", 112.0, "TREATMENT", "2014-04-23T11:14", 113.0]
["CDISCPILOT01", "LB", "01-701-1097", 246.0, "LYM", "Lymphocytes", "HEMATOLOGY", "2.16", "10^9/L", "0.8", "3", "2.16", 2.1599999999999997, "10^9/L", 0.7999999999999999, 3.0, "NORMAL", "", 11.0, "WEEK 20", 140.0, "TREATMENT", "2014-05-21T15:06", 141.0]
["CDISCPILOT01", "LB", "01-701-1097", 278.0, "LYM", "Lymphocytes", "HEMATOLOGY", "2.14", "10^9/L", "0.8", "3", "2.14", 2.1399999999999997, "10^9/L", 0.7999999999999999, 3.0, "NORMAL", "", 12.0, "WEEK 24", 168.0, "TREATMENT", "2014-06-18T10:41", 169.0]
["CDISCPILOT01", "LB", "01-701-1097", 313.0, "LYM", "Lymphocytes", "HEMATOLOGY", "2.31", "10^9/L", "0.8", "3", "2.31", 2.31, "10^9/L", 0.7999999999999999, 3.0, "NORMAL", "", 13.0, "WEEK 26", 182.0, "TREATMENT", "2014-07-09T09:39", 190.0]
["CDISCPILOT01", "LB", "01-701-1097", 22.0, "MCH", "Ery. Mean Corpuscular Hemoglobin", "HEMATOLOGY", "33", "pg", "26", "34", "2.04798", 2.04798, "fmol", 1.6, 2.1, "NORMAL", "Y", 1.0, "SCREENING 1", -7.0, "SCREENING", "2013-12-23T12:30", -9.0]
["CDISCPILOT01", "LB", "01-701-1097", 59.0, "MCH", "Ery. Mean Corpuscular Hemoglobin", "HEMATOLOGY", "33", "pg", "26", "34", "2.04798", 2.04798, "fmol", 1.6, 2.1, "NORMAL", "", 4.0, "WEEK 2", 14.0, "TREATMENT", "2014-01-15T10:03", 15.0]
["CDISCPILOT01", "LB", "01-701-1097", 92.0, "MCH", "Ery. Mean Corpuscular Hemoglobin", "HEMATOLOGY", "33", "pg", "26", "34", "2.04798", 2.04798, "fmol", 1.6, 2.1, "NORMAL", "", 5.0, "WEEK 4", 28.0, "TREATMENT", "2014-01-29T14:00", 29.0]
["CDISCPILOT01", "LB", "01-701-1097", 122.0, "MCH", "Ery. Mean Corpuscular Hemoglobin", "HEMATOLOGY", "32", "pg", "26", "34", "1.98592", 1.98592, "fmol", 1.6, 2.1, "NORMAL", "", 7.0, "WEEK 6", 42.0, "TREATMENT", "2014-02-11T11:16", 42.0]
["CDISCPILOT01", "LB", "01-701-1097", 152.0, "MCH", "Ery. Mean Corpuscular Hemoglobin", "HEMATOLOGY", "34", "pg", "26", "34", "2.11004", 2.1100399999999997, "fmol", 1.6, 2.1, "NORMAL", "", 8.0, "WEEK 8", 56.0, "TREATMENT", "2014-02-26T11:10", 57.0]
["CDISCPILOT01", "LB", "01-701-1097", 184.0, "MCH", "Ery. Mean Corpuscular Hemoglobin", "HEMATOLOGY", "34", "pg", "26", "34", "2.11004", 2.1100399999999997, "fmol", 1.6, 2.1, "NORMAL", "", 9.0, "WEEK 12", 84.0, "TREATMENT", "2014-03-26T08:55", 85.0]
["CDISCPILOT01", "LB", "01-701-1097", 217.0, "MCH", "Ery. Mean Corpuscular Hemoglobin", "HEMATOLOGY", "32", "pg", "26", "34", "1.98592", 1.98592, "fmol", 1.6, 2.1, "NORMAL", "", 10.0, "WEEK 16", 112.0, "TREATMENT", "2014-04-23T11:14", 113.0]
["CDISCPILOT01", "LB", "01-701-1097", 247.0, "MCH", "Ery. Mean Corpuscular Hemoglobin", "HEMATOLOGY", "33", "pg", "26", "34", "2.04798", 2.04798, "fmol", 1.6, 2.1, "NORMAL", "", 11.0, "WEEK 20", 140.0, "TREATMENT", "2014-05-21T15:06", 141.0]
["CDISCPILOT01", "LB", "01-701-1097", 279.0, "MCH", "Ery. Mean Corpuscular Hemoglobin", "HEMATOLOGY", "34", "pg", "26", "34", "2.11004", 2.1100399999999997, "fmol", 1.6, 2.1, "NORMAL", "", 12.0, "WEEK 24", 168.0, "TREATMENT", "2014-06-18T10:41", 169.0]
["CDISCPILOT01", "LB", "01-701-1097", 314.0, "MCH", "Ery. Mean Corpuscular Hemoglobin", "HEMATOLOGY", "33", "pg", "26", "34", "2.04798", 2.04798, "fmol", 1.6, 2.1, "NORMAL", "", 13.0, "WEEK 26", 182.0, "TREATMENT", "2014-07-09T09:39", 190.0]
["CDISCPILOT01", "LB", "01-701-1097", 23.0, "MCHC", "Ery. Mean Corpuscular HGB Concentration", "HEMATOLOGY", "36", "g/dL", "31", "38", "22.3416", 22.3416, "mmol/L", 19.0, 24.0, "NORMAL", "Y", 1.0, "SCREENING 1", -7.0, "SCREENING", "2013-12-23T12:30", -9.0]
["CDISCPILOT01", "LB", "01-701-1097", 60.0, "MCHC", "Ery. Mean Corpuscular HGB Concentration", "HEMATOLOGY", "35", "g/dL", "31", "38", "21.721", 21.721, "mmol/L", 19.0, 24.0, "NORMAL", "", 4.0, "WEEK 2", 14.0, "TREATMENT", "2014-01-15T10:03", 15.0]
["CDISCPILOT01", "LB", "01-701-1097", 93.0, "MCHC", "Ery. Mean Corpuscular HGB Concentration", "HEMATOLOGY", "35", "g/dL", "31", "38", "21.721", 21.721, "mmol/L", 19.0, 24.0, "NORMAL", "", 5.0, "WEEK 4", 28.0, "TREATMENT", "2014-01-29T14:00", 29.0]
["CDISCPILOT01", "LB", "01-701-1097", 123.0, "MCHC", "Ery. Mean Corpuscular HGB Concentration", "HEMATOLOGY", "34", "g/dL", "31", "38", "21.1004", 21.1004, "mmol/L", 19.0, 24.0, "NORMAL", "", 7.0, "WEEK 6", 42.0, "TREATMENT", "2014-02-11T11:16", 42.0]
["CDISCPILOT01", "LB", "01-701-1097", 153.0, "MCHC", "Ery. Mean Corpuscular HGB Concentration", "HEMATOLOGY", "35", "g/dL", "31", "38", "21.721", 21.721, "mmol/L", 19.0, 24.0, "NORMAL", "", 8.0, "WEEK 8", 56.0, "TREATMENT", "2014-02-26T11:10", 57.0]
["CDISCPILOT01", "LB", "01-701-1097", 185.0, "MCHC", "Ery. Mean Corpuscular HGB Concentration", "HEMATOLOGY", "36", "g/dL", "31", "38", "22.3416", 22.3416, "mmol/L", 19.0, 24.0, "NORMAL", "", 9.0, "WEEK 12", 84.0, "TREATMENT", "2014-03-26T08:55", 85.0]
["CDISCPILOT01", "LB", "01-701-1097", 218.0, "MCHC", "Ery. Mean Corpuscular HGB Concentration", "HEMATOLOGY", "34", "g/dL", "31", "38", "21.1004", 21.1004, "mmol/L", 19.0, 24.0, "NORMAL", "", 10.0, "WEEK 16", 112.0, "TREATMENT", "2014-04-23T11:14", 113.0]
["CDISCPILOT01", "LB", "01-701-1097", 248.0, "MCHC", "Ery. Mean Corpuscular HGB Concentration", "HEMATOLOGY", "35", "g/dL", "31", "38", "21.721", 21.721, "mmol/L", 19.0, 24.0, "NORMAL", "", 11.0, "WEEK 20", 140.0, "TREATMENT", "2014-05-21T15:06", 141.0]
["CDISCPILOT01", "LB", "01-701-1097", 280.0, "MCHC", "Ery. Mean Corpuscular HGB Concentration", "HEMATOLOGY", "36", "g/dL", "31", "38", "22.3416", 22.3416, "mmol/L", 19.0, 24.0, "NORMAL", "", 12.0, "WEEK 24", 168.0, "TREATMENT", "2014-06-18T10:41", 169.0]
["CDISCPILOT01", "LB", "01-701-1097", 315.0, "MCHC", "Ery. Mean Corpuscular HGB Concentration", "HEMATOLOGY", "36", "g/dL", "31", "38", "22.3416", 22.3416, "mmol/L", 19.0, 24.0, "NORMAL", "", 13.0, "WEEK 26", 182.0, "TREATMENT", "2014-07-09T09:39", 190.0]
["CDISCPILOT01", "LB", "01-701-1097", 24.0, "MCV", "Ery. Mean Corpuscular Volume", "HEMATOLOGY", "90", "fL", "80", "100", "90", 90.0, "fL", 80.0, 100.0, "NORMAL", "Y", 1.0, "SCREENING 1", -7.0, "SCREENING", "2013-12-23T12:30", -9.0]
["CDISCPILOT01", "LB", "01-701-1097", 61.0, "MCV", "Ery. Mean Corpuscular Volume", "HEMATOLOGY", "87", "fL", "80", "100", "87", 87.0, "fL", 80.0, 100.0, "NORMAL", "", 4.0, "WEEK 2", 14.0, "TREATMENT", "2014-01-15T10:03", 15.0]
["CDISCPILOT01", "LB", "01-701-1097", 94.0, "MCV", "Ery. Mean Corpuscular Volume", "HEMATOLOGY", "94", "fL", "80", "100", "94", 94.0, "fL", 80.0, 100.0, "NORMAL", "", 5.0, "WEEK 4", 28.0, "TREATMENT", "2014-01-29T14:00", 29.0]
["CDISCPILOT01", "LB", "01-701-1097", 124.0, "MCV", "Ery. Mean Corpuscular Volume", "HEMATOLOGY", "96", "fL", "80", "100", "96", 96.0, "fL", 80.0, 100.0, "NORMAL", "", 7.0, "WEEK 6", 42.0, "TREATMENT", "2014-02-11T11:16", 42.0]
["CDISCPILOT01", "LB", "01-701-1097", 154.0, "MCV", "Ery. Mean Corpuscular Volume", "HEMATOLOGY", "95", "fL", "80", "100", "95", 95.0, "fL", 80.0, 100.0, "NORMAL", "", 8.0, "WEEK 8", 56.0, "TREATMENT", "2014-02-26T11:10", 57.0]
["CDISCPILOT01", "LB", "01-701-1097", 186.0, "MCV", "Ery. Mean Corpuscular Volume", "HEMATOLOGY", "95", "fL", "80", "100", "95", 95.0, "fL", 80.0, 100.0, "NORMAL", "", 9.0, "WEEK 12", 84.0, "TREATMENT", "2014-03-26T08:55", 85.0]
["CDISCPILOT01", "LB", "01-701-1097", 219.0, "MCV", "Ery. Mean Corpuscular Volume", "HEMATOLOGY", "95", "fL", "80", "100", "95", 95.0, "fL", 80.0, 100.0, "NORMAL", "", 10.0, "WEEK 16", 112.0, "TREATMENT", "2014-04-23T11:14", 113.0]
["CDISCPILOT01", "LB", "01-701-1097", 249.0, "MCV", "Ery. Mean Corpuscular Volume", "HEMATOLOGY", "93", "fL", "80", "100", "93", 93.0, "fL", 80.0, 100.0, "NORMAL", "", 11.0, "WEEK 20", 140.0, "TREATMENT", "2014-05-21T15:06", 141.0]
["CDISCPILOT01", "LB", "01-701-1097", 281.0, "MCV", "Ery. Mean Corpuscular Volume", "HEMATOLOGY", "94", "fL", "80", "100", "94", 94.0, "fL", 80.0, 100.0, "NORMAL", "", 12.0, "WEEK 24", 168.0, "TREATMENT", "2014-06-18T10:41", 169.0]
["CDISCPILOT01", "LB", "01-701-1097", 316.0, "MCV", "Ery. Mean Corpuscular Volume", "HEMATOLOGY", "91", "fL", "80", "100", "91", 91.0, "fL", 80.0, 100.0, "NORMAL", "", 13.0, "WEEK 26", 182.0, "TREATMENT", "2014-07-09T09:39", 190.0]
["CDISCPILOT01", "LB", "01-701-1097", 25.0, "MONO", "Monocytes", "HEMATOLOGY", "0.44", "10^9/L", "0.12", "0.92", "0.44", 0.44, "10^9/L", 0.12, 0.9199999999999999, "NORMAL", "Y", 1.0, "SCREENING 1", -7.0, "SCREENING", "2013-12-23T12:30", -9.0]
["CDISCPILOT01", "LB", "01-701-1097", 62.0, "MONO", "Monocytes", "HEMATOLOGY", "0.65", "10^9/L", "0.12", "0.92", "0.65", 0.6499999999999999, "10^9/L", 0.12, 0.9199999999999999, "NORMAL", "", 4.0, "WEEK 2", 14.0, "TREATMENT", "2014-01-15T10:03", 15.0]
["CDISCPILOT01", "LB", "01-701-1097", 95.0, "MONO", "Monocytes", "HEMATOLOGY", "0.52", "10^9/L", "0.12", "0.92", "0.52", 0.5199999999999999, "10^9/L", 0.12, 0.9199999999999999, "NORMAL", "", 5.0, "WEEK 4", 28.0, "TREATMENT", "2014-01-29T14:00", 29.0]
["CDISCPILOT01", "LB", "01-701-1097", 125.0, "MONO", "Monocytes", "HEMATOLOGY", "0.62", "10^9/L", "0.12", "0.92", "0.62", 0.62, "10^9/L", 0.12, 0.9199999999999999, "NORMAL", "", 7.0, "WEEK 6", 42.0, "TREATMENT", "2014-02-11T11:16", 42.0]
["CDISCPILOT01", "LB", "01-701-1097", 155.0, "MONO", "Monocytes", "HEMATOLOGY", "0.66", "10^9/L", "0.12", "0.92", "0.66", 0.6599999999999999, "10^9/L", 0.12, 0.9199999999999999, "NORMAL", "", 8.0, "WEEK 8", 56.0, "TREATMENT", "2014-02-26T11:10", 57.0]
["CDISCPILOT01", "LB", "01-701-1097", 187.0, "MONO", "Monocytes", "HEMATOLOGY", "0.71", "10^9/L", "0.12", "0.92", "0.71", 0.71, "10^9/L", 0.12, 0.9199999999999999, "NORMAL", "", 9.0, "WEEK 12", 84.0, "TREATMENT", "2014-03-26T08:55", 85.0]
["CDISCPILOT01", "LB", "01-701-1097", 220.0, "MONO", "Monocytes", "HEMATOLOGY", "0.63", "10^9/L", "0.12", "0.92", "0.63", 0.63, "10^9/L", 0.12, 0.9199999999999999, "NORMAL", "", 10.0, "WEEK 16", 112.0, "TREATMENT", "2014-04-23T11:14", 113.0]
["CDISCPILOT01", "LB", "01-701-1097", 250.0, "MONO", "Monocytes", "HEMATOLOGY", "0.59", "10^9/L", "0.12", "0.92", "0.59", 0.59, "10^9/L", 0.12, 0.9199999999999999, "NORMAL", "", 11.0, "WEEK 20", 140.0, "TREATMENT", "2014-05-21T15:06", 141.0]
["CDISCPILOT01", "LB", "01-701-1097", 282.0, "MONO", "Monocytes", "HEMATOLOGY", "0.55", "10^9/L", "0.12", "0.92", "0.55", 0.5499999999999999, "10^9/L", 0.12, 0.9199999999999999, "NORMAL", "", 12.0, "WEEK 24", 168.0, "TREATMENT", "2014-06-18T10:41", 169.0]
["CDISCPILOT01", "LB", "01-701-1097", 317.0, "MONO", "Monocytes", "HEMATOLOGY", "0.57", "10^9/L", "0.12", "0.92", "0.57", 0.57, "10^9/L", 0.12, 0.9199999999999999, "NORMAL", "", 13.0, "WEEK 26", 182.0, "TREATMENT", "2014-07-09T09:39", 190.0]
["CDISCPILOT01", "LB", "01-701-1097", 29.0, "PLAT", "Platelets", "HEMATOLOGY", "270", "10^9/L", "130", "394", "270", 270.0, "10^9/L", 130.0, 394.0, "NORMAL", "Y", 1.0, "SCREENING 1", -7.0, "SCREENING", "2013-12-23T12:30", -9.0]
["CDISCPILOT01", "LB", "01-701-1097", 66.0, "PLAT", "Platelets", "HEMATOLOGY", "252", "10^9/L", "130", "394", "252", 252.0, "10^9/L", 130.0, 394.0, "NORMAL", "", 4.0, "WEEK 2", 14.0, "TREATMENT", "2014-01-15T10:03", 15.0]
["CDISCPILOT01", "LB", "01-701-1097", 98.0, "PLAT", "Platelets", "HEMATOLOGY", "284", "10^9/L", "130", "394", "284", 284.0, "10^9/L", 130.0, 394.0, "NORMAL", "", 5.0, "WEEK 4", 28.0, "TREATMENT", "2014-01-29T14:00", 29.0]
["CDISCPILOT01", "LB", "01-701-1097", 128.0, "PLAT", "Platelets", "HEMATOLOGY", "266", "10^9/L", "130", "394", "266", 266.0, "10^9/L", 130.0, 394.0, "NORMAL", "", 7.0, "WEEK 6", 42.0, "TREATMENT", "2014-02-11T11:16", 42.0]
["CDISCPILOT01", "LB", "01-701-1097", 158.0, "PLAT", "Platelets", "HEMATOLOGY", "261", "10^9/L", "130", "394", "261", 261.0, "10^9/L", 130.0, 394.0, "NORMAL", "", 8.0, "WEEK 8", 56.0, "TREATMENT", "2014-02-26T11:10", 57.0]
["CDISCPILOT01", "LB", "01-701-1097", 191.0, "PLAT", "Platelets", "HEMATOLOGY", "260", "10^9/L", "130", "394", "260", 260.0, "10^9/L", 130.0, 394.0, "NORMAL", "", 9.0, "WEEK 12", 84.0, "TREATMENT", "2014-03-26T08:55", 85.0]
["CDISCPILOT01", "LB", "01-701-1097", 223.0, "PLAT", "Platelets", "HEMATOLOGY", "293", "10^9/L", "130", "394", "293", 293.0, "10^9/L", 130.0, 394.0, "NORMAL", "", 10.0, "WEEK 16", 112.0, "TREATMENT", "2014-04-23T11:14", 113.0]
["CDISCPILOT01", "LB", "01-701-1097", 253.0, "PLAT", "Platelets", "HEMATOLOGY", "222", "10^9/L", "130", "394", "222", 222.0, "10^9/L", 130.0, 394.0, "NORMAL", "", 11.0, "WEEK 20", 140.0, "TREATMENT", "2014-05-21T15:06", 141.0]
["CDISCPILOT01", "LB", "01-701-1097", 286.0, "PLAT", "Platelets", "HEMATOLOGY", "230", "10^9/L", "130", "394", "230", 230.0, "10^9/L", 130.0, 394.0, "NORMAL", "", 12.0, "WEEK 24", 168.0, "TREATMENT", "2014-06-18T10:41", 169.0]
["CDISCPILOT01", "LB", "01-701-1097", 321.0, "PLAT", "Platelets", "HEMATOLOGY", "283", "10^9/L", "130", "394", "283", 283.0, "10^9/L", 130.0, 394.0, "NORMAL", "", 13.0, "WEEK 26", 182.0, "TREATMENT", "2014-07-09T09:39", 190.0]
["CDISCPILOT01", "LB", "01-701-1097", 31.0, "RBC", "Erythrocytes", "HEMATOLOGY", "4.60", "10^12/L", "4", "5.8", "4.6", 4.6, "10^12/L", 4.0, 5.8, "NORMAL", "Y", 1.0, "SCREENING 1", -7.0, "SCREENING", "2013-12-23T12:30", -9.0]
["CDISCPILOT01", "LB", "01-701-1097", 68.0, "RBC", "Erythrocytes", "HEMATOLOGY", "4.40", "10^12/L", "4", "5.8", "4.4", 4.3999999999999995, "10^12/L", 4.0, 5.8, "NORMAL", "", 4.0, "WEEK 2", 14.0, "TREATMENT", "2014-01-15T10:03", 15.0]
["CDISCPILOT01", "LB", "01-701-1097", 100.0, "RBC", "Erythrocytes", "HEMATOLOGY", "4.30", "10^12/L", "4", "5.8", "4.3", 4.3, "10^12/L", 4.0, 5.8, "NORMAL", "", 5.0, "WEEK 4", 28.0, "TREATMENT", "2014-01-29T14:00", 29.0]
["CDISCPILOT01", "LB", "01-701-1097", 130.0, "RBC", "Erythrocytes", "HEMATOLOGY", "4.30", "10^12/L", "4", "5.8", "4.3", 4.3, "10^12/L", 4.0, 5.8, "NORMAL", "", 7.0, "WEEK 6", 42.0, "TREATMENT", "2014-02-11T11:16", 42.0]
["CDISCPILOT01", "LB", "01-701-1097", 160.0, "RBC", "Erythrocytes", "HEMATOLOGY", "4.40", "10^12/L", "4", "5.8", "4.4", 4.3999999999999995, "10^12/L", 4.0, 5.8, "NORMAL", "", 8.0, "WEEK 8", 56.0, "TREATMENT", "2014-02-26T11:10", 57.0]
["CDISCPILOT01", "LB", "01-701-1097", 193.0, "RBC", "Erythrocytes", "HEMATOLOGY", "4.40", "10^12/L", "4", "5.8", "4.4", 4.3999999999999995, "10^12/L", 4.0, 5.8, "NORMAL", "", 9.0, "WEEK 12", 84.0, "TREATMENT", "2014-03-26T08:55", 85.0]
["CDISCPILOT01", "LB", "01-701-1097", 225.0, "RBC", "Erythrocytes", "HEMATOLOGY", "4.30", "10^12/L", "4", "5.8", "4.3", 4.3, "10^12/L", 4.0, 5.8, "NORMAL", "", 10.0, "WEEK 16", 112.0, "TREATMENT", "2014-04-23T11:14", 113.0]
["CDISCPILOT01", "LB", "01-701-1097", 255.0, "RBC", "Erythrocytes", "HEMATOLOGY", "4.20", "10^12/L", "4", "5.8", "4.2", 4.199999999999999, "10^12/L", 4.0, 5.8, "NORMAL", "", 11.0, "WEEK 20", 140.0, "TREATMENT", "2014-05-21T15:06", 141.0]
["CDISCPILOT01", "LB", "01-701-1097", 288.0, "RBC", "Erythrocytes", "HEMATOLOGY", "4.30", "10^12/L", "4", "5.8", "4.3", 4.3, "10^12/L", 4.0, 5.8, "NORMAL", "", 12.0, "WEEK 24", 168.0, "TREATMENT", "2014-06-18T10:41", 169.0]
["CDISCPILOT01", "LB", "01-701-1097", 323.0, "RBC", "Erythrocytes", "HEMATOLOGY", "4.30", "10^12/L", "4", "5.8", "4.3", 4.3, "10^12/L", 4.0, 5.8, "NORMAL", "", 13.0, "WEEK 26", 182.0, "TREATMENT", "2014-07-09T09:39", 190.0]
["CDISCPILOT01", "LB", "01-701-1097", 37.0, "WBC", "Leukocytes", "HEMATOLOGY", "8.74", "10^9/L", "3.8", "10.7", "8.74", 8.739999999999998, "10^9/L", 3.8, 10.7, "NORMAL", "Y", 1.0, "SCREENING 1", -7.0, "SCREENING", "2013-12-23T12:30", -9.0]
["CDISCPILOT01", "LB", "01-701-1097", 72.0, "WBC", "Leukocytes", "HEMATOLOGY", "9.33", "10^9/L", "3.8", "10.7", "9.33", 9.33, "10^9/L", 3.8, 10.7, "NORMAL", "", 4.0, "WEEK 2", 14.0, "TREATMENT", "2014-01-15T10:03", 15.0]
["CDISCPILOT01", "LB", "01-701-1097", 102.0, "WBC", "Leukocytes", "HEMATOLOGY", "10.42", "10^9/L", "3.8", "10.7", "10.42", 10.42, "10^9/L", 3.8, 10.7, "NORMAL", "", 5.0, "WEEK 4", 28.0, "TREATMENT", "2014-01-29T14:00", 29.0]
["CDISCPILOT01", "LB", "01-701-1097", 132.0, "WBC", "Leukocytes", "HEMATOLOGY", "9.75", "10^9/L", "3.8", "10.7", "9.75", 9.75, "10^9/L", 3.8, 10.7, "NORMAL", "", 7.0, "WEEK 6", 42.0, "TREATMENT", "2014-02-11T11:16", 42.0]
["CDISCPILOT01", "LB", "01-701-1097", 162.0, "WBC", "Leukocytes", "HEMATOLOGY", "9.95", "10^9/L", "3.8", "10.7", "9.95", 9.95, "10^9/L", 3.8, 10.7, "NORMAL", "", 8.0, "WEEK 8", 56.0, "TREATMENT", "2014-02-26T11:10", 57.0]
["CDISCPILOT01", "LB", "01-701-1097", 197.0, "WBC", "Leukocytes", "HEMATOLOGY", "9.94", "10^9/L", "3.8", "10.7", "9.94", 9.94, "10^9/L", 3.8, 10.7, "NORMAL", "", 9.0, "WEEK 12", 84.0, "TREATMENT", "2014-03-26T08:55", 85.0]
["CDISCPILOT01", "LB", "01-701-1097", 227.0, "WBC", "Leukocytes", "HEMATOLOGY", "10.51", "10^9/L", "3.8", "10.7", "10.51", 10.51, "10^9/L", 3.8, 10.7, "NORMAL", "", 10.0, "WEEK 16", 112.0, "TREATMENT", "2014-04-23T11:14", 113.0]
["CDISCPILOT01", "LB", "01-701-1097", 257.0, "WBC", "Leukocytes", "HEMATOLOGY", "8.66", "10^9/L", "3.8", "10.7", "8.66", 8.659999999999998, "10^9/L", 3.8, 10.7, "NORMAL", "", 11.0, "WEEK 20", 140.0, "TREATMENT", "2014-05-21T15:06", 141.0]
["CDISCPILOT01", "LB", "01-701-1097", 292.0, "WBC", "Leukocytes", "HEMATOLOGY", "9.70", "10^9/L", "3.8", "10.7", "9.7", 9.7, "10^9/L", 3.8, 10.7, "NORMAL", "", 12.0, "WEEK 24", 168.0, "TREATMENT", "2014-06-18T10:41", 169.0]
["CDISCPILOT01", "LB", "01-701-1097", 327.0, "WBC", "Leukocytes", "HEMATOLOGY", "8.39", "10^9/L", "3.8", "10.7", "8.39", 8.389999999999999, "10^9/L", 3.8, 10.7, "NORMAL", "", 13.0, "WEEK 26", 182.0, "TREATMENT", "2014-07-09T09:39", 190.0]
["CDISCPILOT01", "LB", "01-701-1111", 41.0, "ANISO", "Anisocytes", "HEMATOLOGY", "1", "", "", "", "1", 1.0, "", null, null, "ABNORMAL", "", 4.0, "WEEK 2", 14.0, "TREATMENT", "2012-09-17T11:48", 11.0]
["CDISCPILOT01", "LB", "01-701-1111", 5.0, "BASO", "Basophils", "HEMATOLOGY", "0.04", "10^9/L", "0", "0.2", "0.04", 0.039999999999999994, "10^9/L", 0.0, 0.19999999999999998, "NORMAL", "Y", 1.0, "SCREENING 1", -7.0, "SCREENING", "2012-08-25T15:25", -13.0]
["CDISCPILOT01", "LB", "01-701-1111", 43.0, "BASO", "Basophils", "HEMATOLOGY", "0.04", "10^9/L", "0", "0.2", "0.04", 0.039999999999999994, "10^9/L", 0.0, 0.19999999999999998, "NORMAL", "", 4.0, "WEEK 2", 14.0, "TREATMENT", "2012-09-17T11:48", 11.0]
["CDISCPILOT01", "LB", "01-701-1111", 14.0, "EOS", "Eosinophils", "HEMATOLOGY", "0.04", "10^9/L", "0", "0.57", "0.04", 0.039999999999999994, "10^9/L", 0.0, 0.57, "NORMAL", "Y", 1.0, "SCREENING 1", -7.0, "SCREENING", "2012-08-25T15:25", -13.0]
["CDISCPILOT01", "LB", "01-701-1111", 52.0, "EOS", "Eosinophils", "HEMATOLOGY", "0.08", "10^9/L", "0", "0.57", "0.08", 0.08, "10^9/L", 0.0, 0.57, "NORMAL", "", 4.0, "WEEK 2", 14.0, "TREATMENT", "2012-09-17T11:48", 11.0]
["CDISCPILOT01", "LB", "01-701-1111", 17.0, "HCT", "Hematocrit", "HEMATOLOGY", "37.0", "%", "34", "48", "0.37", 0.37, "", 0.33999999999999997, 0.48, "NORMAL", "Y", 1.0, "SCREENING 1", -7.0, "SCREENING", "2012-08-25T15:25", -13.0]
["CDISCPILOT01", "LB", "01-701-1111", 55.0, "HCT", "Hematocrit", "HEMATOLOGY", "37.0", "%", "34", "48", "0.37", 0.37, "", 0.33999999999999997, 0.48, "NORMAL", "", 4.0, "WEEK 2", 14.0, "TREATMENT", "2012-09-17T11:48", 11.0]
["CDISCPILOT01", "LB", "01-701-1111", 18.0, "HGB", "Hemoglobin", "HEMATOLOGY", "12.0", "g/dL", "11.5", "15.8", "7.4472", 7.4472, "mmol/L", 7.14, 9.809999999999999, "NORMAL", "Y", 1.0, "SCREENING 1", -7.0, "SCREENING", "2012-08-25T15:25", -13.0]
["CDISCPILOT01", "LB", "01-701-1111", 56.0, "HGB", "Hemoglobin", "HEMATOLOGY", "12.2", "g/dL", "11.5", "15.8", "7.57132", 7.57132, "mmol/L", 7.14, 9.809999999999999, "NORMAL", "", 4.0, "WEEK 2", 14.0, "TREATMENT", "2012-09-17T11:48", 11.0]
["CDISCPILOT01", "LB", "01-701-1111", 21.0, "LYM", "Lymphocytes", "HEMATOLOGY", "2.08", "10^9/L", "0.8", "3", "2.08", 2.08, "10^9/L", 0.7999999999999999, 3.0, "NORMAL", "Y", 1.0, "SCREENING 1", -7.0, "SCREENING", "2012-08-25T15:25", -13.0]
["CDISCPILOT01", "LB", "01-701-1111", 59.0, "LYM", "Lymphocytes", "HEMATOLOGY", "1.00", "10^9/L", "0.8", "3", "1", 1.0, "10^9/L", 0.7999999999999999, 3.0, "NORMAL", "", 4.0, "WEEK 2", 14.0, "TREATMENT", "2012-09-17T11:48", 11.0]
["CDISCPILOT01", "LB", "01-701-1111", 22.0, "MCH", "Ery. Mean Corpuscular Hemoglobin", "HEMATOLOGY", "32", "pg", "26", "34", "1.98592", 1.98592, "fmol", 1.6, 2.1, "NORMAL", "Y", 1.0, "SCREENING 1", -7.0, "SCREENING", "2012-08-25T15:25", -13.0]
["CDISCPILOT01", "LB", "01-701-1111", 60.0, "MCH", "Ery. Mean Corpuscular Hemoglobin", "HEMATOLOGY", "33", "pg", "26", "34", "2.04798", 2.04798, "fmol", 1.6, 2.1, "NORMAL", "", 4.0, "WEEK 2", 14.0, "TREATMENT", "2012-09-17T11:48", 11.0]
["CDISCPILOT01", "LB", "01-701-1111", 23.0, "MCHC", "Ery. Mean Corpuscular HGB Concentration", "HEMATOLOGY", "33", "g/dL", "31", "38", "20.4798", 20.4798, "mmol/L", 19.0, 24.0, "NORMAL", "Y", 1.0, "SCREENING 1", -7.0, "SCREENING", "2012-08-25T15:25", -13.0]
["CDISCPILOT01", "LB", "01-701-1111", 61.0, "MCHC", "Ery. Mean Corpuscular HGB Concentration", "HEMATOLOGY", "33", "g/dL", "31", "38", "20.4798", 20.4798, "mmol/L", 19.0, 24.0, "NORMAL", "", 4.0, "WEEK 2", 14.0, "TREATMENT", "2012-09-17T11:48", 11.0]
["CDISCPILOT01", "LB", "01-701-1111", 24.0, "MCV", "Ery. Mean Corpuscular Volume", "HEMATOLOGY", "97", "fL", "80", "100", "97", 97.0, "fL", 80.0, 100.0, "NORMAL", "Y", 1.0, "SCREENING 1", -7.0, "SCREENING", "2012-08-25T15:25", -13.0]
["CDISCPILOT01", "LB", "01-701-1111", 62.0, "MCV", "Ery. Mean Corpuscular Volume", "HEMATOLOGY", "101", "fL", "80", "100", "101", 101.0, "fL", 80.0, 100.0, "HIGH", "", 4.0, "WEEK 2", 14.0, "TREATMENT", "2012-09-17T11:48", 11.0]
["CDISCPILOT01", "LB", "01-701-1111", 25.0, "MONO", "Monocytes", "HEMATOLOGY", "0.37", "10^9/L", "0.12", "0.92", "0.37", 0.37, "10^9/L", 0.12, 0.9199999999999999, "NORMAL", "Y", 1.0, "SCREENING 1", -7.0, "SCREENING", "2012-08-25T15:25", -13.0]
["CDISCPILOT01", "LB", "01-701-1111", 63.0, "MONO", "Monocytes", "HEMATOLOGY", "0.36", "10^9/L", "0.12", "0.92", "0.36", 0.36, "10^9/L", 0.12, 0.9199999999999999, "NORMAL", "", 4.0, "WEEK 2", 14.0, "TREATMENT", "2012-09-17T11:48", 11.0]
["CDISCPILOT01", "LB", "01-701-1111", 29.0, "PLAT", "Platelets", "HEMATOLOGY", "255", "10^9/L", "130", "394", "255", 255.0, "10^9/L", 130.0, 394.0, "NORMAL", "Y", 1.0, "SCREENING 1", -7.0, "SCREENING", "2012-08-25T15:25", -13.0]
["CDISCPILOT01", "LB", "01-701-1111", 67.0, "PLAT", "Platelets", "HEMATOLOGY", "195", "10^9/L", "130", "394", "195", 195.0, "10^9/L", 130.0, 394.0, "NORMAL", "", 4.0, "WEEK 2", 14.0, "TREATMENT", "2012-09-17T11:48", 11.0]
["CDISCPILOT01", "LB", "01-701-1111", 31.0, "RBC", "Erythrocytes", "HEMATOLOGY", "3.80", "10^12/L", "3.9", "5.5", "3.8", 3.8, "10^12/L", 3.9, 5.5, "LOW", "Y", 1.0, "SCREENING 1", -7.0, "SCREENING", "2012-08-25T15:25", -13.0]
["CDISCPILOT01", "LB", "01-701-1111", 69.0, "RBC", "Erythrocytes", "HEMATOLOGY", "3.70", "10^12/L", "3.9", "5.5", "3.7", 3.6999999999999997, "10^12/L", 3.9, 5.5, "LOW", "", 4.0, "WEEK 2", 14.0, "TREATMENT", "2012-09-17T11:48", 11.0]
["CDISCPILOT01", "LB", "01-701-1111", 37.0, "WBC", "Leukocytes", "HEMATOLOGY", "4.59", "10^9/L", "3.8", "10.7", "4.59", 4.59, "10^9/L", 3.8, 10.7, "NORMAL", "Y", 1.0, "SCREENING 1", -7.0, "SCREENING", "2012-08-25T15:25", -13.0]
["CDISCPILOT01", "LB", "01-701-1111", 73.0, "WBC", "Leukocytes", "HEMATOLOGY", "6.55", "10^9/L", "3.8", "10.7", "6.55", 6.55, "10^9/L", 3.8, 10.7, "NORMAL", "", 4.0, "WEEK 2", 14.0, "TREATMENT", "2012-09-17T11:48", 11.0]
["CDISCPILOT01", "LB", "01-701-1115", 5.0, "BASO", "Basophils", "HEMATOLOGY", "0.03", "10^9/L", "0", "0.2", "0.03", 0.03, "10^9/L", 0.0, 0.19999999999999998, "NORMAL", "Y", 1.0, "SCREENING 1", -7.0, "SCREENING", "2012-11-23T11:20", -7.0]
["CDISCPILOT01", "LB", "01-701-1115", 42.0, "BASO", "Basophils", "HEMATOLOGY", "0.04", "10^9/L", "0", "0.2", "0.04", 0.039999999999999994, "10^9/L", 0.0, 0.19999999999999998, "NORMAL", "", 4.0, "WEEK 2", 14.0, "TREATMENT", "2012-12-13T14:05", 14.0]
["CDISCPILOT01", "LB", "01-701-1115", 77.0, "BASO", "Basophils", "HEMATOLOGY", "0.05", "10^9/L", "0", "0.2", "0.05", 0.049999999999999996, "10^9/L", 0.0, 0.19999999999999998, "NORMAL", "", 5.0, "WEEK 4", 28.0, "TREATMENT", "2012-12-26T08:44", 27.0]
["CDISCPILOT01", "LB", "01-701-1115", 122.0, "BASO", "Basophils", "HEMATOLOGY", "0.03", "10^9/L", "0", "0.2", "0.03", 0.03, "10^9/L", 0.0, 0.19999999999999998, "NORMAL", "", 7.0, "WEEK 6", 42.0, "TREATMENT", "2013-01-10T15:20", 42.0]
["CDISCPILOT01", "LB", "01-701-1115", 152.0, "BASO", "Basophils", "HEMATOLOGY", "0.04", "10^9/L", "0", "0.2", "0.04", 0.039999999999999994, "10^9/L", 0.0, 0.19999999999999998, "NORMAL", "", 8.0, "WEEK 8", 56.0, "TREATMENT", "2013-01-23T12:13", 55.0]
["CDISCPILOT01", "LB", "01-701-1115", 14.0, "EOS", "Eosinophils", "HEMATOLOGY", "0.08", "10^9/L", "0", "0.57", "0.08", 0.08, "10^9/L", 0.0, 0.57, "NORMAL", "Y", 1.0, "SCREENING 1", -7.0, "SCREENING", "2012-11-23T11:20", -7.0]
["CDISCPILOT01", "LB", "01-701-1115", 51.0, "EOS", "Eosinophils", "HEMATOLOGY", "0.08", "10^9/L", "0", "0.57", "0.08", 0.08, "10^9/L", 0.0, 0.57, "NORMAL", "", 4.0, "WEEK 2", 14.0, "TREATMENT", "2012-12-13T14:05", 14.0]
["CDISCPILOT01", "LB", "01-701-1115", 85.0, "EOS", "Eosinophils", "HEMATOLOGY", "0.07", "10^9/L", "0", "0.57", "0.07", 0.07, "10^9/L", 0.0, 0.57, "NORMAL", "", 5.0, "WEEK 4", 28.0, "TREATMENT", "2012-12-26T08:44", 27.0]
["CDISCPILOT01", "LB", "01-701-1115", 130.0, "EOS", "Eosinophils", "HEMATOLOGY", "0.16", "10^9/L", "0", "0.57", "0.16", 0.16, "10^9/L", 0.0, 0.57, "NORMAL", "", 7.0, "WEEK 6", 42.0, "TREATMENT", "2013-01-10T15:20", 42.0]
["CDISCPILOT01", "LB", "01-701-1115", 161.0, "EOS", "Eosinophils", "HEMATOLOGY", "0.35", "10^9/L", "0", "0.57", "0.35", 0.35, "10^9/L", 0.0, 0.57, "NORMAL", "", 8.0, "WEEK 8", 56.0, "TREATMENT", "2013-01-23T12:13", 55.0]
["CDISCPILOT01", "LB", "01-701-1115", 17.0, "HCT", "Hematocrit", "HEMATOLOGY", "46.0", "%", "37", "51", "0.46", 0.45999999999999996, "", 0.37, 0.5099999999999999, "NORMAL", "Y", 1.0, "SCREENING 1", -7.0, "SCREENING", "2012-11-23T11:20", -7.0]
["CDISCPILOT01", "LB", "01-701-1115", 54.0, "HCT", "Hematocrit", "HEMATOLOGY", "45.0", "%", "37", "51", "0.45", 0.44999999999999996, "", 0.37, 0.5099999999999999, "NORMAL", "", 4.0, "WEEK 2", 14.0, "TREATMENT", "2012-12-13T14:05", 14.0]
["CDISCPILOT01", "LB", "01-701-1115", 88.0, "HCT", "Hematocrit", "HEMATOLOGY", "45.0", "%", "37", "51", "0.45", 0.44999999999999996, "", 0.37, 0.5099999999999999, "NORMAL", "", 5.0, "WEEK 4", 28.0, "TREATMENT", "2012-12-26T08:44", 27.0]
["CDISCPILOT01", "LB", "01-701-1115", 133.0, "HCT", "Hematocrit", "HEMATOLOGY", "45.0", "%", "37", "51", "0.45", 0.44999999999999996, "", 0.37, 0.5099999999999999, "NORMAL", "", 7.0, "WEEK 6", 42.0, "TREATMENT", "2013-01-10T15:20", 42.0]
["CDISCPILOT01", "LB", "01-701-1115", 164.0, "HCT", "Hematocrit", "HEMATOLOGY", "45.0", "%", "37", "51", "0.45", 0.44999999999999996, "", 0.37, 0.5099999999999999, "NORMAL", "", 8.0, "WEEK 8", 56.0, "TREATMENT", "2013-01-23T12:13", 55.0]
["CDISCPILOT01", "LB", "01-701-1115", 18.0, "HGB", "Hemoglobin", "HEMATOLOGY", "14.9", "g/dL", "12.5", "17", "9.24694", 9.246939999999999, "mmol/L", 7.76, 10.549999999999999, "NORMAL", "Y", 1.0, "SCREENING 1", -7.0, "SCREENING", "2012-11-23T11:20", -7.0]
["CDISCPILOT01", "LB", "01-701-1115", 55.0, "HGB", "Hemoglobin", "HEMATOLOGY", "14.6", "g/dL", "12.5", "17", "9.06076", 9.060759999999998, "mmol/L", 7.76, 10.549999999999999, "NORMAL", "", 4.0, "WEEK 2", 14.0, "TREATMENT", "2012-12-13T14:05", 14.0]
["CDISCPILOT01", "LB", "01-701-1115", 89.0, "HGB", "Hemoglobin", "HEMATOLOGY", "14.6", "g/dL", "12.5", "17", "9.06076", 9.060759999999998, "mmol/L", 7.76, 10.549999999999999, "NORMAL", "", 5.0, "WEEK 4", 28.0, "TREATMENT", "2012-12-26T08:44", 27.0]
["CDISCPILOT01", "LB", "01-701-1115", 134.0, "HGB", "Hemoglobin", "HEMATOLOGY", "14.7", "g/dL", "12.5", "17", "9.12282", 9.122819999999999, "mmol/L", 7.76, 10.549999999999999, "NORMAL", "", 7.0, "WEEK 6", 42.0, "TREATMENT", "2013-01-10T15:20", 42.0]
["CDISCPILOT01", "LB", "01-701-1115", 165.0, "HGB", "Hemoglobin", "HEMATOLOGY", "15.2", "g/dL", "12.5", "17", "9.43312", 9.433119999999999, "mmol/L", 7.76, 10.549999999999999, "NORMAL", "", 8.0, "WEEK 8", 56.0, "TREATMENT", "2013-01-23T12:13", 55.0]
["CDISCPILOT01", "LB", "01-701-1115", 21.0, "LYM", "Lymphocytes", "HEMATOLOGY", "1.20", "10^9/L", "0.8", "3", "1.2", 1.2, "10^9/L", 0.7999999999999999, 3.0, "NORMAL", "Y", 1.0, "SCREENING 1", -7.0, "SCREENING", "2012-11-23T11:20", -7.0]
["CDISCPILOT01", "LB", "01-701-1115", 58.0, "LYM", "Lymphocytes", "HEMATOLOGY", "1.48", "10^9/L", "0.8", "3", "1.48", 1.48, "10^9/L", 0.7999999999999999, 3.0, "NORMAL", "", 4.0, "WEEK 2", 14.0, "TREATMENT", "2012-12-13T14:05", 14.0]
["CDISCPILOT01", "LB", "01-701-1115", 91.0, "LYM", "Lymphocytes", "HEMATOLOGY", "1.04", "10^9/L", "0.8", "3", "1.04", 1.04, "10^9/L", 0.7999999999999999, 3.0, "NORMAL", "", 5.0, "WEEK 4", 28.0, "TREATMENT", "2012-12-26T08:44", 27.0]
["CDISCPILOT01", "LB", "01-701-1115", 136.0, "LYM", "Lymphocytes", "HEMATOLOGY", "1.13", "10^9/L", "0.8", "3", "1.13", 1.13, "10^9/L", 0.7999999999999999, 3.0, "NORMAL", "", 7.0, "WEEK 6", 42.0, "TREATMENT", "2013-01-10T15:20", 42.0]
["CDISCPILOT01", "LB", "01-701-1115", 168.0, "LYM", "Lymphocytes", "HEMATOLOGY", "1.13", "10^9/L", "0.8", "3", "1.13", 1.13, "10^9/L", 0.7999999999999999, 3.0, "NORMAL", "", 8.0, "WEEK 8", 56.0, "TREATMENT", "2013-01-23T12:13", 55.0]
["CDISCPILOT01", "LB", "01-701-1115", 22.0, "MCH", "Ery. Mean Corpuscular Hemoglobin", "HEMATOLOGY", "30", "pg", "26", "34", "1.8618", 1.8618, "fmol", 1.6, 2.1, "NORMAL", "Y", 1.0, "SCREENING 1", -7.0, "SCREENING", "2012-11-23T11:20", -7.0]
["CDISCPILOT01", "LB", "01-701-1115", 59.0, "MCH", "Ery. Mean Corpuscular Hemoglobin", "HEMATOLOGY", "31", "pg", "26", "34", "1.92386", 1.92386, "fmol", 1.6, 2.1, "NORMAL", "", 4.0, "WEEK 2", 14.0, "TREATMENT", "2012-12-13T14:05", 14.0]
["CDISCPILOT01", "LB", "01-701-1115", 92.0, "MCH", "Ery. Mean Corpuscular Hemoglobin", "HEMATOLOGY", "31", "pg", "26", "34", "1.92386", 1.92386, "fmol", 1.6, 2.1, "NORMAL", "", 5.0, "WEEK 4", 28.0, "TREATMENT", "2012-12-26T08:44", 27.0]
["CDISCPILOT01", "LB", "01-701-1115", 137.0, "MCH", "Ery. Mean Corpuscular Hemoglobin", "HEMATOLOGY", "31", "pg", "26", "34", "1.92386", 1.92386, "fmol", 1.6, 2.1, "NORMAL", "", 7.0, "WEEK 6", 42.0, "TREATMENT", "2013-01-10T15:20", 42.0]
["CDISCPILOT01", "LB", "01-701-1115", 169.0, "MCH", "Ery. Mean Corpuscular Hemoglobin", "HEMATOLOGY", "32", "pg", "26", "34", "1.98592", 1.98592, "fmol", 1.6, 2.1, "NORMAL", "", 8.0, "WEEK 8", 56.0, "TREATMENT", "2013-01-23T12:13", 55.0]
["CDISCPILOT01", "LB", "01-701-1115", 23.0, "MCHC", "Ery. Mean Corpuscular HGB Concentration", "HEMATOLOGY", "33", "g/dL", "31", "38", "20.4798", 20.4798, "mmol/L", 19.0, 24.0, "NORMAL", "Y", 1.0, "SCREENING 1", -7.0, "SCREENING", "2012-11-23T11:20", -7.0]
["CDISCPILOT01", "LB", "01-701-1115", 60.0, "MCHC", "Ery. Mean Corpuscular HGB Concentration", "HEMATOLOGY", "33", "g/dL", "31", "38", "20.4798", 20.4798, "mmol/L", 19.0, 24.0, "NORMAL", "", 4.0, "WEEK 2", 14.0, "TREATMENT", "2012-12-13T14:05", 14.0]
["CDISCPILOT01", "LB", "01-701-1115", 93.0, "MCHC", "Ery. Mean Corpuscular HGB Concentration", "HEMATOLOGY", "33", "g/dL", "31", "38", "20.4798", 20.4798, "mmol/L", 19.0, 24.0, "NORMAL", "", 5.0, "WEEK 4", 28.0, "TREATMENT", "2012-12-26T08:44", 27.0]
["CDISCPILOT01", "LB", "01-701-1115", 138.0, "MCHC", "Ery. Mean Corpuscular HGB Concentration", "HEMATOLOGY", "33", "g/dL", "31", "38", "20.4798", 20.4798, "mmol/L", 19.0, 24.0, "NORMAL", "", 7.0, "WEEK 6", 42.0, "TREATMENT", "2013-01-10T15:20", 42.0]
["CDISCPILOT01", "LB", "01-701-1115", 170.0, "MCHC", "Ery. Mean Corpuscular HGB Concentration", "HEMATOLOGY", "34", "g/dL", "31", "38", "21.1004", 21.1004, "mmol/L", 19.0, 24.0, "NORMAL", "", 8.0, "WEEK 8", 56.0, "TREATMENT", "2013-01-23T12:13", 55.0]
["CDISCPILOT01", "LB", "01-701-1115", 24.0, "MCV", "Ery. Mean Corpuscular Volume", "HEMATOLOGY", "92", "fL", "80", "100", "92", 92.0, "fL", 80.0, 100.0, "NORMAL", "Y", 1.0, "SCREENING 1", -7.0, "SCREENING", "2012-11-23T11:20", -7.0]
["CDISCPILOT01", "LB", "01-701-1115", 61.0, "MCV", "Ery. Mean Corpuscular Volume", "HEMATOLOGY", "96", "fL", "80", "100", "96", 96.0, "fL", 80.0, 100.0, "NORMAL", "", 4.0, "WEEK 2", 14.0, "TREATMENT", "2012-12-13T14:05", 14.0]
["CDISCPILOT01", "LB", "01-701-1115", 94.0, "MCV", "Ery. Mean Corpuscular Volume", "HEMATOLOGY", "96", "fL", "80", "100", "96", 96.0, "fL", 80.0, 100.0, "NORMAL", "", 5.0, "WEEK 4", 28.0, "TREATMENT", "2012-12-26T08:44", 27.0]
["CDISCPILOT01", "LB", "01-701-1115", 139.0, "MCV", "Ery. Mean Corpuscular Volume", "HEMATOLOGY", "95", "fL", "80", "100", "95", 95.0, "fL", 80.0, 100.0, "NORMAL", "", 7.0, "WEEK 6", 42.0, "TREATMENT", "2013-01-10T15:20", 42.0]
["CDISCPILOT01", "LB", "01-701-1115", 171.0, "MCV", "Ery. Mean Corpuscular Volume", "HEMATOLOGY", "94", "fL", "80", "100", "94", 94.0, "fL", 80.0, 100.0, "NORMAL", "", 8.0, "WEEK 8", 56.0, "TREATMENT", "2013-01-23T12:13", 55.0]
["CDISCPILOT01", "LB", "01-701-1115", 25.0, "MONO", "Monocytes", "HEMATOLOGY", "0.38", "10^9/L", "0.12", "0.92", "0.38", 0.38, "10^9/L", 0.12, 0.9199999999999999, "NORMAL", "Y", 1.0, "SCREENING 1", -7.0, "SCREENING", "2012-11-23T11:20", -7.0]
["CDISCPILOT01", "LB", "01-701-1115", 62.0, "MONO", "Monocytes", "HEMATOLOGY", "0.36", "10^9/L", "0.12", "0.92", "0.36", 0.36, "10^9/L", 0.12, 0.9199999999999999, "NORMAL", "", 4.0, "WEEK 2", 14.0, "TREATMENT", "2012-12-13T14:05", 14.0]
["CDISCPILOT01", "LB", "01-701-1115", 95.0, "MONO", "Monocytes", "HEMATOLOGY", "0.56", "10^9/L", "0.12", "0.92", "0.56", 0.5599999999999999, "10^9/L", 0.12, 0.9199999999999999, "NORMAL", "", 5.0, "WEEK 4", 28.0, "TREATMENT", "2012-12-26T08:44", 27.0]
["CDISCPILOT01", "LB", "01-701-1115", 140.0, "MONO", "Monocytes", "HEMATOLOGY", "0.38", "10^9/L", "0.12", "0.92", "0.38", 0.38, "10^9/L", 0.12, 0.9199999999999999, "NORMAL", "", 7.0, "WEEK 6", 42.0, "TREATMENT", "2013-01-10T15:20", 42.0]
["CDISCPILOT01", "LB", "01-701-1115", 172.0, "MONO", "Monocytes", "HEMATOLOGY", "0.41", "10^9/L", "0.12", "0.92", "0.41", 0.41, "10^9/L", 0.12, 0.9199999999999999, "NORMAL", "", 8.0, "WEEK 8", 56.0, "TREATMENT", "2013-01-23T12:13", 55.0]
["CDISCPILOT01", "LB", "01-701-1115", 29.0, "PLAT", "Platelets", "HEMATOLOGY", "150", "10^9/L", "130", "394", "150", 150.0, "10^9/L", 130.0, 394.0, "NORMAL", "Y", 1.0, "SCREENING 1", -7.0, "SCREENING", "2012-11-23T11:20", -7.0]
["CDISCPILOT01", "LB", "01-701-1115", 66.0, "PLAT", "Platelets", "HEMATOLOGY", "190", "10^9/L", "130", "394", "190", 190.0, "10^9/L", 130.0, 394.0, "NORMAL", "", 4.0, "WEEK 2", 14.0, "TREATMENT", "2012-12-13T14:05", 14.0]
["CDISCPILOT01", "LB", "01-701-1115", 98.0, "PLAT", "Platelets", "HEMATOLOGY", "187", "10^9/L", "130", "394", "187", 187.0, "10^9/L", 130.0, 394.0, "NORMAL", "", 5.0, "WEEK 4", 28.0, "TREATMENT", "2012-12-26T08:44", 27.0]
["CDISCPILOT01", "LB", "01-701-1115", 143.0, "PLAT", "Platelets", "HEMATOLOGY", "181", "10^9/L", "130", "394", "181", 181.0, "10^9/L", 130.0, 394.0, "NORMAL", "", 7.0, "WEEK 6", 42.0, "TREATMENT", "2013-01-10T15:20", 42.0]
["CDISCPILOT01", "LB", "01-701-1115", 176.0, "PLAT", "Platelets", "HEMATOLOGY", "174", "10^9/L", "130", "394", "174", 174.0, "10^9/L", 130.0, 394.0, "NORMAL", "", 8.0, "WEEK 8", 56.0, "TREATMENT", "2013-01-23T12:13", 55.0]
["CDISCPILOT01", "LB", "01-701-1115", 31.0, "RBC", "Erythrocytes", "HEMATOLOGY", "5.00", "10^12/L", "4", "5.8", "5", 5.0, "10^12/L", 4.0, 5.8, "NORMAL", "Y", 1.0, "SCREENING 1", -7.0, "SCREENING", "2012-11-23T11:20", -7.0]
["CDISCPILOT01", "LB", "01-701-1115", 68.0, "RBC", "Erythrocytes", "HEMATOLOGY", "4.70", "10^12/L", "4", "5.8", "4.7", 4.699999999999999, "10^12/L", 4.0, 5.8, "NORMAL", "", 4.0, "WEEK 2", 14.0, "TREATMENT", "2012-12-13T14:05", 14.0]
["CDISCPILOT01", "LB", "01-701-1115", 100.0, "RBC", "Erythrocytes", "HEMATOLOGY", "4.70", "10^12/L", "4", "5.8", "4.7", 4.699999999999999, "10^12/L", 4.0, 5.8, "NORMAL", "", 5.0, "WEEK 4", 28.0, "TREATMENT", "2012-12-26T08:44", 27.0]
["CDISCPILOT01", "LB", "01-701-1115", 145.0, "RBC", "Erythrocytes", "HEMATOLOGY", "4.70", "10^12/L", "4", "5.8", "4.7", 4.699999999999999, "10^12/L", 4.0, 5.8, "NORMAL", "", 7.0, "WEEK 6", 42.0, "TREATMENT", "2013-01-10T15:20", 42.0]
["CDISCPILOT01", "LB", "01-701-1115", 178.0, "RBC", "Erythrocytes", "HEMATOLOGY", "4.80", "10^12/L", "4", "5.8", "4.8", 4.8, "10^12/L", 4.0, 5.8, "NORMAL", "", 8.0, "WEEK 8", 56.0, "TREATMENT", "2013-01-23T12:13", 55.0]
["CDISCPILOT01", "LB", "01-701-1115", 37.0, "WBC", "Leukocytes", "HEMATOLOGY", "4.99", "10^9/L", "3.8", "10.7", "4.99", 4.989999999999999, "10^9/L", 3.8, 10.7, "NORMAL", "Y", 1.0, "SCREENING 1", -7.0, "SCREENING", "2012-11-23T11:20", -7.0]
["CDISCPILOT01", "LB", "01-701-1115", 72.0, "WBC", "Leukocytes", "HEMATOLOGY", "4.44", "10^9/L", "3.8", "10.7", "4.44", 4.4399999999999995, "10^9/L", 3.8, 10.7, "NORMAL", "", 4.0, "WEEK 2", 14.0, "TREATMENT", "2012-12-13T14:05", 14.0]
["CDISCPILOT01", "LB", "01-701-1115", 102.0, "WBC", "Leukocytes", "HEMATOLOGY", "5.40", "10^9/L", "3.8", "10.7", "5.4", 5.3999999999999995, "10^9/L", 3.8, 10.7, "NORMAL", "", 5.0, "WEEK 4", 28.0, "TREATMENT", "2012-12-26T08:44", 27.0]
["CDISCPILOT01", "LB", "01-701-1115", 147.0, "WBC", "Leukocytes", "HEMATOLOGY", "4.52", "10^9/L", "3.8", "10.7", "4.52", 4.52, "10^9/L", 3.8, 10.7, "NORMAL", "", 7.0, "WEEK 6", 42.0, "TREATMENT", "2013-01-10T15:20", 42.0]
["CDISCPILOT01", "LB", "01-701-1115", 182.0, "WBC", "Leukocytes", "HEMATOLOGY", "4.98", "10^9/L", "3.8", "10.7", "4.98", 4.9799999999999995, "10^9/L", 3.8, 10.7, "NORMAL", "", 8.0, "WEEK 8", 56.0, "TREATMENT", "2013-01-23T12:13", 55.0]
["CDISCPILOT01", "LB", "01-701-1118", 5.0, "BASO", "Basophils", "HEMATOLOGY", "0.04", "10^9/L", "0", "0.2", "0.04", 0.039999999999999994, "10^9/L", 0.0, 0.19999999999999998, "NORMAL", "Y", 1.0, "SCREENING 1", -7.0, "SCREENING", "2014-02-27T10:32", -13.0]
["CDISCPILOT01", "LB", "01-701-1118", 42.0, "BASO", "Basophils", "HEMATOLOGY", "0.02", "10^9/L", "0", "0.2", "0.02", 0.02, "10^9/L", 0.0, 0.19999999999999998, "NORMAL", "", 4.0, "WEEK 2", 14.0, "TREATMENT", "2014-03-26T10:50", 15.0]
["CDISCPILOT01", "LB", "01-701-1118", 77.0, "BASO", "Basophils", "HEMATOLOGY", "0.04", "10^9/L", "0", "0.2", "0.04", 0.039999999999999994, "10^9/L", 0.0, 0.19999999999999998, "NORMAL", "", 5.0, "WEEK 4", 28.0, "TREATMENT", "2014-04-09T11:01", 29.0]
["CDISCPILOT01", "LB", "01-701-1118", 107.0, "BASO", "Basophils", "HEMATOLOGY", "0.03", "10^9/L", "0", "0.2", "0.03", 0.03, "10^9/L", 0.0, 0.19999999999999998, "NORMAL", "", 7.0, "WEEK 6", 42.0, "TREATMENT", "2014-04-23T15:22", 43.0]
["CDISCPILOT01", "LB", "01-701-1118", 137.0, "BASO", "Basophils", "HEMATOLOGY", "0.05", "10^9/L", "0", "0.2", "0.05", 0.049999999999999996, "10^9/L", 0.0, 0.19999999999999998, "NORMAL", "", 8.0, "WEEK 8", 56.0, "TREATMENT", "2014-05-08T09:30", 58.0]
["CDISCPILOT01", "LB", "01-701-1118", 167.0, "BASO", "Basophils", "HEMATOLOGY", "0.04", "10^9/L", "0", "0.2", "0.04", 0.039999999999999994, "10^9/L", 0.0, 0.19999999999999998, "NORMAL", "", 9.0, "WEEK 12", 84.0, "TREATMENT", "2014-06-05T08:14", 86.0]
["CDISCPILOT01", "LB", "01-701-1118", 202.0, "BASO", "Basophils", "HEMATOLOGY", "0.03", "10^9/L", "0", "0.2", "0.03", 0.03, "10^9/L", 0.0, 0.19999999999999998, "NORMAL", "", 10.0, "WEEK 16", 112.0, "TREATMENT", "2014-07-02T10:12", 113.0]
["CDISCPILOT01", "LB", "01-701-1118", 232.0, "BASO", "Basophils", "HEMATOLOGY", "0.04", "10^9/L", "0", "0.2", "0.04", 0.039999999999999994, "10^9/L", 0.0, 0.19999999999999998, "NORMAL", "", 11.0, "WEEK 20", 140.0, "TREATMENT", "2014-07-30T13:50", 141.0]
["CDISCPILOT01", "LB", "01-701-1118", 262.0, "BASO", "Basophils", "HEMATOLOGY", "0.11", "10^9/L", "0", "0.2", "0.11", 0.11, "10^9/L", 0.0, 0.19999999999999998, "NORMAL", "", 12.0, "WEEK 24", 168.0, "TREATMENT", "2014-08-27T11:27", 169.0]
["CDISCPILOT01", "LB", "01-701-1118", 297.0, "BASO", "Basophils", "HEMATOLOGY", "0.04", "10^9/L", "0", "0.2", "0.04", 0.039999999999999994, "10^9/L", 0.0, 0.19999999999999998, "NORMAL", "", 13.0, "WEEK 26", 182.0, "TREATMENT", "2014-09-09T13:28", 182.0]
["CDISCPILOT01", "LB", "01-701-1118", 14.0, "EOS", "Eosinophils", "HEMATOLOGY", "0.32", "10^9/L", "0", "0.57", "0.32", 0.32, "10^9/L", 0.0, 0.57, "NORMAL", "Y", 1.0, "SCREENING 1", -7.0, "SCREENING", "2014-02-27T10:32", -13.0]
["CDISCPILOT01", "LB", "01-701-1118", 51.0, "EOS", "Eosinophils", "HEMATOLOGY", "0.09", "10^9/L", "0", "0.57", "0.09", 0.09, "10^9/L", 0.0, 0.57, "NORMAL", "", 4.0, "WEEK 2", 14.0, "TREATMENT", "2014-03-26T10:50", 15.0]
["CDISCPILOT01", "LB", "01-701-1118", 85.0, "EOS", "Eosinophils", "HEMATOLOGY", "0.08", "10^9/L", "0", "0.57", "0.08", 0.08, "10^9/L", 0.0, 0.57, "NORMAL", "", 5.0, "WEEK 4", 28.0, "TREATMENT", "2014-04-09T11:01", 29.0]
["CDISCPILOT01", "LB", "01-701-1118", 115.0, "EOS", "Eosinophils", "HEMATOLOGY", "0.17", "10^9/L", "0", "0.57", "0.17", 0.16999999999999998, "10^9/L", 0.0, 0.57, "NORMAL", "", 7.0, "WEEK 6", 42.0, "TREATMENT", "2014-04-23T15:22", 43.0]
["CDISCPILOT01", "LB", "01-701-1118", 145.0, "EOS", "Eosinophils", "HEMATOLOGY", "0.17", "10^9/L", "0", "0.57", "0.17", 0.16999999999999998, "10^9/L", 0.0, 0.57, "NORMAL", "", 8.0, "WEEK 8", 56.0, "TREATMENT", "2014-05-08T09:30", 58.0]
["CDISCPILOT01", "LB", "01-701-1118", 176.0, "EOS", "Eosinophils", "HEMATOLOGY", "0.13", "10^9/L", "0", "0.57", "0.13", 0.13, "10^9/L", 0.0, 0.57, "NORMAL", "", 9.0, "WEEK 12", 84.0, "TREATMENT", "2014-06-05T08:14", 86.0]
["CDISCPILOT01", "LB", "01-701-1118", 210.0, "EOS", "Eosinophils", "HEMATOLOGY", "0.16", "10^9/L", "0", "0.57", "0.16", 0.16, "10^9/L", 0.0, 0.57, "NORMAL", "", 10.0, "WEEK 16", 112.0, "TREATMENT", "2014-07-02T10:12", 113.0]
["CDISCPILOT01", "LB", "01-701-1118", 240.0, "EOS", "Eosinophils", "HEMATOLOGY", "0.08", "10^9/L", "0", "0.57", "0.08", 0.08, "10^9/L", 0.0, 0.57, "NORMAL", "", 11.0, "WEEK 20", 140.0, "TREATMENT", "2014-07-30T13:50", 141.0]
["CDISCPILOT01", "LB", "01-701-1118", 271.0, "EOS", "Eosinophils", "HEMATOLOGY", "0.09", "10^9/L", "0", "0.57", "0.09", 0.09, "10^9/L", 0.0, 0.57, "NORMAL", "", 12.0, "WEEK 24", 168.0, "TREATMENT", "2014-08-27T11:27", 169.0]
["CDISCPILOT01", "LB", "01-701-1118", 305.0, "EOS", "Eosinophils", "HEMATOLOGY", "0.11", "10^9/L", "0", "0.57", "0.11", 0.11, "10^9/L", 0.0, 0.57, "NORMAL", "", 13.0, "WEEK 26", 182.0, "TREATMENT", "2014-09-09T13:28", 182.0]
["CDISCPILOT01", "LB", "01-701-1118", 17.0, "HCT", "Hematocrit", "HEMATOLOGY", "45.0", "%", "39", "54", "0.45", 0.44999999999999996, "", 0.38999999999999996, 0.5399999999999999, "NORMAL", "Y", 1.0, "SCREENING 1", -7.0, "SCREENING", "2014-02-27T10:32", -13.0]
["CDISCPILOT01", "LB", "01-701-1118", 54.0, "HCT", "Hematocrit", "HEMATOLOGY", "45.0", "%", "39", "54", "0.45", 0.44999999999999996, "", 0.38999999999999996, 0.5399999999999999, "NORMAL", "", 4.0, "WEEK 2", 14.0, "TREATMENT", "2014-03-26T10:50", 15.0]
["CDISCPILOT01", "LB", "01-701-1118", 88.0, "HCT", "Hematocrit", "HEMATOLOGY", "44.0", "%", "39", "54", "0.44", 0.44, "", 0.38999999999999996, 0.5399999999999999, "NORMAL", "", 5.0, "WEEK 4", 28.0, "TREATMENT", "2014-04-09T11:01", 29.0]
["CDISCPILOT01", "LB", "01-701-1118", 118.0, "HCT", "Hematocrit", "HEMATOLOGY", "42.0", "%", "39", "54", "0.42", 0.42, "", 0.38999999999999996, 0.5399999999999999, "NORMAL", "", 7.0, "WEEK 6", 42.0, "TREATMENT", "2014-04-23T15:22", 43.0]
["CDISCPILOT01", "LB", "01-701-1118", 148.0, "HCT", "Hematocrit", "HEMATOLOGY", "45.0", "%", "39", "54", "0.45", 0.44999999999999996, "", 0.38999999999999996, 0.5399999999999999, "NORMAL", "", 8.0, "WEEK 8", 56.0, "TREATMENT", "2014-05-08T09:30", 58.0]
["CDISCPILOT01", "LB", "01-701-1118", 179.0, "HCT", "Hematocrit", "HEMATOLOGY", "47.0", "%", "39", "54", "0.47", 0.47, "", 0.38999999999999996, 0.5399999999999999, "NORMAL", "", 9.0, "WEEK 12", 84.0, "TREATMENT", "2014-06-05T08:14", 86.0]
["CDISCPILOT01", "LB", "01-701-1118", 213.0, "HCT", "Hematocrit", "HEMATOLOGY", "44.0", "%", "39", "54", "0.44", 0.44, "", 0.38999999999999996, 0.5399999999999999, "NORMAL", "", 10.0, "WEEK 16", 112.0, "TREATMENT", "2014-07-02T10:12", 113.0]
["CDISCPILOT01", "LB", "01-701-1118", 243.0, "HCT", "Hematocrit", "HEMATOLOGY", "45.0", "%", "39", "54", "0.45", 0.44999999999999996, "", 0.38999999999999996, 0.5399999999999999, "NORMAL", "", 11.0, "WEEK 20", 140.0, "TREATMENT", "2014-07-30T13:50", 141.0]
["CDISCPILOT01", "LB", "01-701-1118", 274.0, "HCT", "Hematocrit", "HEMATOLOGY", "48.0", "%", "39", "54", "0.48", 0.48, "", 0.38999999999999996, 0.5399999999999999, "NORMAL", "", 12.0, "WEEK 24", 168.0, "TREATMENT", "2014-08-27T11:27", 169.0]
["CDISCPILOT01", "LB", "01-701-1118", 308.0, "HCT", "Hematocrit", "HEMATOLOGY", "42.0", "%", "39", "54", "0.42", 0.42, "", 0.38999999999999996, 0.5399999999999999, "NORMAL", "", 13.0, "WEEK 26", 182.0, "TREATMENT", "2014-09-09T13:28", 182.0]
["CDISCPILOT01", "LB", "01-701-1118", 18.0, "HGB", "Hemoglobin", "HEMATOLOGY", "15.6", "g/dL", "12.7", "18.1", "9.68136", 9.68136, "mmol/L", 7.88, 11.229999999999999, "NORMAL", "Y", 1.0, "SCREENING 1", -7.0, "SCREENING", "2014-02-27T10:32", -13.0]
["CDISCPILOT01", "LB", "01-701-1118", 55.0, "HGB", "Hemoglobin", "HEMATOLOGY", "15.5", "g/dL", "12.7", "18.1", "9.6193", 9.619299999999999, "mmol/L", 7.88, 11.229999999999999, "NORMAL", "", 4.0, "WEEK 2", 14.0, "TREATMENT", "2014-03-26T10:50", 15.0]
["CDISCPILOT01", "LB", "01-701-1118", 89.0, "HGB", "Hemoglobin", "HEMATOLOGY", "15.6", "g/dL", "12.7", "18.1", "9.68136", 9.68136, "mmol/L", 7.88, 11.229999999999999, "NORMAL", "", 5.0, "WEEK 4", 28.0, "TREATMENT", "2014-04-09T11:01", 29.0]
["CDISCPILOT01", "LB", "01-701-1118", 119.0, "HGB", "Hemoglobin", "HEMATOLOGY", "15.5", "g/dL", "12.7", "18.1", "9.6193", 9.619299999999999, "mmol/L", 7.88, 11.229999999999999, "NORMAL", "", 7.0, "WEEK 6", 42.0, "TREATMENT", "2014-04-23T15:22", 43.0]
["CDISCPILOT01", "LB", "01-701-1118", 149.0, "HGB", "Hemoglobin", "HEMATOLOGY", "15.7", "g/dL", "12.7", "18.1", "9.74342", 9.743419999999999, "mmol/L", 7.88, 11.229999999999999, "NORMAL", "", 8.0, "WEEK 8", 56.0, "TREATMENT", "2014-05-08T09:30", 58.0]
["CDISCPILOT01", "LB", "01-701-1118", 180.0, "HGB", "Hemoglobin", "HEMATOLOGY", "15.7", "g/dL", "12.7", "18.1", "9.74342", 9.743419999999999, "mmol/L", 7.88, 11.229999999999999, "NORMAL", "", 9.0, "WEEK 12", 84.0, "TREATMENT", "2014-06-05T08:14", 86.0]
["CDISCPILOT01", "LB", "01-701-1118", 214.0, "HGB", "Hemoglobin", "HEMATOLOGY", "15.6", "g/dL", "12.7", "18.1", "9.68136", 9.68136, "mmol/L", 7.88, 11.229999999999999, "NORMAL", "", 10.0, "WEEK 16", 112.0, "TREATMENT", "2014-07-02T10:12", 113.0]
["CDISCPILOT01", "LB", "01-701-1118", 244.0, "HGB", "Hemoglobin", "HEMATOLOGY", "15.7", "g/dL", "12.7", "18.1", "9.74342", 9.743419999999999, "mmol/L", 7.88, 11.229999999999999, "NORMAL", "", 11.0, "WEEK 20", 140.0, "TREATMENT", "2014-07-30T13:50", 141.0]
["CDISCPILOT01", "LB", "01-701-1118", 275.0, "HGB", "Hemoglobin", "HEMATOLOGY", "15.3", "g/dL", "12.7", "18.1", "9.49518", 9.49518, "mmol/L", 7.88, 11.229999999999999, "NORMAL", "", 12.0, "WEEK 24", 168.0, "TREATMENT", "2014-08-27T11:27", 169.0]
["CDISCPILOT01", "LB", "01-701-1118", 309.0, "HGB", "Hemoglobin", "HEMATOLOGY", "14.9", "g/dL", "12.7", "18.1", "9.24694", 9.246939999999999, "mmol/L", 7.88, 11.229999999999999, "NORMAL", "", 13.0, "WEEK 26", 182.0, "TREATMENT", "2014-09-09T13:28", 182.0]
["CDISCPILOT01", "LB", "01-701-1118", 21.0, "LYM", "Lymphocytes", "HEMATOLOGY", "1.94", "10^9/L", "0.91", "4.28", "1.94", 1.94, "10^9/L", 0.9099999999999999, 4.279999999999999, "NORMAL", "Y", 1.0, "SCREENING 1", -7.0, "SCREENING", "2014-02-27T10:32", -13.0]
["CDISCPILOT01", "LB", "01-701-1118", 58.0, "LYM", "Lymphocytes", "HEMATOLOGY", "1.40", "10^9/L", "0.91", "4.28", "1.4", 1.4, "10^9/L", 0.9099999999999999, 4.279999999999999, "NORMAL", "", 4.0, "WEEK 2", 14.0, "TREATMENT", "2014-03-26T10:50", 15.0]
["CDISCPILOT01", "LB", "01-701-1118", 91.0, "LYM", "Lymphocytes", "HEMATOLOGY", "1.72", "10^9/L", "0.91", "4.28", "1.72", 1.72, "10^9/L", 0.9099999999999999, 4.279999999999999, "NORMAL", "", 5.0, "WEEK 4", 28.0, "TREATMENT", "2014-04-09T11:01", 29.0]
["CDISCPILOT01", "LB", "01-701-1118", 121.0, "LYM", "Lymphocytes", "HEMATOLOGY", "2.05", "10^9/L", "0.91", "4.28", "2.05", 2.05, "10^9/L", 0.9099999999999999, 4.279999999999999, "NORMAL", "", 7.0, "WEEK 6", 42.0, "TREATMENT", "2014-04-23T15:22", 43.0]
["CDISCPILOT01", "LB", "01-701-1118", 151.0, "LYM", "Lymphocytes", "HEMATOLOGY", "2.80", "10^9/L", "0.91", "4.28", "2.8", 2.8, "10^9/L", 0.9099999999999999, 4.279999999999999, "NORMAL", "", 8.0, "WEEK 8", 56.0, "TREATMENT", "2014-05-08T09:30", 58.0]
["CDISCPILOT01", "LB", "01-701-1118", 183.0, "LYM", "Lymphocytes", "HEMATOLOGY", "1.62", "10^9/L", "0.91", "4.28", "1.62", 1.62, "10^9/L", 0.9099999999999999, 4.279999999999999, "NORMAL", "", 9.0, "WEEK 12", 84.0, "TREATMENT", "2014-06-05T08:14", 86.0]
["CDISCPILOT01", "LB", "01-701-1118", 216.0, "LYM", "Lymphocytes", "HEMATOLOGY", "1.67", "10^9/L", "0.91", "4.28", "1.67", 1.67, "10^9/L", 0.9099999999999999, 4.279999999999999, "NORMAL", "", 10.0, "WEEK 16", 112.0, "TREATMENT", "2014-07-02T10:12", 113.0]
["CDISCPILOT01", "LB", "01-701-1118", 246.0, "LYM", "Lymphocytes", "HEMATOLOGY", "1.65", "10^9/L", "0.91", "4.28", "1.65", 1.65, "10^9/L", 0.9099999999999999, 4.279999999999999, "NORMAL", "", 11.0, "WEEK 20", 140.0, "TREATMENT", "2014-07-30T13:50", 141.0]
["CDISCPILOT01", "LB", "01-701-1118", 278.0, "LYM", "Lymphocytes", "HEMATOLOGY", "1.57", "10^9/L", "0.91", "4.28", "1.57", 1.57, "10^9/L", 0.9099999999999999, 4.279999999999999, "NORMAL", "", 12.0, "WEEK 24", 168.0, "TREATMENT", "2014-08-27T11:27", 169.0]
["CDISCPILOT01", "LB", "01-701-1118", 311.0, "LYM", "Lymphocytes", "HEMATOLOGY", "1.72", "10^9/L", "0.91", "4.28", "1.72", 1.72, "10^9/L", 0.9099999999999999, 4.279999999999999, "NORMAL", "", 13.0, "WEEK 26", 182.0, "TREATMENT", "2014-09-09T13:28", 182.0]
["CDISCPILOT01", "LB", "01-701-1118", 22.0, "MCH", "Ery. Mean Corpuscular Hemoglobin", "HEMATOLOGY", "32", "pg", "26", "34", "1.98592", 1.98592, "fmol", 1.6, 2.1, "NORMAL", "Y", 1.0, "SCREENING 1", -7.0, "SCREENING", "2014-02-27T10:32", -13.0]
["CDISCPILOT01", "LB", "01-701-1118", 59.0, "MCH", "Ery. Mean Corpuscular Hemoglobin", "HEMATOLOGY", "31", "pg", "26", "34", "1.92386", 1.92386, "fmol", 1.6, 2.1, "NORMAL", "", 4.0, "WEEK 2", 14.0, "TREATMENT", "2014-03-26T10:50", 15.0]
["CDISCPILOT01", "LB", "01-701-1118", 92.0, "MCH", "Ery. Mean Corpuscular Hemoglobin", "HEMATOLOGY", "31", "pg", "26", "34", "1.92386", 1.92386, "fmol", 1.6, 2.1, "NORMAL", "", 5.0, "WEEK 4", 28.0, "TREATMENT", "2014-04-09T11:01", 29.0]
["CDISCPILOT01", "LB", "01-701-1118", 122.0, "MCH", "Ery. Mean Corpuscular Hemoglobin", "HEMATOLOGY", "33", "pg", "26", "34", "2.04798", 2.04798, "fmol", 1.6, 2.1, "NORMAL", "", 7.0, "WEEK 6", 42.0, "TREATMENT", "2014-04-23T15:22", 43.0]
["CDISCPILOT01", "LB", "01-701-1118", 152.0, "MCH", "Ery. Mean Corpuscular Hemoglobin", "HEMATOLOGY", "32", "pg", "26", "34", "1.98592", 1.98592, "fmol", 1.6, 2.1, "NORMAL", "", 8.0, "WEEK 8", 56.0, "TREATMENT", "2014-05-08T09:30", 58.0]
["CDISCPILOT01", "LB", "01-701-1118", 184.0, "MCH", "Ery. Mean Corpuscular Hemoglobin", "HEMATOLOGY", "31", "pg", "26", "34", "1.92386", 1.92386, "fmol", 1.6, 2.1, "NORMAL", "", 9.0, "WEEK 12", 84.0, "TREATMENT", "2014-06-05T08:14", 86.0]
["CDISCPILOT01", "LB", "01-701-1118", 217.0, "MCH", "Ery. Mean Corpuscular Hemoglobin", "HEMATOLOGY", "31", "pg", "26", "34", "1.92386", 1.92386, "fmol", 1.6, 2.1, "NORMAL", "", 10.0, "WEEK 16", 112.0, "TREATMENT", "2014-07-02T10:12", 113.0]
["CDISCPILOT01", "LB", "01-701-1118", 247.0, "MCH", "Ery. Mean Corpuscular Hemoglobin", "HEMATOLOGY", "31", "pg", "26", "34", "1.92386", 1.92386, "fmol", 1.6, 2.1, "NORMAL", "", 11.0, "WEEK 20", 140.0, "TREATMENT", "2014-07-30T13:50", 141.0]
["CDISCPILOT01", "LB", "01-701-1118", 279.0, "MCH", "Ery. Mean Corpuscular Hemoglobin", "HEMATOLOGY", "31", "pg", "26", "34", "1.92386", 1.92386, "fmol", 1.6, 2.1, "NORMAL", "", 12.0, "WEEK 24", 168.0, "TREATMENT", "2014-08-27T11:27", 169.0]
["CDISCPILOT01", "LB", "01-701-1118", 312.0, "MCH", "Ery. Mean Corpuscular Hemoglobin", "HEMATOLOGY", "32", "pg", "26", "34", "1.98592", 1.98592, "fmol", 1.6, 2.1, "NORMAL", "", 13.0, "WEEK 26", 182.0, "TREATMENT", "2014-09-09T13:28", 182.0]
["CDISCPILOT01", "LB", "01-701-1118", 23.0, "MCHC", "Ery. Mean Corpuscular HGB Concentration", "HEMATOLOGY", "35", "g/dL", "31", "38", "21.721", 21.721, "mmol/L", 19.0, 24.0, "NORMAL", "Y", 1.0, "SCREENING 1", -7.0, "SCREENING", "2014-02-27T10:32", -13.0]
["CDISCPILOT01", "LB", "01-701-1118", 60.0, "MCHC", "Ery. Mean Corpuscular HGB Concentration", "HEMATOLOGY", "35", "g/dL", "31", "38", "21.721", 21.721, "mmol/L", 19.0, 24.0, "NORMAL", "", 4.0, "WEEK 2", 14.0, "TREATMENT", "2014-03-26T10:50", 15.0]
["CDISCPILOT01", "LB", "01-701-1118", 93.0, "MCHC", "Ery. Mean Corpuscular HGB Concentration", "HEMATOLOGY", "35", "g/dL", "31", "38", "21.721", 21.721, "mmol/L", 19.0, 24.0, "NORMAL", "", 5.0, "WEEK 4", 28.0, "TREATMENT", "2014-04-09T11:01", 29.0]
["CDISCPILOT01", "LB", "01-701-1118", 123.0, "MCHC", "Ery. Mean Corpuscular HGB Concentration", "HEMATOLOGY", "37", "g/dL", "31", "38", "22.9622", 22.9622, "mmol/L", 19.0, 24.0, "NORMAL", "", 7.0, "WEEK 6", 42.0, "TREATMENT", "2014-04-23T15:22", 43.0]
["CDISCPILOT01", "LB", "01-701-1118", 153.0, "MCHC", "Ery. Mean Corpuscular HGB Concentration", "HEMATOLOGY", "35", "g/dL", "31", "38", "21.721", 21.721, "mmol/L", 19.0, 24.0, "NORMAL", "", 8.0, "WEEK 8", 56.0, "TREATMENT", "2014-05-08T09:30", 58.0]
["CDISCPILOT01", "LB", "01-701-1118", 185.0, "MCHC", "Ery. Mean Corpuscular HGB Concentration", "HEMATOLOGY", "33", "g/dL", "31", "38", "20.4798", 20.4798, "mmol/L", 19.0, 24.0, "NORMAL", "", 9.0, "WEEK 12", 84.0, "TREATMENT", "2014-06-05T08:14", 86.0]
["CDISCPILOT01", "LB", "01-701-1118", 218.0, "MCHC", "Ery. Mean Corpuscular HGB Concentration", "HEMATOLOGY", "35", "g/dL", "31", "38", "21.721", 21.721, "mmol/L", 19.0, 24.0, "NORMAL", "", 10.0, "WEEK 16", 112.0, "TREATMENT", "2014-07-02T10:12", 113.0]
["CDISCPILOT01", "LB", "01-701-1118", 248.0, "MCHC", "Ery. Mean Corpuscular HGB Concentration", "HEMATOLOGY", "35", "g/dL", "31", "38", "21.721", 21.721, "mmol/L", 19.0, 24.0, "NORMAL", "", 11.0, "WEEK 20", 140.0, "TREATMENT", "2014-07-30T13:50", 141.0]
["CDISCPILOT01", "LB", "01-701-1118", 280.0, "MCHC", "Ery. Mean Corpuscular HGB Concentration", "HEMATOLOGY", "32", "g/dL", "31", "38", "19.8592", 19.8592, "mmol/L", 19.0, 24.0, "NORMAL", "", 12.0, "WEEK 24", 168.0, "TREATMENT", "2014-08-27T11:27", 169.0]
["CDISCPILOT01", "LB", "01-701-1118", 313.0, "MCHC", "Ery. Mean Corpuscular HGB Concentration", "HEMATOLOGY", "36", "g/dL", "31", "38", "22.3416", 22.3416, "mmol/L", 19.0, 24.0, "NORMAL", "", 13.0, "WEEK 26", 182.0, "TREATMENT", "2014-09-09T13:28", 182.0]
["CDISCPILOT01", "LB", "01-701-1118", 24.0, "MCV", "Ery. Mean Corpuscular Volume", "HEMATOLOGY", "92", "fL", "79", "96", "92", 92.0, "fL", 79.0, 96.0, "NORMAL", "Y", 1.0, "SCREENING 1", -7.0, "SCREENING", "2014-02-27T10:32", -13.0]
["CDISCPILOT01", "LB", "01-701-1118", 61.0, "MCV", "Ery. Mean Corpuscular Volume", "HEMATOLOGY", "88", "fL", "79", "96", "88", 88.0, "fL", 79.0, 96.0, "NORMAL", "", 4.0, "WEEK 2", 14.0, "TREATMENT", "2014-03-26T10:50", 15.0]
["CDISCPILOT01", "LB", "01-701-1118", 94.0, "MCV", "Ery. Mean Corpuscular Volume", "HEMATOLOGY", "88", "fL", "79", "96", "88", 88.0, "fL", 79.0, 96.0, "NORMAL", "", 5.0, "WEEK 4", 28.0, "TREATMENT", "2014-04-09T11:01", 29.0]
["CDISCPILOT01", "LB", "01-701-1118", 124.0, "MCV", "Ery. Mean Corpuscular Volume", "HEMATOLOGY", "90", "fL", "79", "96", "90", 90.0, "fL", 79.0, 96.0, "NORMAL", "", 7.0, "WEEK 6", 42.0, "TREATMENT", "2014-04-23T15:22", 43.0]
["CDISCPILOT01", "LB", "01-701-1118", 154.0, "MCV", "Ery. Mean Corpuscular Volume", "HEMATOLOGY", "91", "fL", "79", "96", "91", 91.0, "fL", 79.0, 96.0, "NORMAL", "", 8.0, "WEEK 8", 56.0, "TREATMENT", "2014-05-08T09:30", 58.0]
["CDISCPILOT01", "LB", "01-701-1118", 186.0, "MCV", "Ery. Mean Corpuscular Volume", "HEMATOLOGY", "92", "fL", "79", "96", "92", 92.0, "fL", 79.0, 96.0, "NORMAL", "", 9.0, "WEEK 12", 84.0, "TREATMENT", "2014-06-05T08:14", 86.0]
["CDISCPILOT01", "LB", "01-701-1118", 219.0, "MCV", "Ery. Mean Corpuscular Volume", "HEMATOLOGY", "88", "fL", "79", "96", "88", 88.0, "fL", 79.0, 96.0, "NORMAL", "", 10.0, "WEEK 16", 112.0, "TREATMENT", "2014-07-02T10:12", 113.0]
["CDISCPILOT01", "LB", "01-701-1118", 249.0, "MCV", "Ery. Mean Corpuscular Volume", "HEMATOLOGY", "88", "fL", "79", "96", "88", 88.0, "fL", 79.0, 96.0, "NORMAL", "", 11.0, "WEEK 20", 140.0, "TREATMENT", "2014-07-30T13:50", 141.0]
["CDISCPILOT01", "LB", "01-701-1118", 281.0, "MCV", "Ery. Mean Corpuscular Volume", "HEMATOLOGY", "96", "fL", "79", "96", "96", 96.0, "fL", 79.0, 96.0, "NORMAL", "", 12.0, "WEEK 24", 168.0, "TREATMENT", "2014-08-27T11:27", 169.0]
["CDISCPILOT01", "LB", "01-701-1118", 314.0, "MCV", "Ery. Mean Corpuscular Volume", "HEMATOLOGY", "89", "fL", "79", "96", "89", 89.0, "fL", 79.0, 96.0, "NORMAL", "", 13.0, "WEEK 26", 182.0, "TREATMENT", "2014-09-09T13:28", 182.0]
["CDISCPILOT01", "LB", "01-701-1118", 25.0, "MONO", "Monocytes", "HEMATOLOGY", "0.73", "10^9/L", "0.12", "0.92", "0.73", 0.73, "10^9/L", 0.12, 0.9199999999999999, "NORMAL", "Y", 1.0, "SCREENING 1", -7.0, "SCREENING", "2014-02-27T10:32", -13.0]
["CDISCPILOT01", "LB", "01-701-1118", 62.0, "MONO", "Monocytes", "HEMATOLOGY", "0.39", "10^9/L", "0.12", "0.92", "0.39", 0.38999999999999996, "10^9/L", 0.12, 0.9199999999999999, "NORMAL", "", 4.0, "WEEK 2", 14.0, "TREATMENT", "2014-03-26T10:50", 15.0]
["CDISCPILOT01", "LB", "01-701-1118", 95.0, "MONO", "Monocytes", "HEMATOLOGY", "0.54", "10^9/L", "0.12", "0.92", "0.54", 0.5399999999999999, "10^9/L", 0.12, 0.9199999999999999, "NORMAL", "", 5.0, "WEEK 4", 28.0, "TREATMENT", "2014-04-09T11:01", 29.0]
["CDISCPILOT01", "LB", "01-701-1118", 125.0, "MONO", "Monocytes", "HEMATOLOGY", "0.42", "10^9/L", "0.12", "0.92", "0.42", 0.42, "10^9/L", 0.12, 0.9199999999999999, "NORMAL", "", 7.0, "WEEK 6", 42.0, "TREATMENT", "2014-04-23T15:22", 43.0]
["CDISCPILOT01", "LB", "01-701-1118", 155.0, "MONO", "Monocytes", "HEMATOLOGY", "0.88", "10^9/L", "0.12", "0.92", "0.88", 0.88, "10^9/L", 0.12, 0.9199999999999999, "NORMAL", "", 8.0, "WEEK 8", 56.0, "TREATMENT", "2014-05-08T09:30", 58.0]
["CDISCPILOT01", "LB", "01-701-1118", 187.0, "MONO", "Monocytes", "HEMATOLOGY", "0.45", "10^9/L", "0.12", "0.92", "0.45", 0.44999999999999996, "10^9/L", 0.12, 0.9199999999999999, "NORMAL", "", 9.0, "WEEK 12", 84.0, "TREATMENT", "2014-06-05T08:14", 86.0]
["CDISCPILOT01", "LB", "01-701-1118", 220.0, "MONO", "Monocytes", "HEMATOLOGY", "0.52", "10^9/L", "0.12", "0.92", "0.52", 0.5199999999999999, "10^9/L", 0.12, 0.9199999999999999, "NORMAL", "", 10.0, "WEEK 16", 112.0, "TREATMENT", "2014-07-02T10:12", 113.0]
["CDISCPILOT01", "LB", "01-701-1118", 250.0, "MONO", "Monocytes", "HEMATOLOGY", "0.51", "10^9/L", "0.12", "0.92", "0.51", 0.5099999999999999, "10^9/L", 0.12, 0.9199999999999999, "NORMAL", "", 11.0, "WEEK 20", 140.0, "TREATMENT", "2014-07-30T13:50", 141.0]
["CDISCPILOT01", "LB", "01-701-1118", 282.0, "MONO", "Monocytes", "HEMATOLOGY", "0.52", "10^9/L", "0.12", "0.92", "0.52", 0.5199999999999999, "10^9/L", 0.12, 0.9199999999999999, "NORMAL", "", 12.0, "WEEK 24", 168.0, "TREATMENT", "2014-08-27T11:27", 169.0]
["CDISCPILOT01", "LB", "01-701-1118", 315.0, "MONO", "Monocytes", "HEMATOLOGY", "0.44", "10^9/L", "0.12", "0.92", "0.44", 0.44, "10^9/L", 0.12, 0.9199999999999999, "NORMAL", "", 13.0, "WEEK 26", 182.0, "TREATMENT", "2014-09-09T13:28", 182.0]
["CDISCPILOT01", "LB", "01-701-1118", 29.0, "PLAT", "Platelets", "HEMATOLOGY", "268", "10^9/L", "140", "400", "268", 268.0, "10^9/L", 140.0, 400.0, "NORMAL", "Y", 1.0, "SCREENING 1", -7.0, "SCREENING", "2014-02-27T10:32", -13.0]
["CDISCPILOT01", "LB", "01-701-1118", 66.0, "PLAT", "Platelets", "HEMATOLOGY", "285", "10^9/L", "140", "400", "285", 285.0, "10^9/L", 140.0, 400.0, "NORMAL", "", 4.0, "WEEK 2", 14.0, "TREATMENT", "2014-03-26T10:50", 15.0]
["CDISCPILOT01", "LB", "01-701-1118", 98.0, "PLAT", "Platelets", "HEMATOLOGY", "308", "10^9/L", "140", "400", "308", 308.0, "10^9/L", 140.0, 400.0, "NORMAL", "", 5.0, "WEEK 4", 28.0, "TREATMENT", "2014-04-09T11:01", 29.0]
["CDISCPILOT01", "LB", "01-701-1118", 128.0, "PLAT", "Platelets", "HEMATOLOGY", "274", "10^9/L", "140", "400", "274", 274.0, "10^9/L", 140.0, 400.0, "NORMAL", "", 7.0, "WEEK 6", 42.0, "TREATMENT", "2014-04-23T15:22", 43.0]
["CDISCPILOT01", "LB", "01-701-1118", 158.0, "PLAT", "Platelets", "HEMATOLOGY", "334", "10^9/L", "140", "400", "334", 334.0, "10^9/L", 140.0, 400.0, "NORMAL", "", 8.0, "WEEK 8", 56.0, "TREATMENT", "2014-05-08T09:30", 58.0]
["CDISCPILOT01", "LB", "01-701-1118", 191.0, "PLAT", "Platelets", "HEMATOLOGY", "293", "10^9/L", "140", "400", "293", 293.0, "10^9/L", 140.0, 400.0, "NORMAL", "", 9.0, "WEEK 12", 84.0, "TREATMENT", "2014-06-05T08:14", 86.0]
["CDISCPILOT01", "LB", "01-701-1118", 223.0, "PLAT", "Platelets", "HEMATOLOGY", "304", "10^9/L", "140", "400", "304", 304.0, "10^9/L", 140.0, 400.0, "NORMAL", "", 10.0, "WEEK 16", 112.0, "TREATMENT", "2014-07-02T10:12", 113.0]
["CDISCPILOT01", "LB", "01-701-1118", 253.0, "PLAT", "Platelets", "HEMATOLOGY", "324", "10^9/L", "140", "400", "324", 324.0, "10^9/L", 140.0, 400.0, "NORMAL", "", 11.0, "WEEK 20", 140.0, "TREATMENT", "2014-07-30T13:50", 141.0]
["CDISCPILOT01", "LB", "01-701-1118", 286.0, "PLAT", "Platelets", "HEMATOLOGY", "313", "10^9/L", "140", "400", "313", 313.0, "10^9/L", 140.0, 400.0, "NORMAL", "", 12.0, "WEEK 24", 168.0, "TREATMENT", "2014-08-27T11:27", 169.0]
["CDISCPILOT01", "LB", "01-701-1118", 318.0, "PLAT", "Platelets", "HEMATOLOGY", "271", "10^9/L", "140", "400", "271", 271.0, "10^9/L", 140.0, 400.0, "NORMAL", "", 13.0, "WEEK 26", 182.0, "TREATMENT", "2014-09-09T13:28", 182.0]
["CDISCPILOT01", "LB", "01-701-1118", 31.0, "RBC", "Erythrocytes", "HEMATOLOGY", "4.90", "10^12/L", "4.5", "6.4", "4.9", 4.8999999999999995, "10^12/L", 4.5, 6.3999999999999995, "NORMAL", "Y", 1.0, "SCREENING 1", -7.0, "SCREENING", "2014-02-27T10:32", -13.0]
["CDISCPILOT01", "LB", "01-701-1118", 68.0, "RBC", "Erythrocytes", "HEMATOLOGY", "5.10", "10^12/L", "4.5", "6.4", "5.1", 5.1, "10^12/L", 4.5, 6.3999999999999995, "NORMAL", "", 4.0, "WEEK 2", 14.0, "TREATMENT", "2014-03-26T10:50", 15.0]
["CDISCPILOT01", "LB", "01-701-1118", 100.0, "RBC", "Erythrocytes", "HEMATOLOGY", "5.00", "10^12/L", "4.5", "6.4", "5", 5.0, "10^12/L", 4.5, 6.3999999999999995, "NORMAL", "", 5.0, "WEEK 4", 28.0, "TREATMENT", "2014-04-09T11:01", 29.0]
["CDISCPILOT01", "LB", "01-701-1118", 130.0, "RBC", "Erythrocytes", "HEMATOLOGY", "4.70", "10^12/L", "4.5", "6.4", "4.7", 4.699999999999999, "10^12/L", 4.5, 6.3999999999999995, "NORMAL", "", 7.0, "WEEK 6", 42.0, "TREATMENT", "2014-04-23T15:22", 43.0]
["CDISCPILOT01", "LB", "01-701-1118", 160.0, "RBC", "Erythrocytes", "HEMATOLOGY", "4.90", "10^12/L", "4.5", "6.4", "4.9", 4.8999999999999995, "10^12/L", 4.5, 6.3999999999999995, "NORMAL", "", 8.0, "WEEK 8", 56.0, "TREATMENT", "2014-05-08T09:30", 58.0]
["CDISCPILOT01", "LB", "01-701-1118", 193.0, "RBC", "Erythrocytes", "HEMATOLOGY", "5.10", "10^12/L", "4.5", "6.4", "5.1", 5.1, "10^12/L", 4.5, 6.3999999999999995, "NORMAL", "", 9.0, "WEEK 12", 84.0, "TREATMENT", "2014-06-05T08:14", 86.0]
["CDISCPILOT01", "LB", "01-701-1118", 225.0, "RBC", "Erythrocytes", "HEMATOLOGY", "5.00", "10^12/L", "4.5", "6.4", "5", 5.0, "10^12/L", 4.5, 6.3999999999999995, "NORMAL", "", 10.0, "WEEK 16", 112.0, "TREATMENT", "2014-07-02T10:12", 113.0]
["CDISCPILOT01", "LB", "01-701-1118", 255.0, "RBC", "Erythrocytes", "HEMATOLOGY", "5.10", "10^12/L", "4.5", "6.4", "5.1", 5.1, "10^12/L", 4.5, 6.3999999999999995, "NORMAL", "", 11.0, "WEEK 20", 140.0, "TREATMENT", "2014-07-30T13:50", 141.0]
["CDISCPILOT01", "LB", "01-701-1118", 288.0, "RBC", "Erythrocytes", "HEMATOLOGY", "5.00", "10^12/L", "4.5", "6.4", "5", 5.0, "10^12/L", 4.5, 6.3999999999999995, "NORMAL", "", 12.0, "WEEK 24", 168.0, "TREATMENT", "2014-08-27T11:27", 169.0]
["CDISCPILOT01", "LB", "01-701-1118", 320.0, "RBC", "Erythrocytes", "HEMATOLOGY", "4.70", "10^12/L", "4.5", "6.4", "4.7", 4.699999999999999, "10^12/L", 4.5, 6.3999999999999995, "NORMAL", "", 13.0, "WEEK 26", 182.0, "TREATMENT", "2014-09-09T13:28", 182.0]
["CDISCPILOT01", "LB", "01-701-1118", 37.0, "WBC", "Leukocytes", "HEMATOLOGY", "7.89", "10^9/L", "3.8", "10.7", "7.89", 7.89, "10^9/L", 3.8, 10.7, "NORMAL", "Y", 1.0, "SCREENING 1", -7.0, "SCREENING", "2014-02-27T10:32", -13.0]
["CDISCPILOT01", "LB", "01-701-1118", 72.0, "WBC", "Leukocytes", "HEMATOLOGY", "6.07", "10^9/L", "3.8", "10.7", "6.07", 6.069999999999999, "10^9/L", 3.8, 10.7, "NORMAL", "", 4.0, "WEEK 2", 14.0, "TREATMENT", "2014-03-26T10:50", 15.0]
["CDISCPILOT01", "LB", "01-701-1118", 102.0, "WBC", "Leukocytes", "HEMATOLOGY", "5.89", "10^9/L", "3.8", "10.7", "5.89", 5.89, "10^9/L", 3.8, 10.7, "NORMAL", "", 5.0, "WEEK 4", 28.0, "TREATMENT", "2014-04-09T11:01", 29.0]
["CDISCPILOT01", "LB", "01-701-1118", 132.0, "WBC", "Leukocytes", "HEMATOLOGY", "6.59", "10^9/L", "3.8", "10.7", "6.59", 6.59, "10^9/L", 3.8, 10.7, "NORMAL", "", 7.0, "WEEK 6", 42.0, "TREATMENT", "2014-04-23T15:22", 43.0]
["CDISCPILOT01", "LB", "01-701-1118", 162.0, "WBC", "Leukocytes", "HEMATOLOGY", "8.22", "10^9/L", "3.8", "10.7", "8.22", 8.219999999999999, "10^9/L", 3.8, 10.7, "NORMAL", "", 8.0, "WEEK 8", 56.0, "TREATMENT", "2014-05-08T09:30", 58.0]
["CDISCPILOT01", "LB", "01-701-1118", 197.0, "WBC", "Leukocytes", "HEMATOLOGY", "6.33", "10^9/L", "3.8", "10.7", "6.33", 6.33, "10^9/L", 3.8, 10.7, "NORMAL", "", 9.0, "WEEK 12", 84.0, "TREATMENT", "2014-06-05T08:14", 86.0]
["CDISCPILOT01", "LB", "01-701-1118", 227.0, "WBC", "Leukocytes", "HEMATOLOGY", "6.69", "10^9/L", "3.8", "10.7", "6.69", 6.6899999999999995, "10^9/L", 3.8, 10.7, "NORMAL", "", 10.0, "WEEK 16", 112.0, "TREATMENT", "2014-07-02T10:12", 113.0]
["CDISCPILOT01", "LB", "01-701-1118", 257.0, "WBC", "Leukocytes", "HEMATOLOGY", "7.01", "10^9/L", "3.8", "10.7", "7.01", 7.01, "10^9/L", 3.8, 10.7, "NORMAL", "", 11.0, "WEEK 20", 140.0, "TREATMENT", "2014-07-30T13:50", 141.0]
["CDISCPILOT01", "LB", "01-701-1118", 292.0, "WBC", "Leukocytes", "HEMATOLOGY", "7.10", "10^9/L", "3.8", "10.7", "7.1", 7.1, "10^9/L", 3.8, 10.7, "NORMAL", "", 12.0, "WEEK 24", 168.0, "TREATMENT", "2014-08-27T11:27", 169.0]
["CDISCPILOT01", "LB", "01-701-1118", 322.0, "WBC", "Leukocytes", "HEMATOLOGY", "5.95", "10^9/L", "3.8", "10.7", "5.95", 5.949999999999999, "10^9/L", 3.8, 10.7, "NORMAL", "", 13.0, "WEEK 26", 182.0, "TREATMENT", "2014-09-09T13:28", 182.0]
["CDISCPILOT01", "LB", "01-701-1130", 5.0, "BASO", "Basophils", "HEMATOLOGY", "0.03", "10^9/L", "0", "0.2", "0.03", 0.03, "10^9/L", 0.0, 0.19999999999999998, "NORMAL", "Y", 1.0, "SCREENING 1", -7.0, "SCREENING", "2014-02-09T12:01", -6.0]
["CDISCPILOT01", "LB", "01-701-1130", 42.0, "BASO", "Basophils", "HEMATOLOGY", "0.07", "10^9/L", "0", "0.2", "0.07", 0.07, "10^9/L", 0.0, 0.19999999999999998, "NORMAL", "", 4.0, "WEEK 2", 14.0, "TREATMENT", "2014-03-01T08:30", 15.0]
["CDISCPILOT01", "LB", "01-701-1130", 77.0, "BASO", "Basophils", "HEMATOLOGY", "0.03", "10^9/L", "0", "0.2", "0.03", 0.03, "10^9/L", 0.0, 0.19999999999999998, "NORMAL", "", 5.0, "WEEK 4", 28.0, "TREATMENT", "2014-03-15T13:07", 29.0]
["CDISCPILOT01", "LB", "01-701-1130", 107.0, "BASO", "Basophils", "HEMATOLOGY", "0.05", "10^9/L", "0", "0.2", "0.05", 0.049999999999999996, "10^9/L", 0.0, 0.19999999999999998, "NORMAL", "", 7.0, "WEEK 6", 42.0, "TREATMENT", "2014-03-29T09:40", 43.0]
["CDISCPILOT01", "LB", "01-701-1130", 137.0, "BASO", "Basophils", "HEMATOLOGY", "0.04", "10^9/L", "0", "0.2", "0.04", 0.039999999999999994, "10^9/L", 0.0, 0.19999999999999998, "NORMAL", "", 8.0, "WEEK 8", 56.0, "TREATMENT", "2014-04-12T12:35", 57.0]
["CDISCPILOT01", "LB", "01-701-1130", 167.0, "BASO", "Basophils", "HEMATOLOGY", "0.04", "10^9/L", "0", "0.2", "0.04", 0.039999999999999994, "10^9/L", 0.0, 0.19999999999999998, "NORMAL", "", 9.0, "WEEK 12", 84.0, "TREATMENT", "2014-05-16T11:37", 91.0]
["CDISCPILOT01", "LB", "01-701-1130", 202.0, "BASO", "Basophils", "HEMATOLOGY", "0.05", "10^9/L", "0", "0.2", "0.05", 0.049999999999999996, "10^9/L", 0.0, 0.19999999999999998, "NORMAL", "", 10.0, "WEEK 16", 112.0, "TREATMENT", "2014-06-07T13:20", 113.0]
["CDISCPILOT01", "LB", "01-701-1130", 232.0, "BASO", "Basophils", "HEMATOLOGY", "0.05", "10^9/L", "0", "0.2", "0.05", 0.049999999999999996, "10^9/L", 0.0, 0.19999999999999998, "NORMAL", "", 11.0, "WEEK 20", 140.0, "TREATMENT", "2014-07-02T15:03", 138.0]
["CDISCPILOT01", "LB", "01-701-1130", 262.0, "BASO", "Basophils", "HEMATOLOGY", "0.04", "10^9/L", "0", "0.2", "0.04", 0.039999999999999994, "10^9/L", 0.0, 0.19999999999999998, "NORMAL", "", 12.0, "WEEK 24", 168.0, "TREATMENT", "2014-08-02T13:50", 169.0]
["CDISCPILOT01", "LB", "01-701-1130", 297.0, "BASO", "Basophils", "HEMATOLOGY", "0.05", "10^9/L", "0", "0.2", "0.05", 0.049999999999999996, "10^9/L", 0.0, 0.19999999999999998, "NORMAL", "", 13.0, "WEEK 26", 182.0, "TREATMENT", "2014-08-16T13:10", 183.0]
["CDISCPILOT01", "LB", "01-701-1130", 14.0, "EOS", "Eosinophils", "HEMATOLOGY", "0.16", "10^9/L", "0", "0.57", "0.16", 0.16, "10^9/L", 0.0, 0.57, "NORMAL", "Y", 1.0, "SCREENING 1", -7.0, "SCREENING", "2014-02-09T12:01", -6.0]
["CDISCPILOT01", "LB", "01-701-1130", 51.0, "EOS", "Eosinophils", "HEMATOLOGY", "0.20", "10^9/L", "0", "0.57", "0.2", 0.19999999999999998, "10^9/L", 0.0, 0.57, "NORMAL", "", 4.0, "WEEK 2", 14.0, "TREATMENT", "2014-03-01T08:30", 15.0]
["CDISCPILOT01", "LB", "01-701-1130", 85.0, "EOS", "Eosinophils", "HEMATOLOGY", "0.18", "10^9/L", "0", "0.57", "0.18", 0.18, "10^9/L", 0.0, 0.57, "NORMAL", "", 5.0, "WEEK 4", 28.0, "TREATMENT", "2014-03-15T13:07", 29.0]
["CDISCPILOT01", "LB", "01-701-1130", 115.0, "EOS", "Eosinophils", "HEMATOLOGY", "0.17", "10^9/L", "0", "0.57", "0.17", 0.16999999999999998, "10^9/L", 0.0, 0.57, "NORMAL", "", 7.0, "WEEK 6", 42.0, "TREATMENT", "2014-03-29T09:40", 43.0]
