{"datasetJSONCreationDateTime": "2025-10-13T16:15:16", "datasetJSONVersion": "1.1.0", "itemGroupOID": "{LBUR", "records": 4913, "name": "LBUR", "label": "LBUR", "columns": [{"itemOID": "IT.STUDYID", "name": "STUDYID", "label": "Study Identifier", "dataType": "string"}, {"itemOID": "IT.DOMAIN", "name": "DOMAIN", "label": "Domain Abbreviation", "dataType": "string"}, {"itemOID": "IT.USUBJID", "name": "USUBJID", "label": "Unique Subject Identifier", "dataType": "string"}, {"itemOID": "IT.LBSEQ", "name": "LBSEQ", "label": "Sequence Number", "dataType": "double"}, {"itemOID": "IT.LBTESTCD", "name": "LBTESTCD", "label": "Lab Test or Examination Short Name", "dataType": "string"}, {"itemOID": "IT.LBTEST", "name": "LBTEST", "label": "Lab Test or Examination Name", "dataType": "string"}, {"itemOID": "IT.LBCAT", "name": "LBCAT", "label": "Category for Lab Test", "dataType": "string"}, {"itemOID": "IT.LBORRES", "name": "LBORRES", "label": "Result or Finding in Original Units", "dataType": "string"}, {"itemOID": "IT.LBORRESU", "name": "LBORRESU", "label": "Original Units", "dataType": "string"}, {"itemOID": "IT.LBORNRLO", "name": "LBORNRLO", "label": "Reference Range Lower Limit in Orig Unit", "dataType": "string"}, {"itemOID": "IT.LBORNRHI", "name": "LBORNRHI", "label": "Reference Range Upper Limit in Orig Unit", "dataType": "string"}, {"itemOID": "IT.LBSTRESC", "name": "LBSTRESC", "label": "Character Result/Finding in Std Format", "dataType": "string"}, {"itemOID": "IT.LBSTRESN", "name": "LBSTRESN", "label": "Numeric Result/Finding in Standard Units", "dataType": "double"}, {"itemOID": "IT.LBSTRESU", "name": "LBSTRESU", "label": "Standard Units", "dataType": "string"}, {"itemOID": "IT.LBSTNRLO", "name": "LBSTNRLO", "label": "Reference Range Lower Limit-Std Units", "dataType": "double"}, {"itemOID": "IT.LBSTNRHI", "name": "LBSTNRHI", "label": "Reference Range Upper Limit-Std Units", "dataType": "double"}, {"itemOID": "IT.LBNRIND", "name": "LBNRIND", "label": "Reference Range Indicator", "dataType": "string"}, {"itemOID": "IT.LBBLFL", "name": "LBBLFL", "label": "Baseline Flag", "dataType": "string"}, {"itemOID": "IT.VISITNUM", "name": "VISITNUM", "label": "Visit Number", "dataType": "double"}, {"itemOID": "IT.VISIT", "name": "VISIT", "label": "Visit Name", "dataType": "string"}, {"itemOID": "IT.VISITDY", "name": "VISITDY", "label": "Planned Study Day of Visit", "dataType": "double"}, {"itemOID": "IT.EPOCH", "name": "EPOCH", "label": "Epoch", "dataType": "string"}, {"itemOID": "IT.LBDTC", "name": "LBDTC", "label": "Date/Time of Specimen Collection", "dataType": "string"}, {"itemOID": "IT.LBDY", "name": "LBDY", "label": "Study Day of Specimen Collection", "dataType": "double"}]}
["CDISCPILOT01", "LB", "01-701-1015", 13.0, "COLOR", "Color", "URINALYSIS", "N", "", "", "", "N", null, "", null, null, "NORMAL", "Y", 1.0, "SCREENING 1", -7.0, "SCREENING", "2013-12-26T14:45", -7.0]
["CDISCPILOT01", "LB", "01-701-1015", 50.0, "COLOR", "Color", "URINALYSIS", "N", "", "", "", "N", null, "", null, null, "NORMAL", "", 4.0, "WEEK 2", 14.0, "TREATMENT", "2014-01-16T13:17", 15.0]
["CDISCPILOT01", "LB", "01-701-1015", 175.0, "COLOR", "Color", "URINALYSIS", "N", "", "", "", "N", null, "", null, null, "NORMAL", "", 9.0, "WEEK 12", 84.0, "TREATMENT", "2014-03-26T15:15", 84.0]
["CDISCPILOT01", "LB", "01-701-1015", 270.0, "COLOR", "Color", "URINALYSIS", "N", "", "", "", "N", null, "", null, null, "NORMAL", "", 12.0, "WEEK 24", 168.0, "TREATMENT", "2014-06-18T13:00", 168.0]
["CDISCPILOT01", "LB", "01-701-1015", 21.0, "KETONES", "Ketones", "URINALYSIS", "0", "", "", "", "0", 0.0, "", null, null, "NORMAL", "Y", 1.0, "SCREENING 1", -7.0, "SCREENING", "2013-12-26T14:45", -7.0]
["CDISCPILOT01", "LB", "01-701-1015", 58.0, "KETONES", "Ketones", "URINALYSIS", "0", "", "", "", "0", 0.0, "", null, null, "NORMAL", "", 4.0, "WEEK 2", 14.0, "TREATMENT", "2014-01-16T13:17", 15.0]
["CDISCPILOT01", "LB", "01-701-1015", 183.0, "KETONES", "Ketones", "URINALYSIS", "0", "", "", "", "0", 0.0, "", null, null, "NORMAL", "", 9.0, "WEEK 12", 84.0, "TREATMENT", "2014-03-26T15:15", 84.0]
["CDISCPILOT01", "LB", "01-701-1015", 278.0, "KETONES", "Ketones", "URINALYSIS", "0", "", "", "", "0", 0.0, "", null, null, "NORMAL", "", 12.0, "WEEK 24", 168.0, "TREATMENT", "2014-06-18T13:00", 168.0]
["CDISCPILOT01", "LB", "01-701-1015", 28.0, "PH", "pH", "URINALYSIS", "5.0", "", "5", "8", "5", 5.0, "", 5.0, 8.0, "NORMAL", "Y", 1.0, "SCREENING 1", -7.0, "SCREENING", "2013-12-26T14:45", -7.0]
["CDISCPILOT01", "LB", "01-701-1015", 65.0, "PH", "pH", "URINALYSIS", "5.0", "", "5", "8", "5", 5.0, "", 5.0, 8.0, "NORMAL", "", 4.0, "WEEK 2", 14.0, "TREATMENT", "2014-01-16T13:17", 15.0]
["CDISCPILOT01", "LB", "01-701-1015", 190.0, "PH", "pH", "URINALYSIS", "5.0", "", "5", "8", "5", 5.0, "", 5.0, 8.0, "NORMAL", "", 9.0, "WEEK 12", 84.0, "TREATMENT", "2014-03-26T15:15", 84.0]
["CDISCPILOT01", "LB", "01-701-1015", 285.0, "PH", "pH", "URINALYSIS", "5.0", "", "5", "8", "5", 5.0, "", 5.0, 8.0, "NORMAL", "", 12.0, "WEEK 24", 168.0, "TREATMENT", "2014-06-18T13:00", 168.0]
["CDISCPILOT01", "LB", "01-701-1015", 33.0, "SPGRAV", "Specific Gravity", "URINALYSIS", "1.013", "", "1.006", "1.03", "1.013", 1.013, "", 1.006, 1.03, "NORMAL", "Y", 1.0, "SCREENING 1", -7.0, "SCREENING", "2013-12-26T14:45", -7.0]
["CDISCPILOT01", "LB", "01-701-1015", 70.0, "SPGRAV", "Specific Gravity", "URINALYSIS", "1.007", "", "1.006", "1.03", "1.007", 1.007, "", 1.006, 1.03, "NORMAL", "", 4.0, "WEEK 2", 14.0, "TREATMENT", "2014-01-16T13:17", 15.0]
["CDISCPILOT01", "LB", "01-701-1015", 195.0, "SPGRAV", "Specific Gravity", "URINALYSIS", "1.011", "", "1.006", "1.03", "1.011", 1.011, "", 1.006, 1.03, "NORMAL", "", 9.0, "WEEK 12", 84.0, "TREATMENT", "2014-03-26T15:15", 84.0]
["CDISCPILOT01", "LB", "01-701-1015", 290.0, "SPGRAV", "Specific Gravity", "URINALYSIS", "1.005", "", "1.006", "1.03", "1.005", 1.005, "", 1.006, 1.03, "LOW", "", 12.0, "WEEK 24", 168.0, "TREATMENT", "2014-06-18T13:00", 168.0]
["CDISCPILOT01", "LB", "01-701-1015", 34.0, "TSH", "Thyrotropin", "OTHER", "1.68", "mIU/L", "0.32", "5", "1.68", 1.68, "mU/L", 0.32, 5.0, "NORMAL", "Y", 1.0, "SCREENING 1", -7.0, "SCREENING", "2013-12-26T14:45", -7.0]
["CDISCPILOT01", "LB", "01-701-1015", 36.0, "UROBIL", "Urobilinogen", "URINALYSIS", "0", "", "", "", "0", 0.0, "", null, null, "NORMAL", "Y", 1.0, "SCREENING 1", -7.0, "SCREENING", "2013-12-26T14:45", -7.0]
["CDISCPILOT01", "LB", "01-701-1015", 72.0, "UROBIL", "Urobilinogen", "URINALYSIS", "0", "", "", "", "0", 0.0, "", null, null, "NORMAL", "", 4.0, "WEEK 2", 14.0, "TREATMENT", "2014-01-16T13:17", 15.0]
["CDISCPILOT01", "LB", "01-701-1015", 197.0, "UROBIL", "Urobilinogen", "URINALYSIS", "0", "", "", "", "0", 0.0, "", null, null, "NORMAL", "", 9.0, "WEEK 12", 84.0, "TREATMENT", "2014-03-26T15:15", 84.0]
["CDISCPILOT01", "LB", "01-701-1015", 292.0, "UROBIL", "Urobilinogen", "URINALYSIS", "0", "", "", "", "0", 0.0, "", null, null, "NORMAL", "", 12.0, "WEEK 24", 168.0, "TREATMENT", "2014-06-18T13:00", 168.0]
["CDISCPILOT01", "LB", "01-701-1015", 37.0, "VITB12", "Vitamin B12", "OTHER", "399", "ng/L", "200", "900", "294.3822", 294.3822, "pmol/L", 148.0, 664.0, "NORMAL", "Y", 1.0, "SCREENING 1", -7.0, "SCREENING", "2013-12-26T14:45", -7.0]
["CDISCPILOT01", "LB", "01-701-1023", 12.0, "COLOR", "Color", "URINALYSIS", "N", "", "", "", "N", null, "", null, null, "NORMAL", "Y", 1.0, "SCREENING 1", -7.0, "SCREENING", "2012-07-22T12:13", -14.0]
["CDISCPILOT01", "LB", "01-701-1023", 49.0, "COLOR", "Color", "URINALYSIS", "N", "", "", "", "N", null, "", null, null, "NORMAL", "", 4.0, "WEEK 2", 14.0, "TREATMENT", "2012-08-27T15:47", 23.0]
["CDISCPILOT01", "LB", "01-701-1023", 84.0, "COLOR", "Color", "URINALYSIS", "N", "", "", "", "N", null, "", null, null, "NORMAL", "", 5.0, "WEEK 4", 28.0, "TREATMENT", "2012-09-02T10:15", 29.0]
["CDISCPILOT01", "LB", "01-701-1023", 20.0, "KETONES", "Ketones", "URINALYSIS", "0", "", "", "", "0", 0.0, "", null, null, "NORMAL", "Y", 1.0, "SCREENING 1", -7.0, "SCREENING", "2012-07-22T12:13", -14.0]
["CDISCPILOT01", "LB", "01-701-1023", 57.0, "KETONES", "Ketones", "URINALYSIS", "0", "", "", "", "0", 0.0, "", null, null, "NORMAL", "", 4.0, "WEEK 2", 14.0, "TREATMENT", "2012-08-27T15:47", 23.0]
["CDISCPILOT01", "LB", "01-701-1023", 92.0, "KETONES", "Ketones", "URINALYSIS", "0", "", "", "", "0", 0.0, "", null, null, "NORMAL", "", 5.0, "WEEK 4", 28.0, "TREATMENT", "2012-09-02T10:15", 29.0]
["CDISCPILOT01", "LB", "01-701-1023", 27.0, "PH", "pH", "URINALYSIS", "5.0", "", "5", "8", "5", 5.0, "", 5.0, 8.0, "NORMAL", "Y", 1.0, "SCREENING 1", -7.0, "SCREENING", "2012-07-22T12:13", -14.0]
["CDISCPILOT01", "LB", "01-701-1023", 64.0, "PH", "pH", "URINALYSIS", "5.0", "", "5", "8", "5", 5.0, "", 5.0, 8.0, "NORMAL", "", 4.0, "WEEK 2", 14.0, "TREATMENT", "2012-08-27T15:47", 23.0]
["CDISCPILOT01", "LB", "01-701-1023", 99.0, "PH", "pH", "URINALYSIS", "5.0", "", "5", "8", "5", 5.0, "", 5.0, 8.0, "NORMAL", "", 5.0, "WEEK 4", 28.0, "TREATMENT", "2012-09-02T10:15", 29.0]
["CDISCPILOT01", "LB", "01-701-1023", 32.0, "SPGRAV", "Specific Gravity", "URINALYSIS", "1.016", "", "1.006", "1.03", "1.016", 1.016, "", 1.006, 1.03, "NORMAL", "Y", 1.0, "SCREENING 1", -7.0, "SCREENING", "2012-07-22T12:13", -14.0]
["CDISCPILOT01", "LB", "01-701-1023", 69.0, "SPGRAV", "Specific Gravity", "URINALYSIS", "1.026", "", "1.006", "1.03", "1.026", 1.026, "", 1.006, 1.03, "NORMAL", "", 4.0, "WEEK 2", 14.0, "TREATMENT", "2012-08-27T15:47", 23.0]
["CDISCPILOT01", "LB", "01-701-1023", 104.0, "SPGRAV", "Specific Gravity", "URINALYSIS", "1.016", "", "1.006", "1.03", "1.016", 1.016, "", 1.006, 1.03, "NORMAL", "", 5.0, "WEEK 4", 28.0, "TREATMENT", "2012-09-02T10:15", 29.0]
["CDISCPILOT01", "LB", "01-701-1023", 33.0, "TSH", "Thyrotropin", "OTHER", "1.28", "mIU/L", "0.32", "5", "1.28", 1.28, "mU/L", 0.32, 5.0, "NORMAL", "Y", 1.0, "SCREENING 1", -7.0, "SCREENING", "2012-07-22T12:13", -14.0]
["CDISCPILOT01", "LB", "01-701-1023", 35.0, "UROBIL", "Urobilinogen", "URINALYSIS", "0", "", "", "", "0", 0.0, "", null, null, "NORMAL", "Y", 1.0, "SCREENING 1", -7.0, "SCREENING", "2012-07-22T12:13", -14.0]
["CDISCPILOT01", "LB", "01-701-1023", 71.0, "UROBIL", "Urobilinogen", "URINALYSIS", "0", "", "", "", "0", 0.0, "", null, null, "NORMAL", "", 4.0, "WEEK 2", 14.0, "TREATMENT", "2012-08-27T15:47", 23.0]
["CDISCPILOT01", "LB", "01-701-1023", 106.0, "UROBIL", "Urobilinogen", "URINALYSIS", "0", "", "", "", "0", 0.0, "", null, null, "NORMAL", "", 5.0, "WEEK 4", 28.0, "TREATMENT", "2012-09-02T10:15", 29.0]
["CDISCPILOT01", "LB", "01-701-1023", 36.0, "VITB12", "Vitamin B12", "OTHER", "553", "ng/L", "200", "900", "408.0034", 408.0034, "pmol/L", 148.0, 664.0, "NORMAL", "Y", 1.0, "SCREENING 1", -7.0, "SCREENING", "2012-07-22T12:13", -14.0]
["CDISCPILOT01", "LB", "01-701-1028", 12.0, "COLOR", "Color", "URINALYSIS", "N", "", "", "", "N", null, "", null, null, "NORMAL", "Y", 1.0, "SCREENING 1", -7.0, "SCREENING", "2013-07-11T12:02", -8.0]
["CDISCPILOT01", "LB", "01-701-1028", 49.0, "COLOR", "Color", "URINALYSIS", "N", "", "", "", "N", null, "", null, null, "NORMAL", "", 4.0, "WEEK 2", 14.0, "TREATMENT", "2013-08-01T09:15", 14.0]
["CDISCPILOT01", "LB", "01-701-1028", 174.0, "COLOR", "Color", "URINALYSIS", "N", "", "", "", "N", null, "", null, null, "NORMAL", "", 9.0, "WEEK 12", 84.0, "TREATMENT", "2013-10-09T08:42", 83.0]
["CDISCPILOT01", "LB", "01-701-1028", 272.0, "COLOR", "Color", "URINALYSIS", "N", "", "", "", "N", null, "", null, null, "NORMAL", "", 12.0, "WEEK 24", 168.0, "TREATMENT", "2014-01-06T10:00", 172.0]
["CDISCPILOT01", "LB", "01-701-1028", 20.0, "KETONES", "Ketones", "URINALYSIS", "0", "", "", "", "0", 0.0, "", null, null, "NORMAL", "Y", 1.0, "SCREENING 1", -7.0, "SCREENING", "2013-07-11T12:02", -8.0]
["CDISCPILOT01", "LB", "01-701-1028", 57.0, "KETONES", "Ketones", "URINALYSIS", "0", "", "", "", "0", 0.0, "", null, null, "NORMAL", "", 4.0, "WEEK 2", 14.0, "TREATMENT", "2013-08-01T09:15", 14.0]
["CDISCPILOT01", "LB", "01-701-1028", 182.0, "KETONES", "Ketones", "URINALYSIS", "0", "", "", "", "0", 0.0, "", null, null, "NORMAL", "", 9.0, "WEEK 12", 84.0, "TREATMENT", "2013-10-09T08:42", 83.0]
["CDISCPILOT01", "LB", "01-701-1028", 280.0, "KETONES", "Ketones", "URINALYSIS", "0", "", "", "", "0", 0.0, "", null, null, "NORMAL", "", 12.0, "WEEK 24", 168.0, "TREATMENT", "2014-01-06T10:00", 172.0]
["CDISCPILOT01", "LB", "01-701-1028", 27.0, "PH", "pH", "URINALYSIS", "5.0", "", "5", "8", "5", 5.0, "", 5.0, 8.0, "NORMAL", "Y", 1.0, "SCREENING 1", -7.0, "SCREENING", "2013-07-11T12:02", -8.0]
["CDISCPILOT01", "LB", "01-701-1028", 64.0, "PH", "pH", "URINALYSIS", "5.0", "", "5", "8", "5", 5.0, "", 5.0, 8.0, "NORMAL", "", 4.0, "WEEK 2", 14.0, "TREATMENT", "2013-08-01T09:15", 14.0]
["CDISCPILOT01", "LB", "01-701-1028", 189.0, "PH", "pH", "URINALYSIS", "5.0", "", "5", "8", "5", 5.0, "", 5.0, 8.0, "NORMAL", "", 9.0, "WEEK 12", 84.0, "TREATMENT", "2013-10-09T08:42", 83.0]
["CDISCPILOT01", "LB", "01-701-1028", 288.0, "PH", "pH", "URINALYSIS", "5.0", "", "5", "8", "5", 5.0, "", 5.0, 8.0, "NORMAL", "", 12.0, "WEEK 24", 168.0, "TREATMENT", "2014-01-06T10:00", 172.0]
["CDISCPILOT01", "LB", "01-701-1028", 32.0, "SPGRAV", "Specific Gravity", "URINALYSIS", "1.008", "", "1.006", "1.03", "1.008", 1.008, "", 1.006, 1.03, "NORMAL", "Y", 1.0, "SCREENING 1", -7.0, "SCREENING", "2013-07-11T12:02", -8.0]
["CDISCPILOT01", "LB", "01-701-1028", 69.0, "SPGRAV", "Specific Gravity", "URINALYSIS", "1.010", "", "1.006", "1.03", "1.01", 1.01, "", 1.006, 1.03, "NORMAL", "", 4.0, "WEEK 2", 14.0, "TREATMENT", "2013-08-01T09:15", 14.0]
["CDISCPILOT01", "LB", "01-701-1028", 194.0, "SPGRAV", "Specific Gravity", "URINALYSIS", "1.008", "", "1.006", "1.03", "1.008", 1.008, "", 1.006, 1.03, "NORMAL", "", 9.0, "WEEK 12", 84.0, "TREATMENT", "2013-10-09T08:42", 83.0]
["CDISCPILOT01", "LB", "01-701-1028", 294.0, "SPGRAV", "Specific Gravity", "URINALYSIS", "1.012", "", "1.006", "1.03", "1.012", 1.012, "", 1.006, 1.03, "NORMAL", "", 12.0, "WEEK 24", 168.0, "TREATMENT", "2014-01-06T10:00", 172.0]
["CDISCPILOT01", "LB", "01-701-1028", 33.0, "TSH", "Thyrotropin", "OTHER", "2.90", "mIU/L", "0.32", "5", "2.9", 2.9, "mU/L", 0.32, 5.0, "NORMAL", "Y", 1.0, "SCREENING 1", -7.0, "SCREENING", "2013-07-11T12:02", -8.0]
["CDISCPILOT01", "LB", "01-701-1028", 35.0, "UROBIL", "Urobilinogen", "URINALYSIS", "0", "", "", "", "0", 0.0, "", null, null, "NORMAL", "Y", 1.0, "SCREENING 1", -7.0, "SCREENING", "2013-07-11T12:02", -8.0]
["CDISCPILOT01", "LB", "01-701-1028", 71.0, "UROBIL", "Urobilinogen", "URINALYSIS", "0", "", "", "", "0", 0.0, "", null, null, "NORMAL", "", 4.0, "WEEK 2", 14.0, "TREATMENT", "2013-08-01T09:15", 14.0]
["CDISCPILOT01", "LB", "01-701-1028", 196.0, "UROBIL", "Urobilinogen", "URINALYSIS", "0", "", "", "", "0", 0.0, "", null, null, "NORMAL", "", 9.0, "WEEK 12", 84.0, "TREATMENT", "2013-10-09T08:42", 83.0]
["CDISCPILOT01", "LB", "01-701-1028", 296.0, "UROBIL", "Urobilinogen", "URINALYSIS", "0", "", "", "", "0", 0.0, "", null, null, "NORMAL", "", 12.0, "WEEK 24", 168.0, "TREATMENT", "2014-01-06T10:00", 172.0]
["CDISCPILOT01", "LB", "01-701-1028", 36.0, "VITB12", "Vitamin B12", "OTHER", "252", "ng/L", "200", "900", "185.9256", 185.92559999999997, "pmol/L", 148.0, 664.0, "NORMAL", "Y", 1.0, "SCREENING 1", -7.0, "SCREENING", "2013-07-11T12:02", -8.0]
["CDISCPILOT01", "LB", "01-701-1033", 12.0, "COLOR", "Color", "URINALYSIS", "N", "", "", "", "N", null, "", null, null, "NORMAL", "Y", 1.0, "SCREENING 1", -7.0, "SCREENING", "2014-03-10T12:31", -8.0]
["CDISCPILOT01", "LB", "01-701-1033", 49.0, "COLOR", "Color", "URINALYSIS", "N", "", "", "", "N", null, "", null, null, "NORMAL", "", 4.0, "WEEK 2", 14.0, "TREATMENT", "2014-04-01T08:55", 15.0]
["CDISCPILOT01", "LB", "01-701-1033", 84.0, "COLOR", "Color", "URINALYSIS", "N", "", "", "", "N", null, "", null, null, "NORMAL", "", 5.0, "WEEK 4", 28.0, "TREATMENT", "2014-04-14T10:38", 28.0]
["CDISCPILOT01", "LB", "01-701-1033", 20.0, "KETONES", "Ketones", "URINALYSIS", "0", "", "", "", "0", 0.0, "", null, null, "NORMAL", "Y", 1.0, "SCREENING 1", -7.0, "SCREENING", "2014-03-10T12:31", -8.0]
["CDISCPILOT01", "LB", "01-701-1033", 57.0, "KETONES", "Ketones", "URINALYSIS", "0", "", "", "", "0", 0.0, "", null, null, "NORMAL", "", 4.0, "WEEK 2", 14.0, "TREATMENT", "2014-04-01T08:55", 15.0]
["CDISCPILOT01", "LB", "01-701-1033", 92.0, "KETONES", "Ketones", "URINALYSIS", "0", "", "", "", "0", 0.0, "", null, null, "NORMAL", "", 5.0, "WEEK 4", 28.0, "TREATMENT", "2014-04-14T10:38", 28.0]
["CDISCPILOT01", "LB", "01-701-1033", 27.0, "PH", "pH", "URINALYSIS", "5.0", "", "5", "8", "5", 5.0, "", 5.0, 8.0, "NORMAL", "Y", 1.0, "SCREENING 1", -7.0, "SCREENING", "2014-03-10T12:31", -8.0]
["CDISCPILOT01", "LB", "01-701-1033", 64.0, "PH", "pH", "URINALYSIS", "5.0", "", "5", "8", "5", 5.0, "", 5.0, 8.0, "NORMAL", "", 4.0, "WEEK 2", 14.0, "TREATMENT", "2014-04-01T08:55", 15.0]
["CDISCPILOT01", "LB", "01-701-1033", 99.0, "PH", "pH", "URINALYSIS", "5.0", "", "5", "8", "5", 5.0, "", 5.0, 8.0, "NORMAL", "", 5.0, "WEEK 4", 28.0, "TREATMENT", "2014-04-14T10:38", 28.0]
["CDISCPILOT01", "LB", "01-701-1033", 32.0, "SPGRAV", "Specific Gravity", "URINALYSIS", "1.020", "", "1.006", "1.03", "1.02", 1.02, "", 1.006, 1.03, "NORMAL", "Y", 1.0, "SCREENING 1", -7.0, "SCREENING", "2014-03-10T12:31", -8.0]
["CDISCPILOT01", "LB", "01-701-1033", 69.0, "SPGRAV", "Specific Gravity", "URINALYSIS", "1.014", "", "1.006", "1.03", "1.014", 1.014, "", 1.006, 1.03, "NORMAL", "", 4.0, "WEEK 2", 14.0, "TREATMENT", "2014-04-01T08:55", 15.0]
["CDISCPILOT01", "LB", "01-701-1033", 104.0, "SPGRAV", "Specific Gravity", "URINALYSIS", "1.027", "", "1.006", "1.03", "1.027", 1.027, "", 1.006, 1.03, "NORMAL", "", 5.0, "WEEK 4", 28.0, "TREATMENT", "2014-04-14T10:38", 28.0]
["CDISCPILOT01", "LB", "01-701-1033", 33.0, "TSH", "Thyrotropin", "OTHER", "0.84", "mIU/L", "0.32", "5", "0.84", 0.84, "mU/L", 0.32, 5.0, "NORMAL", "Y", 1.0, "SCREENING 1", -7.0, "SCREENING", "2014-03-10T12:31", -8.0]
["CDISCPILOT01", "LB", "01-701-1033", 35.0, "UROBIL", "Urobilinogen", "URINALYSIS", "0", "", "", "", "0", 0.0, "", null, null, "NORMAL", "Y", 1.0, "SCREENING 1", -7.0, "SCREENING", "2014-03-10T12:31", -8.0]
["CDISCPILOT01", "LB", "01-701-1033", 71.0, "UROBIL", "Urobilinogen", "URINALYSIS", "0", "", "", "", "0", 0.0, "", null, null, "NORMAL", "", 4.0, "WEEK 2", 14.0, "TREATMENT", "2014-04-01T08:55", 15.0]
["CDISCPILOT01", "LB", "01-701-1033", 106.0, "UROBIL", "Urobilinogen", "URINALYSIS", "0", "", "", "", "0", 0.0, "", null, null, "NORMAL", "", 5.0, "WEEK 4", 28.0, "TREATMENT", "2014-04-14T10:38", 28.0]
["CDISCPILOT01", "LB", "01-701-1033", 36.0, "VITB12", "Vitamin B12", "OTHER", "503", "ng/L", "200", "900", "371.1134", 371.1134, "pmol/L", 148.0, 664.0, "NORMAL", "Y", 1.0, "SCREENING 1", -7.0, "SCREENING", "2014-03-10T12:31", -8.0]
["CDISCPILOT01", "LB", "01-701-1034", 13.0, "COLOR", "Color", "URINALYSIS", "N", "", "", "", "N", null, "", null, null, "NORMAL", "Y", 1.0, "SCREENING 1", -7.0, "SCREENING", "2014-06-24T15:30", -7.0]
["CDISCPILOT01", "LB", "01-701-1034", 50.0, "COLOR", "Color", "URINALYSIS", "N", "", "", "", "N", null, "", null, null, "NORMAL", "", 4.0, "WEEK 2", 14.0, "TREATMENT", "2014-07-15T09:25", 15.0]
["CDISCPILOT01", "LB", "01-701-1034", 178.0, "COLOR", "Color", "URINALYSIS", "N", "", "", "", "N", null, "", null, null, "NORMAL", "", 9.0, "WEEK 12", 84.0, "TREATMENT", "2014-09-25T15:40", 87.0]
["CDISCPILOT01", "LB", "01-701-1034", 275.0, "COLOR", "Color", "URINALYSIS", "N", "", "", "", "N", null, "", null, null, "NORMAL", "", 12.0, "WEEK 24", 168.0, "TREATMENT", "2014-12-17T14:27", 170.0]
["CDISCPILOT01", "LB", "01-701-1034", 21.0, "KETONES", "Ketones", "URINALYSIS", "0", "", "", "", "0", 0.0, "", null, null, "NORMAL", "Y", 1.0, "SCREENING 1", -7.0, "SCREENING", "2014-06-24T15:30", -7.0]
["CDISCPILOT01", "LB", "01-701-1034", 58.0, "KETONES", "Ketones", "URINALYSIS", "0", "", "", "", "0", 0.0, "", null, null, "NORMAL", "", 4.0, "WEEK 2", 14.0, "TREATMENT", "2014-07-15T09:25", 15.0]
["CDISCPILOT01", "LB", "01-701-1034", 186.0, "KETONES", "Ketones", "URINALYSIS", "0", "", "", "", "0", 0.0, "", null, null, "NORMAL", "", 9.0, "WEEK 12", 84.0, "TREATMENT", "2014-09-25T15:40", 87.0]
["CDISCPILOT01", "LB", "01-701-1034", 283.0, "KETONES", "Ketones", "URINALYSIS", "0", "", "", "", "0", 0.0, "", null, null, "NORMAL", "", 12.0, "WEEK 24", 168.0, "TREATMENT", "2014-12-17T14:27", 170.0]
["CDISCPILOT01", "LB", "01-701-1034", 28.0, "PH", "pH", "URINALYSIS", "5.0", "", "5", "8", "5", 5.0, "", 5.0, 8.0, "NORMAL", "Y", 1.0, "SCREENING 1", -7.0, "SCREENING", "2014-06-24T15:30", -7.0]
["CDISCPILOT01", "LB", "01-701-1034", 66.0, "PH", "pH", "URINALYSIS", "5.0", "", "5", "8", "5", 5.0, "", 5.0, 8.0, "NORMAL", "", 4.0, "WEEK 2", 14.0, "TREATMENT", "2014-07-15T09:25", 15.0]
["CDISCPILOT01", "LB", "01-701-1034", 193.0, "PH", "pH", "URINALYSIS", "5.0", "", "5", "8", "5", 5.0, "", 5.0, 8.0, "NORMAL", "", 9.0, "WEEK 12", 84.0, "TREATMENT", "2014-09-25T15:40", 87.0]
["CDISCPILOT01", "LB", "01-701-1034", 291.0, "PH", "pH", "URINALYSIS", "5.0", "", "5", "8", "5", 5.0, "", 5.0, 8.0, "NORMAL", "", 12.0, "WEEK 24", 168.0, "TREATMENT", "2014-12-17T14:27", 170.0]
["CDISCPILOT01", "LB", "01-701-1034", 33.0, "SPGRAV", "Specific Gravity", "URINALYSIS", "1.015", "", "1.006", "1.03", "1.015", 1.015, "", 1.006, 1.03, "NORMAL", "Y", 1.0, "SCREENING 1", -7.0, "SCREENING", "2014-06-24T15:30", -7.0]
["CDISCPILOT01", "LB", "01-701-1034", 71.0, "SPGRAV", "Specific Gravity", "URINALYSIS", "1.019", "", "1.006", "1.03", "1.019", 1.019, "", 1.006, 1.03, "NORMAL", "", 4.0, "WEEK 2", 14.0, "TREATMENT", "2014-07-15T09:25", 15.0]
["CDISCPILOT01", "LB", "01-701-1034", 198.0, "SPGRAV", "Specific Gravity", "URINALYSIS", "1.007", "", "1.006", "1.03", "1.007", 1.007, "", 1.006, 1.03, "NORMAL", "", 9.0, "WEEK 12", 84.0, "TREATMENT", "2014-09-25T15:40", 87.0]
["CDISCPILOT01", "LB", "01-701-1034", 296.0, "SPGRAV", "Specific Gravity", "URINALYSIS", "1.015", "", "1.006", "1.03", "1.015", 1.015, "", 1.006, 1.03, "NORMAL", "", 12.0, "WEEK 24", 168.0, "TREATMENT", "2014-12-17T14:27", 170.0]
["CDISCPILOT01", "LB", "01-701-1034", 34.0, "TSH", "Thyrotropin", "OTHER", "0.27", "mIU/L", "0.32", "5", "0.27", 0.26999999999999996, "mU/L", 0.32, 5.0, "LOW", "Y", 1.0, "SCREENING 1", -7.0, "SCREENING", "2014-06-24T15:30", -7.0]
["CDISCPILOT01", "LB", "01-701-1034", 36.0, "UROBIL", "Urobilinogen", "URINALYSIS", "0", "", "", "", "0", 0.0, "", null, null, "NORMAL", "Y", 1.0, "SCREENING 1", -7.0, "SCREENING", "2014-06-24T15:30", -7.0]
["CDISCPILOT01", "LB", "01-701-1034", 73.0, "UROBIL", "Urobilinogen", "URINALYSIS", "0", "", "", "", "0", 0.0, "", null, null, "NORMAL", "", 4.0, "WEEK 2", 14.0, "TREATMENT", "2014-07-15T09:25", 15.0]
["CDISCPILOT01", "LB", "01-701-1034", 200.0, "UROBIL", "Urobilinogen", "URINALYSIS", "0", "", "", "", "0", 0.0, "", null, null, "NORMAL", "", 9.0, "WEEK 12", 84.0, "TREATMENT", "2014-09-25T15:40", 87.0]
["CDISCPILOT01", "LB", "01-701-1034", 298.0, "UROBIL", "Urobilinogen", "URINALYSIS", "0", "", "", "", "0", 0.0, "", null, null, "NORMAL", "", 12.0, "WEEK 24", 168.0, "TREATMENT", "2014-12-17T14:27", 170.0]
["CDISCPILOT01", "LB", "01-701-1034", 37.0, "VITB12", "Vitamin B12", "OTHER", "592", "ng/L", "200", "900", "436.7776", 436.7776, "pmol/L", 148.0, 664.0, "NORMAL", "Y", 1.0, "SCREENING 1", -7.0, "SCREENING", "2014-06-24T15:30", -7.0]
["CDISCPILOT01", "LB", "01-701-1047", 12.0, "COLOR", "Color", "URINALYSIS", "N", "", "", "", "N", null, "", null, null, "NORMAL", "Y", 1.0, "SCREENING 1", -7.0, "SCREENING", "2013-01-22T14:36", -21.0]
["CDISCPILOT01", "LB", "01-701-1047", 49.0, "COLOR", "Color", "URINALYSIS", "N", "", "", "", "N", null, "", null, null, "NORMAL", "", 4.0, "WEEK 2", 14.0, "TREATMENT", "2013-02-25T12:10", 14.0]
["CDISCPILOT01", "LB", "01-701-1047", 104.0, "COLOR", "Color", "URINALYSIS", "N", "", "", "", "N", null, "", null, null, "NORMAL", "", 6.0, "AMBUL ECG REMOVAL", 30.0, "TREATMENT", "2013-03-29T12:53", 46.0]
["CDISCPILOT01", "LB", "01-701-1047", 20.0, "KETONES", "Ketones", "URINALYSIS", "0", "", "", "", "0", 0.0, "", null, null, "NORMAL", "Y", 1.0, "SCREENING 1", -7.0, "SCREENING", "2013-01-22T14:36", -21.0]
["CDISCPILOT01", "LB", "01-701-1047", 57.0, "KETONES", "Ketones", "URINALYSIS", "0", "", "", "", "0", 0.0, "", null, null, "NORMAL", "", 4.0, "WEEK 2", 14.0, "TREATMENT", "2013-02-25T12:10", 14.0]
["CDISCPILOT01", "LB", "01-701-1047", 108.0, "KETONES", "Ketones", "URINALYSIS", "0", "", "", "", "0", 0.0, "", null, null, "NORMAL", "", 6.0, "AMBUL ECG REMOVAL", 30.0, "TREATMENT", "2013-03-29T12:53", 46.0]
["CDISCPILOT01", "LB", "01-701-1047", 27.0, "PH", "pH", "URINALYSIS", "5.0", "", "5", "8", "5", 5.0, "", 5.0, 8.0, "NORMAL", "Y", 1.0, "SCREENING 1", -7.0, "SCREENING", "2013-01-22T14:36", -21.0]
["CDISCPILOT01", "LB", "01-701-1047", 64.0, "PH", "pH", "URINALYSIS", "5.0", "", "5", "8", "5", 5.0, "", 5.0, 8.0, "NORMAL", "", 4.0, "WEEK 2", 14.0, "TREATMENT", "2013-02-25T12:10", 14.0]
["CDISCPILOT01", "LB", "01-701-1047", 114.0, "PH", "pH", "URINALYSIS", "5.0", "", "5", "8", "5", 5.0, "", 5.0, 8.0, "NORMAL", "", 6.0, "AMBUL ECG REMOVAL", 30.0, "TREATMENT", "2013-03-29T12:53", 46.0]
["CDISCPILOT01", "LB", "01-701-1047", 32.0, "SPGRAV", "Specific Gravity", "URINALYSIS", "1.021", "", "1.006", "1.03", "1.021", 1.021, "", 1.006, 1.03, "NORMAL", "Y", 1.0, "SCREENING 1", -7.0, "SCREENING", "2013-01-22T14:36", -21.0]
["CDISCPILOT01", "LB", "01-701-1047", 69.0, "SPGRAV", "Specific Gravity", "URINALYSIS", "1.015", "", "1.006", "1.03", "1.015", 1.015, "", 1.006, 1.03, "NORMAL", "", 4.0, "WEEK 2", 14.0, "TREATMENT", "2013-02-25T12:10", 14.0]
["CDISCPILOT01", "LB", "01-701-1047", 117.0, "SPGRAV", "Specific Gravity", "URINALYSIS", "1.025", "", "1.006", "1.03", "1.025", 1.025, "", 1.006, 1.03, "NORMAL", "", 6.0, "AMBUL ECG REMOVAL", 30.0, "TREATMENT", "2013-03-29T12:53", 46.0]
["CDISCPILOT01", "LB", "01-701-1047", 33.0, "TSH", "Thyrotropin", "OTHER", "0.46", "mIU/L", "0.32", "5", "0.46", 0.45999999999999996, "mU/L", 0.32, 5.0, "NORMAL", "Y", 1.0, "SCREENING 1", -7.0, "SCREENING", "2013-01-22T14:36", -21.0]
["CDISCPILOT01", "LB", "01-701-1047", 35.0, "UROBIL", "Urobilinogen", "URINALYSIS", "0", "", "", "", "0", 0.0, "", null, null, "NORMAL", "Y", 1.0, "SCREENING 1", -7.0, "SCREENING", "2013-01-22T14:36", -21.0]
["CDISCPILOT01", "LB", "01-701-1047", 71.0, "UROBIL", "Urobilinogen", "URINALYSIS", "0", "", "", "", "0", 0.0, "", null, null, "NORMAL", "", 4.0, "WEEK 2", 14.0, "TREATMENT", "2013-02-25T12:10", 14.0]
["CDISCPILOT01", "LB", "01-701-1047", 118.0, "UROBIL", "Urobilinogen", "URINALYSIS", "0", "", "", "", "0", 0.0, "", null, null, "NORMAL", "", 6.0, "AMBUL ECG REMOVAL", 30.0, "TREATMENT", "2013-03-29T12:53", 46.0]
["CDISCPILOT01", "LB", "01-701-1047", 36.0, "VITB12", "Vitamin B12", "OTHER", "585", "ng/L", "200", "900", "431.613", 431.613, "pmol/L", 148.0, 664.0, "NORMAL", "Y", 1.0, "SCREENING 1", -7.0, "SCREENING", "2013-01-22T14:36", -21.0]
["CDISCPILOT01", "LB", "01-701-1097", 12.0, "COLOR", "Color", "URINALYSIS", "N", "", "", "", "N", null, "", null, null, "NORMAL", "Y", 1.0, "SCREENING 1", -7.0, "SCREENING", "2013-12-23T12:30", -9.0]
["CDISCPILOT01", "LB", "01-701-1097", 49.0, "COLOR", "Color", "URINALYSIS", "N", "", "", "", "N", null, "", null, null, "NORMAL", "", 4.0, "WEEK 2", 14.0, "TREATMENT", "2014-01-15T10:03", 15.0]
["CDISCPILOT01", "LB", "01-701-1097", 174.0, "COLOR", "Color", "URINALYSIS", "N", "", "", "", "N", null, "", null, null, "NORMAL", "", 9.0, "WEEK 12", 84.0, "TREATMENT", "2014-03-26T08:55", 85.0]
["CDISCPILOT01", "LB", "01-701-1097", 269.0, "COLOR", "Color", "URINALYSIS", "N", "", "", "", "N", null, "", null, null, "NORMAL", "", 12.0, "WEEK 24", 168.0, "TREATMENT", "2014-06-18T10:41", 169.0]
["CDISCPILOT01", "LB", "01-701-1097", 304.0, "COLOR", "Color", "URINALYSIS", "N", "", "", "", "N", null, "", null, null, "NORMAL", "", 13.0, "WEEK 26", 182.0, "TREATMENT", "2014-07-09T09:39", 190.0]
["CDISCPILOT01", "LB", "01-701-1097", 20.0, "KETONES", "Ketones", "URINALYSIS", "0", "", "", "", "0", 0.0, "", null, null, "NORMAL", "Y", 1.0, "SCREENING 1", -7.0, "SCREENING", "2013-12-23T12:30", -9.0]
["CDISCPILOT01", "LB", "01-701-1097", 57.0, "KETONES", "Ketones", "URINALYSIS", "0", "", "", "", "0", 0.0, "", null, null, "NORMAL", "", 4.0, "WEEK 2", 14.0, "TREATMENT", "2014-01-15T10:03", 15.0]
["CDISCPILOT01", "LB", "01-701-1097", 182.0, "KETONES", "Ketones", "URINALYSIS", "0", "", "", "", "0", 0.0, "", null, null, "NORMAL", "", 9.0, "WEEK 12", 84.0, "TREATMENT", "2014-03-26T08:55", 85.0]
["CDISCPILOT01", "LB", "01-701-1097", 277.0, "KETONES", "Ketones", "URINALYSIS", "0", "", "", "", "0", 0.0, "", null, null, "NORMAL", "", 12.0, "WEEK 24", 168.0, "TREATMENT", "2014-06-18T10:41", 169.0]
["CDISCPILOT01", "LB", "01-701-1097", 312.0, "KETONES", "Ketones", "URINALYSIS", "0", "", "", "", "0", 0.0, "", null, null, "NORMAL", "", 13.0, "WEEK 26", 182.0, "TREATMENT", "2014-07-09T09:39", 190.0]
["CDISCPILOT01", "LB", "01-701-1097", 27.0, "PH", "pH", "URINALYSIS", "5.0", "", "5", "8", "5", 5.0, "", 5.0, 8.0, "NORMAL", "Y", 1.0, "SCREENING 1", -7.0, "SCREENING", "2013-12-23T12:30", -9.0]
["CDISCPILOT01", "LB", "01-701-1097", 64.0, "PH", "pH", "URINALYSIS", "5.0", "", "5", "8", "5", 5.0, "", 5.0, 8.0, "NORMAL", "", 4.0, "WEEK 2", 14.0, "TREATMENT", "2014-01-15T10:03", 15.0]
["CDISCPILOT01", "LB", "01-701-1097", 189.0, "PH", "pH", "URINALYSIS", "5.0", "", "5", "8", "5", 5.0, "", 5.0, 8.0, "NORMAL", "", 9.0, "WEEK 12", 84.0, "TREATMENT", "2014-03-26T08:55", 85.0]
["CDISCPILOT01", "LB", "01-701-1097", 284.0, "PH", "pH", "URINALYSIS", "5.0", "", "5", "8", "5", 5.0, "", 5.0, 8.0, "NORMAL", "", 12.0, "WEEK 24", 168.0, "TREATMENT", "2014-06-18T10:41", 169.0]
["CDISCPILOT01", "LB", "01-701-1097", 319.0, "PH", "pH", "URINALYSIS", "5.0", "", "5", "8", "5", 5.0, "", 5.0, 8.0, "NORMAL", "", 13.0, "WEEK 26", 182.0, "TREATMENT", "2014-07-09T09:39", 190.0]
["CDISCPILOT01", "LB", "01-701-1097", 32.0, "SPGRAV", "Specific Gravity", "URINALYSIS", "1.019", "", "1.006", "1.03", "1.019", 1.019, "", 1.006, 1.03, "NORMAL", "Y", 1.0, "SCREENING 1", -7.0, "SCREENING", "2013-12-23T12:30", -9.0]
["CDISCPILOT01", "LB", "01-701-1097", 69.0, "SPGRAV", "Specific Gravity", "URINALYSIS", "1.022", "", "1.006", "1.03", "1.022", 1.022, "", 1.006, 1.03, "NORMAL", "", 4.0, "WEEK 2", 14.0, "TREATMENT", "2014-01-15T10:03", 15.0]
["CDISCPILOT01", "LB", "01-701-1097", 194.0, "SPGRAV", "Specific Gravity", "URINALYSIS", "1.026", "", "1.006", "1.03", "1.026", 1.026, "", 1.006, 1.03, "NORMAL", "", 9.0, "WEEK 12", 84.0, "TREATMENT", "2014-03-26T08:55", 85.0]
["CDISCPILOT01", "LB", "01-701-1097", 289.0, "SPGRAV", "Specific Gravity", "URINALYSIS", "1.025", "", "1.006", "1.03", "1.025", 1.025, "", 1.006, 1.03, "NORMAL", "", 12.0, "WEEK 24", 168.0, "TREATMENT", "2014-06-18T10:41", 169.0]
["CDISCPILOT01", "LB", "01-701-1097", 324.0, "SPGRAV", "Specific Gravity", "URINALYSIS", "1.019", "", "1.006", "1.03", "1.019", 1.019, "", 1.006, 1.03, "NORMAL", "", 13.0, "WEEK 26", 182.0, "TREATMENT", "2014-07-09T09:39", 190.0]
["CDISCPILOT01", "LB", "01-701-1097", 33.0, "TSH", "Thyrotropin", "OTHER", "2.75", "mIU/L", "0.32", "5", "2.75", 2.75, "mU/L", 0.32, 5.0, "NORMAL", "Y", 1.0, "SCREENING 1", -7.0, "SCREENING", "2013-12-23T12:30", -9.0]
["CDISCPILOT01", "LB", "01-701-1097", 35.0, "UROBIL", "Urobilinogen", "URINALYSIS", "0", "", "", "", "0", 0.0, "", null, null, "NORMAL", "Y", 1.0, "SCREENING 1", -7.0, "SCREENING", "2013-12-23T12:30", -9.0]
["CDISCPILOT01", "LB", "01-701-1097", 71.0, "UROBIL", "Urobilinogen", "URINALYSIS", "0", "", "", "", "0", 0.0, "", null, null, "NORMAL", "", 4.0, "WEEK 2", 14.0, "TREATMENT", "2014-01-15T10:03", 15.0]
["CDISCPILOT01", "LB", "01-701-1097", 196.0, "UROBIL", "Urobilinogen", "URINALYSIS", "0", "", "", "", "0", 0.0, "", null, null, "NORMAL", "", 9.0, "WEEK 12", 84.0, "TREATMENT", "2014-03-26T08:55", 85.0]
["CDISCPILOT01", "LB", "01-701-1097", 291.0, "UROBIL", "Urobilinogen", "URINALYSIS", "0", "", "", "", "0", 0.0, "", null, null, "NORMAL", "", 12.0, "WEEK 24", 168.0, "TREATMENT", "2014-06-18T10:41", 169.0]
["CDISCPILOT01", "LB", "01-701-1097", 326.0, "UROBIL", "Urobilinogen", "URINALYSIS", "0", "", "", "", "0", 0.0, "", null, null, "NORMAL", "", 13.0, "WEEK 26", 182.0, "TREATMENT", "2014-07-09T09:39", 190.0]
["CDISCPILOT01", "LB", "01-701-1097", 36.0, "VITB12", "Vitamin B12", "OTHER", "411", "ng/L", "200", "900", "303.2358", 303.2358, "pmol/L", 148.0, 664.0, "NORMAL", "Y", 1.0, "SCREENING 1", -7.0, "SCREENING", "2013-12-23T12:30", -9.0]
["CDISCPILOT01", "LB", "01-701-1111", 12.0, "COLOR", "Color", "URINALYSIS", "N", "", "", "", "N", null, "", null, null, "NORMAL", "Y", 1.0, "SCREENING 1", -7.0, "SCREENING", "2012-08-25T15:25", -13.0]
["CDISCPILOT01", "LB", "01-701-1111", 50.0, "COLOR", "Color", "URINALYSIS", "N", "", "", "", "N", null, "", null, null, "NORMAL", "", 4.0, "WEEK 2", 14.0, "TREATMENT", "2012-09-17T11:48", 11.0]
["CDISCPILOT01", "LB", "01-701-1111", 20.0, "KETONES", "Ketones", "URINALYSIS", "0", "", "", "", "0", 0.0, "", null, null, "NORMAL", "Y", 1.0, "SCREENING 1", -7.0, "SCREENING", "2012-08-25T15:25", -13.0]
["CDISCPILOT01", "LB", "01-701-1111", 58.0, "KETONES", "Ketones", "URINALYSIS", "0", "", "", "", "0", 0.0, "", null, null, "NORMAL", "", 4.0, "WEEK 2", 14.0, "TREATMENT", "2012-09-17T11:48", 11.0]
["CDISCPILOT01", "LB", "01-701-1111", 27.0, "PH", "pH", "URINALYSIS", "6.0", "", "5", "8", "6", 6.0, "", 5.0, 8.0, "NORMAL", "Y", 1.0, "SCREENING 1", -7.0, "SCREENING", "2012-08-25T15:25", -13.0]
["CDISCPILOT01", "LB", "01-701-1111", 65.0, "PH", "pH", "URINALYSIS", "5.0", "", "5", "8", "5", 5.0, "", 5.0, 8.0, "NORMAL", "", 4.0, "WEEK 2", 14.0, "TREATMENT", "2012-09-17T11:48", 11.0]
["CDISCPILOT01", "LB", "01-701-1111", 32.0, "SPGRAV", "Specific Gravity", "URINALYSIS", "1.007", "", "1.006", "1.03", "1.007", 1.007, "", 1.006, 1.03, "NORMAL", "Y", 1.0, "SCREENING 1", -7.0, "SCREENING", "2012-08-25T15:25", -13.0]
["CDISCPILOT01", "LB", "01-701-1111", 70.0, "SPGRAV", "Specific Gravity", "URINALYSIS", "1.004", "", "1.006", "1.03", "1.004", 1.004, "", 1.006, 1.03, "LOW", "", 4.0, "WEEK 2", 14.0, "TREATMENT", "2012-09-17T11:48", 11.0]
["CDISCPILOT01", "LB", "01-701-1111", 33.0, "TSH", "Thyrotropin", "OTHER", "1.25", "mIU/L", "0.32", "5", "1.25", 1.25, "mU/L", 0.32, 5.0, "NORMAL", "Y", 1.0, "SCREENING 1", -7.0, "SCREENING", "2012-08-25T15:25", -13.0]
["CDISCPILOT01", "LB", "01-701-1111", 35.0, "UROBIL", "Urobilinogen", "URINALYSIS", "0", "", "", "", "0", 0.0, "", null, null, "NORMAL", "Y", 1.0, "SCREENING 1", -7.0, "SCREENING", "2012-08-25T15:25", -13.0]
["CDISCPILOT01", "LB", "01-701-1111", 72.0, "UROBIL", "Urobilinogen", "URINALYSIS", "0", "", "", "", "0", 0.0, "", null, null, "NORMAL", "", 4.0, "WEEK 2", 14.0, "TREATMENT", "2012-09-17T11:48", 11.0]
["CDISCPILOT01", "LB", "01-701-1111", 36.0, "VITB12", "Vitamin B12", "OTHER", "527", "ng/L", "200", "900", "388.8206", 388.8206, "pmol/L", 148.0, 664.0, "NORMAL", "Y", 1.0, "SCREENING 1", -7.0, "SCREENING", "2012-08-25T15:25", -13.0]
["CDISCPILOT01", "LB", "01-701-1115", 12.0, "COLOR", "Color", "URINALYSIS", "N", "", "", "", "N", null, "", null, null, "NORMAL", "Y", 1.0, "SCREENING 1", -7.0, "SCREENING", "2012-11-23T11:20", -7.0]
["CDISCPILOT01", "LB", "01-701-1115", 49.0, "COLOR", "Color", "URINALYSIS", "N", "", "", "", "N", null, "", null, null, "NORMAL", "", 4.0, "WEEK 2", 14.0, "TREATMENT", "2012-12-13T14:05", 14.0]
["CDISCPILOT01", "LB", "01-701-1115", 159.0, "COLOR", "Color", "URINALYSIS", "N", "", "", "", "N", null, "", null, null, "NORMAL", "", 8.0, "WEEK 8", 56.0, "TREATMENT", "2013-01-23T12:13", 55.0]
["CDISCPILOT01", "LB", "01-701-1115", 20.0, "KETONES", "Ketones", "URINALYSIS", "0", "", "", "", "0", 0.0, "", null, null, "NORMAL", "Y", 1.0, "SCREENING 1", -7.0, "SCREENING", "2012-11-23T11:20", -7.0]
["CDISCPILOT01", "LB", "01-701-1115", 57.0, "KETONES", "Ketones", "URINALYSIS", "0", "", "", "", "0", 0.0, "", null, null, "NORMAL", "", 4.0, "WEEK 2", 14.0, "TREATMENT", "2012-12-13T14:05", 14.0]
["CDISCPILOT01", "LB", "01-701-1115", 167.0, "KETONES", "Ketones", "URINALYSIS", "0", "", "", "", "0", 0.0, "", null, null, "NORMAL", "", 8.0, "WEEK 8", 56.0, "TREATMENT", "2013-01-23T12:13", 55.0]
["CDISCPILOT01", "LB", "01-701-1115", 27.0, "PH", "pH", "URINALYSIS", "5.0", "", "5", "8", "5", 5.0, "", 5.0, 8.0, "NORMAL", "Y", 1.0, "SCREENING 1", -7.0, "SCREENING", "2012-11-23T11:20", -7.0]
["CDISCPILOT01", "LB", "01-701-1115", 64.0, "PH", "pH", "URINALYSIS", "5.0", "", "5", "8", "5", 5.0, "", 5.0, 8.0, "NORMAL", "", 4.0, "WEEK 2", 14.0, "TREATMENT", "2012-12-13T14:05", 14.0]
["CDISCPILOT01", "LB", "01-701-1115", 174.0, "PH", "pH", "URINALYSIS", "5.0", "", "5", "8", "5", 5.0, "", 5.0, 8.0, "NORMAL", "", 8.0, "WEEK 8", 56.0, "TREATMENT", "2013-01-23T12:13", 55.0]
["CDISCPILOT01", "LB", "01-701-1115", 32.0, "SPGRAV", "Specific Gravity", "URINALYSIS", "1.017", "", "1.006", "1.03", "1.017", 1.017, "", 1.006, 1.03, "NORMAL", "Y", 1.0, "SCREENING 1", -7.0, "SCREENING", "2012-11-23T11:20", -7.0]
["CDISCPILOT01", "LB", "01-701-1115", 69.0, "SPGRAV", "Specific Gravity", "URINALYSIS", "1.023", "", "1.006", "1.03", "1.023", 1.023, "", 1.006, 1.03, "NORMAL", "", 4.0, "WEEK 2", 14.0, "TREATMENT", "2012-12-13T14:05", 14.0]
["CDISCPILOT01", "LB", "01-701-1115", 179.0, "SPGRAV", "Specific Gravity", "URINALYSIS", "1.023", "", "1.006", "1.03", "1.023", 1.023, "", 1.006, 1.03, "NORMAL", "", 8.0, "WEEK 8", 56.0, "TREATMENT", "2013-01-23T12:13", 55.0]
["CDISCPILOT01", "LB", "01-701-1115", 33.0, "TSH", "Thyrotropin", "OTHER", "2.63", "mIU/L", "0.32", "5", "2.63", 2.63, "mU/L", 0.32, 5.0, "NORMAL", "Y", 1.0, "SCREENING 1", -7.0, "SCREENING", "2012-11-23T11:20", -7.0]
["CDISCPILOT01", "LB", "01-701-1115", 35.0, "UROBIL", "Urobilinogen", "URINALYSIS", "0", "", "", "", "0", 0.0, "", null, null, "NORMAL", "Y", 1.0, "SCREENING 1", -7.0, "SCREENING", "2012-11-23T11:20", -7.0]
["CDISCPILOT01", "LB", "01-701-1115", 71.0, "UROBIL", "Urobilinogen", "URINALYSIS", "0", "", "", "", "0", 0.0, "", null, null, "NORMAL", "", 4.0, "WEEK 2", 14.0, "TREATMENT", "2012-12-13T14:05", 14.0]
["CDISCPILOT01", "LB", "01-701-1115", 181.0, "UROBIL", "Urobilinogen", "URINALYSIS", "0", "", "", "", "0", 0.0, "", null, null, "NORMAL", "", 8.0, "WEEK 8", 56.0, "TREATMENT", "2013-01-23T12:13", 55.0]
["CDISCPILOT01", "LB", "01-701-1115", 36.0, "VITB12", "Vitamin B12", "OTHER", "641", "ng/L", "200", "900", "472.9298", 472.9298, "pmol/L", 148.0, 664.0, "NORMAL", "Y", 1.0, "SCREENING 1", -7.0, "SCREENING", "2012-11-23T11:20", -7.0]
["CDISCPILOT01", "LB", "01-701-1118", 12.0, "COLOR", "Color", "URINALYSIS", "N", "", "", "", "N", null, "", null, null, "NORMAL", "Y", 1.0, "SCREENING 1", -7.0, "SCREENING", "2014-02-27T10:32", -13.0]
["CDISCPILOT01", "LB", "01-701-1118", 49.0, "COLOR", "Color", "URINALYSIS", "N", "", "", "", "N", null, "", null, null, "NORMAL", "", 4.0, "WEEK 2", 14.0, "TREATMENT", "2014-03-26T10:50", 15.0]
["CDISCPILOT01", "LB", "01-701-1118", 174.0, "COLOR", "Color", "URINALYSIS", "N", "", "", "", "N", null, "", null, null, "NORMAL", "", 9.0, "WEEK 12", 84.0, "TREATMENT", "2014-06-05T08:14", 86.0]
["CDISCPILOT01", "LB", "01-701-1118", 269.0, "COLOR", "Color", "URINALYSIS", "N", "", "", "", "N", null, "", null, null, "NORMAL", "", 12.0, "WEEK 24", 168.0, "TREATMENT", "2014-08-27T11:27", 169.0]
["CDISCPILOT01", "LB", "01-701-1118", 20.0, "KETONES", "Ketones", "URINALYSIS", "0", "", "", "", "0", 0.0, "", null, null, "NORMAL", "Y", 1.0, "SCREENING 1", -7.0, "SCREENING", "2014-02-27T10:32", -13.0]
["CDISCPILOT01", "LB", "01-701-1118", 57.0, "KETONES", "Ketones", "URINALYSIS", "0", "", "", "", "0", 0.0, "", null, null, "NORMAL", "", 4.0, "WEEK 2", 14.0, "TREATMENT", "2014-03-26T10:50", 15.0]
["CDISCPILOT01", "LB", "01-701-1118", 182.0, "KETONES", "Ketones", "URINALYSIS", "0", "", "", "", "0", 0.0, "", null, null, "NORMAL", "", 9.0, "WEEK 12", 84.0, "TREATMENT", "2014-06-05T08:14", 86.0]
["CDISCPILOT01", "LB", "01-701-1118", 277.0, "KETONES", "Ketones", "URINALYSIS", "0", "", "", "", "0", 0.0, "", null, null, "NORMAL", "", 12.0, "WEEK 24", 168.0, "TREATMENT", "2014-08-27T11:27", 169.0]
["CDISCPILOT01", "LB", "01-701-1118", 27.0, "PH", "pH", "URINALYSIS", "6.0", "", "5", "8", "6", 6.0, "", 5.0, 8.0, "NORMAL", "Y", 1.0, "SCREENING 1", -7.0, "SCREENING", "2014-02-27T10:32", -13.0]
["CDISCPILOT01", "LB", "01-701-1118", 64.0, "PH", "pH", "URINALYSIS", "6.0", "", "5", "8", "6", 6.0, "", 5.0, 8.0, "NORMAL", "", 4.0, "WEEK 2", 14.0, "TREATMENT", "2014-03-26T10:50", 15.0]
["CDISCPILOT01", "LB", "01-701-1118", 189.0, "PH", "pH", "URINALYSIS", "5.0", "", "5", "8", "5", 5.0, "", 5.0, 8.0, "NORMAL", "", 9.0, "WEEK 12", 84.0, "TREATMENT", "2014-06-05T08:14", 86.0]
["CDISCPILOT01", "LB", "01-701-1118", 284.0, "PH", "pH", "URINALYSIS", "6.0", "", "5", "8", "6", 6.0, "", 5.0, 8.0, "NORMAL", "", 12.0, "WEEK 24", 168.0, "TREATMENT", "2014-08-27T11:27", 169.0]
["CDISCPILOT01", "LB", "01-701-1118", 32.0, "SPGRAV", "Specific Gravity", "URINALYSIS", "1.030", "", "1.01", "1.034", "1.03", 1.03, "", 1.01, 1.034, "NORMAL", "Y", 1.0, "SCREENING 1", -7.0, "SCREENING", "2014-02-27T10:32", -13.0]
["CDISCPILOT01", "LB", "01-701-1118", 69.0, "SPGRAV", "Specific Gravity", "URINALYSIS", "1.033", "", "1.01", "1.034", "1.033", 1.033, "", 1.01, 1.034, "NORMAL", "", 4.0, "WEEK 2", 14.0, "TREATMENT", "2014-03-26T10:50", 15.0]
["CDISCPILOT01", "LB", "01-701-1118", 194.0, "SPGRAV", "Specific Gravity", "URINALYSIS", "1.030", "", "1.01", "1.034", "1.03", 1.03, "", 1.01, 1.034, "NORMAL", "", 9.0, "WEEK 12", 84.0, "TREATMENT", "2014-06-05T08:14", 86.0]
["CDISCPILOT01", "LB", "01-701-1118", 289.0, "SPGRAV", "Specific Gravity", "URINALYSIS", "1.026", "", "1.01", "1.034", "1.026", 1.026, "", 1.01, 1.034, "NORMAL", "", 12.0, "WEEK 24", 168.0, "TREATMENT", "2014-08-27T11:27", 169.0]
["CDISCPILOT01", "LB", "01-701-1118", 33.0, "TSH", "Thyrotropin", "OTHER", "1.85", "mIU/L", "0.32", "5", "1.85", 1.85, "mU/L", 0.32, 5.0, "NORMAL", "Y", 1.0, "SCREENING 1", -7.0, "SCREENING", "2014-02-27T10:32", -13.0]
["CDISCPILOT01", "LB", "01-701-1118", 35.0, "UROBIL", "Urobilinogen", "URINALYSIS", "0", "", "", "", "0", 0.0, "", null, null, "NORMAL", "Y", 1.0, "SCREENING 1", -7.0, "SCREENING", "2014-02-27T10:32", -13.0]
["CDISCPILOT01", "LB", "01-701-1118", 71.0, "UROBIL", "Urobilinogen", "URINALYSIS", "0", "", "", "", "0", 0.0, "", null, null, "NORMAL", "", 4.0, "WEEK 2", 14.0, "TREATMENT", "2014-03-26T10:50", 15.0]
["CDISCPILOT01", "LB", "01-701-1118", 196.0, "UROBIL", "Urobilinogen", "URINALYSIS", "0", "", "", "", "0", 0.0, "", null, null, "NORMAL", "", 9.0, "WEEK 12", 84.0, "TREATMENT", "2014-06-05T08:14", 86.0]
["CDISCPILOT01", "LB", "01-701-1118", 291.0, "UROBIL", "Urobilinogen", "URINALYSIS", "0", "", "", "", "0", 0.0, "", null, null, "NORMAL", "", 12.0, "WEEK 24", 168.0, "TREATMENT", "2014-08-27T11:27", 169.0]
["CDISCPILOT01", "LB", "01-701-1118", 36.0, "VITB12", "Vitamin B12", "OTHER", "289", "ng/L", "200", "900", "213.2242", 213.2242, "pmol/L", 148.0, 664.0, "NORMAL", "Y", 1.0, "SCREENING 1", -7.0, "SCREENING", "2014-02-27T10:32", -13.0]
["CDISCPILOT01", "LB", "01-701-1130", 12.0, "COLOR", "Color", "URINALYSIS", "N", "", "", "", "N", null, "", null, null, "NORMAL", "Y", 1.0, "SCREENING 1", -7.0, "SCREENING", "2014-02-09T12:01", -6.0]
["CDISCPILOT01", "LB", "01-701-1130", 49.0, "COLOR", "Color", "URINALYSIS", "N", "", "", "", "N", null, "", null, null, "NORMAL", "", 4.0, "WEEK 2", 14.0, "TREATMENT", "2014-03-01T08:30", 15.0]
["CDISCPILOT01", "LB", "01-701-1130", 174.0, "COLOR", "Color", "URINALYSIS", "N", "", "", "", "N", null, "", null, null, "NORMAL", "", 9.0, "WEEK 12", 84.0, "TREATMENT", "2014-05-16T11:37", 91.0]
["CDISCPILOT01", "LB", "01-701-1130", 269.0, "COLOR", "Color", "URINALYSIS", "N", "", "", "", "N", null, "", null, null, "NORMAL", "", 12.0, "WEEK 24", 168.0, "TREATMENT", "2014-08-02T13:50", 169.0]
["CDISCPILOT01", "LB", "01-701-1130", 20.0, "KETONES", "Ketones", "URINALYSIS", "0", "", "", "", "0", 0.0, "", null, null, "NORMAL", "Y", 1.0, "SCREENING 1", -7.0, "SCREENING", "2014-02-09T12:01", -6.0]
["CDISCPILOT01", "LB", "01-701-1130", 57.0, "KETONES", "Ketones", "URINALYSIS", "0", "", "", "", "0", 0.0, "", null, null, "NORMAL", "", 4.0, "WEEK 2", 14.0, "TREATMENT", "2014-03-01T08:30", 15.0]
["CDISCPILOT01", "LB", "01-701-1130", 182.0, "KETONES", "Ketones", "URINALYSIS", "0", "", "", "", "0", 0.0, "", null, null, "NORMAL", "", 9.0, "WEEK 12", 84.0, "TREATMENT", "2014-05-16T11:37", 91.0]
["CDISCPILOT01", "LB", "01-701-1130", 277.0, "KETONES", "Ketones", "URINALYSIS", "0", "", "", "", "0", 0.0, "", null, null, "NORMAL", "", 12.0, "WEEK 24", 168.0, "TREATMENT", "2014-08-02T13:50", 169.0]
["CDISCPILOT01", "LB", "01-701-1130", 27.0, "PH", "pH", "URINALYSIS", "5.0", "", "5", "8", "5", 5.0, "", 5.0, 8.0, "NORMAL", "Y", 1.0, "SCREENING 1", -7.0, "SCREENING", "2014-02-09T12:01", -6.0]
["CDISCPILOT01", "LB", "01-701-1130", 64.0, "PH", "pH", "URINALYSIS", "5.0", "", "5", "8", "5", 5.0, "", 5.0, 8.0, "NORMAL", "", 4.0, "WEEK 2", 14.0, "TREATMENT", "2014-03-01T08:30", 15.0]
["CDISCPILOT01", "LB", "01-701-1130", 189.0, "PH", "pH", "URINALYSIS", "5.0", "", "5", "8", "5", 5.0, "", 5.0, 8.0, "NORMAL", "", 9.0, "WEEK 12", 84.0, "TREATMENT", "2014-05-16T11:37", 91.0]
["CDISCPILOT01", "LB", "01-701-1130", 284.0, "PH", "pH", "URINALYSIS", "6.0", "", "5", "8", "6", 6.0, "", 5.0, 8.0, "NORMAL", "", 12.0, "WEEK 24", 168.0, "TREATMENT", "2014-08-02T13:50", 169.0]
["CDISCPILOT01", "LB", "01-701-1130", 32.0, "SPGRAV", "Specific Gravity", "URINALYSIS", "1.018", "", "1.006", "1.03", "1.018", 1.018, "", 1.006, 1.03, "NORMAL", "Y", 1.0, "SCREENING 1", -7.0, "SCREENING", "2014-02-09T12:01", -6.0]
["CDISCPILOT01", "LB", "01-701-1130", 69.0, "SPGRAV", "Specific Gravity", "URINALYSIS", "1.018", "", "1.006", "1.03", "1.018", 1.018, "", 1.006, 1.03, "NORMAL", "", 4.0, "WEEK 2", 14.0, "TREATMENT", "2014-03-01T08:30", 15.0]
["CDISCPILOT01", "LB", "01-701-1130", 194.0, "SPGRAV", "Specific Gravity", "URINALYSIS", "1.016", "", "1.006", "1.03", "1.016", 1.016, "", 1.006, 1.03, "NORMAL", "", 9.0, "WEEK 12", 84.0, "TREATMENT", "2014-05-16T11:37", 91.0]
["CDISCPILOT01", "LB", "01-701-1130", 289.0, "SPGRAV", "Specific Gravity", "URINALYSIS", "1.016", "", "1.006", "1.03", "1.016", 1.016, "", 1.006, 1.03, "NORMAL", "", 12.0, "WEEK 24", 168.0, "TREATMENT", "2014-08-02T13:50", 169.0]
["CDISCPILOT01", "LB", "01-701-1130", 33.0, "TSH", "Thyrotropin", "OTHER", "3.59", "mIU/L", "0.32", "5", "3.59", 3.59, "mU/L", 0.32, 5.0, "NORMAL", "Y", 1.0, "SCREENING 1", -7.0, "SCREENING", "2014-02-09T12:01", -6.0]
["CDISCPILOT01", "LB", "01-701-1130", 35.0, "UROBIL", "Urobilinogen", "URINALYSIS", "0", "", "", "", "0", 0.0, "", null, null, "NORMAL", "Y", 1.0, "SCREENING 1", -7.0, "SCREENING", "2014-02-09T12:01", -6.0]
["CDISCPILOT01", "LB", "01-701-1130", 71.0, "UROBIL", "Urobilinogen", "URINALYSIS", "0", "", "", "", "0", 0.0, "", null, null, "NORMAL", "", 4.0, "WEEK 2", 14.0, "TREATMENT", "2014-03-01T08:30", 15.0]
["CDISCPILOT01", "LB", "01-701-1130", 196.0, "UROBIL", "Urobilinogen", "URINALYSIS", "0", "", "", "", "0", 0.0, "", null, null, "NORMAL", "", 9.0, "WEEK 12", 84.0, "TREATMENT", "2014-05-16T11:37", 91.0]
["CDISCPILOT01", "LB", "01-701-1130", 291.0, "UROBIL", "Urobilinogen", "URINALYSIS", "0", "", "", "", "0", 0.0, "", null, null, "NORMAL", "", 12.0, "WEEK 24", 168.0, "TREATMENT", "2014-08-02T13:50", 169.0]
["CDISCPILOT01", "LB", "01-701-1130", 36.0, "VITB12", "Vitamin B12", "OTHER", "355", "ng/L", "200", "900", "261.919", 261.919, "pmol/L", 148.0, 664.0, "NORMAL", "Y", 1.0, "SCREENING 1", -7.0, "SCREENING", "2014-02-09T12:01", -6.0]
["CDISCPILOT01", "LB", "01-701-1133", 12.0, "COLOR", "Color", "URINALYSIS", "N", "", "", "", "N", null, "", null, null, "NORMAL", "Y", 1.0, "SCREENING 1", -7.0, "SCREENING", "2012-10-23T10:57", -5.0]
["CDISCPILOT01", "LB", "01-701-1133", 39.0, "COLOR", "Color", "URINALYSIS", "N", "", "", "", "N", null, "", null, null, "NORMAL", "", 4.0, "WEEK 2", 14.0, "TREATMENT", "2012-11-12T10:15", 16.0]
["CDISCPILOT01", "LB", "01-701-1133", 156.0, "COLOR", "Color", "URINALYSIS", "N", "", "", "", "N", null, "", null, null, "NORMAL", "", 9.0, "WEEK 12", 84.0, "TREATMENT", "2013-01-22T14:05", 87.0]
["CDISCPILOT01", "LB", "01-701-1133", 251.0, "COLOR", "Color", "URINALYSIS", "N", "", "", "", "N", null, "", null, null, "NORMAL", "", 12.0, "WEEK 24", 168.0, "TREATMENT", "2013-04-18T15:30", 173.0]
["CDISCPILOT01", "LB", "01-701-1133", 20.0, "KETONES", "Ketones", "URINALYSIS", "0", "", "", "", "0", 0.0, "", null, null, "NORMAL", "Y", 1.0, "SCREENING 1", -7.0, "SCREENING", "2012-10-23T10:57", -5.0]
["CDISCPILOT01", "LB", "01-701-1133", 43.0, "KETONES", "Ketones", "URINALYSIS", "0", "", "", "", "0", 0.0, "", null, null, "NORMAL", "", 4.0, "WEEK 2", 14.0, "TREATMENT", "2012-11-12T10:15", 16.0]
["CDISCPILOT01", "LB", "01-701-1133", 164.0, "KETONES", "Ketones", "URINALYSIS", "0", "", "", "", "0", 0.0, "", null, null, "NORMAL", "", 9.0, "WEEK 12", 84.0, "TREATMENT", "2013-01-22T14:05", 87.0]
["CDISCPILOT01", "LB", "01-701-1133", 259.0, "KETONES", "Ketones", "URINALYSIS", "0", "", "", "", "0", 0.0, "", null, null, "NORMAL", "", 12.0, "WEEK 24", 168.0, "TREATMENT", "2013-04-18T15:30", 173.0]
["CDISCPILOT01", "LB", "01-701-1133", 27.0, "PH", "pH", "URINALYSIS", "5.0", "", "5", "8", "5", 5.0, "", 5.0, 8.0, "NORMAL", "Y", 1.0, "SCREENING 1", -7.0, "SCREENING", "2012-10-23T10:57", -5.0]
["CDISCPILOT01", "LB", "01-701-1133", 49.0, "PH", "pH", "URINALYSIS", "5.0", "", "5", "8", "5", 5.0, "", 5.0, 8.0, "NORMAL", "", 4.0, "WEEK 2", 14.0, "TREATMENT", "2012-11-12T10:15", 16.0]
["CDISCPILOT01", "LB", "01-701-1133", 171.0, "PH", "pH", "URINALYSIS", "5.0", "", "5", "8", "5", 5.0, "", 5.0, 8.0, "NORMAL", "", 9.0, "WEEK 12", 84.0, "TREATMENT", "2013-01-22T14:05", 87.0]
["CDISCPILOT01", "LB", "01-701-1133", 266.0, "PH", "pH", "URINALYSIS", "6.0", "", "5", "8", "6", 6.0, "", 5.0, 8.0, "NORMAL", "", 12.0, "WEEK 24", 168.0, "TREATMENT", "2013-04-18T15:30", 173.0]
["CDISCPILOT01", "LB", "01-701-1133", 32.0, "SPGRAV", "Specific Gravity", "URINALYSIS", "1.011", "", "1.006", "1.03", "1.011", 1.011, "", 1.006, 1.03, "NORMAL", "Y", 1.0, "SCREENING 1", -7.0, "SCREENING", "2012-10-23T10:57", -5.0]
["CDISCPILOT01", "LB", "01-701-1133", 52.0, "SPGRAV", "Specific Gravity", "URINALYSIS", "1.023", "", "1.006", "1.03", "1.023", 1.023, "", 1.006, 1.03, "NORMAL", "", 4.0, "WEEK 2", 14.0, "TREATMENT", "2012-11-12T10:15", 16.0]
["CDISCPILOT01", "LB", "01-701-1133", 176.0, "SPGRAV", "Specific Gravity", "URINALYSIS", "1.030", "", "1.006", "1.03", "1.03", 1.03, "", 1.006, 1.03, "NORMAL", "", 9.0, "WEEK 12", 84.0, "TREATMENT", "2013-01-22T14:05", 87.0]
["CDISCPILOT01", "LB", "01-701-1133", 271.0, "SPGRAV", "Specific Gravity", "URINALYSIS", "1.029", "", "1.006", "1.03", "1.029", 1.029, "", 1.006, 1.03, "NORMAL", "", 12.0, "WEEK 24", 168.0, "TREATMENT", "2013-04-18T15:30", 173.0]
["CDISCPILOT01", "LB", "01-701-1133", 33.0, "TSH", "Thyrotropin", "OTHER", "1.09", "mIU/L", "0.32", "5", "1.09", 1.09, "mU/L", 0.32, 5.0, "NORMAL", "Y", 1.0, "SCREENING 1", -7.0, "SCREENING", "2012-10-23T10:57", -5.0]
["CDISCPILOT01", "LB", "01-701-1133", 35.0, "UROBIL", "Urobilinogen", "URINALYSIS", "0", "", "", "", "0", 0.0, "", null, null, "NORMAL", "Y", 1.0, "SCREENING 1", -7.0, "SCREENING", "2012-10-23T10:57", -5.0]
["CDISCPILOT01", "LB", "01-701-1133", 53.0, "UROBIL", "Urobilinogen", "URINALYSIS", "0", "", "", "", "0", 0.0, "", null, null, "NORMAL", "", 4.0, "WEEK 2", 14.0, "TREATMENT", "2012-11-12T10:15", 16.0]
["CDISCPILOT01", "LB", "01-701-1133", 178.0, "UROBIL", "Urobilinogen", "URINALYSIS", "0", "", "", "", "0", 0.0, "", null, null, "NORMAL", "", 9.0, "WEEK 12", 84.0, "TREATMENT", "2013-01-22T14:05", 87.0]
["CDISCPILOT01", "LB", "01-701-1133", 273.0, "UROBIL", "Urobilinogen", "URINALYSIS", "0", "", "", "", "0", 0.0, "", null, null, "NORMAL", "", 12.0, "WEEK 24", 168.0, "TREATMENT", "2013-04-18T15:30", 173.0]
["CDISCPILOT01", "LB", "01-701-1133", 36.0, "VITB12", "Vitamin B12", "OTHER", "288", "ng/L", "200", "900", "212.4864", 212.48639999999997, "pmol/L", 148.0, 664.0, "NORMAL", "Y", 1.0, "SCREENING 1", -7.0, "SCREENING", "2012-10-23T10:57", -5.0]
["CDISCPILOT01", "LB", "01-701-1146", 12.0, "COLOR", "Color", "URINALYSIS", "N", "", "", "", "N", null, "", null, null, "NORMAL", "Y", 1.0, "SCREENING 1", -7.0, "SCREENING", "2013-05-07T13:52", -13.0]
["CDISCPILOT01", "LB", "01-701-1146", 49.0, "COLOR", "Color", "URINALYSIS", "N", "", "", "", "N", null, "", null, null, "NORMAL", "", 4.0, "WEEK 2", 14.0, "TREATMENT", "2013-06-03T13:16", 15.0]
["CDISCPILOT01", "LB", "01-701-1146", 114.0, "COLOR", "Color", "URINALYSIS", "N", "", "", "", "N", null, "", null, null, "NORMAL", "", 7.0, "WEEK 6", 42.0, "TREATMENT", "2013-06-30T11:44", 42.0]
["CDISCPILOT01", "LB", "01-701-1146", 20.0, "KETONES", "Ketones", "URINALYSIS", "0", "", "", "", "0", 0.0, "", null, null, "NORMAL", "Y", 1.0, "SCREENING 1", -7.0, "SCREENING", "2013-05-07T13:52", -13.0]
["CDISCPILOT01", "LB", "01-701-1146", 57.0, "KETONES", "Ketones", "URINALYSIS", "0", "", "", "", "0", 0.0, "", null, null, "NORMAL", "", 4.0, "WEEK 2", 14.0, "TREATMENT", "2013-06-03T13:16", 15.0]
["CDISCPILOT01", "LB", "01-701-1146", 122.0, "KETONES", "Ketones", "URINALYSIS", "0", "", "", "", "0", 0.0, "", null, null, "NORMAL", "", 7.0, "WEEK 6", 42.0, "TREATMENT", "2013-06-30T11:44", 42.0]
["CDISCPILOT01", "LB", "01-701-1146", 27.0, "PH", "pH", "URINALYSIS", "5.0", "", "5", "8", "5", 5.0, "", 5.0, 8.0, "NORMAL", "Y", 1.0, "SCREENING 1", -7.0, "SCREENING", "2013-05-07T13:52", -13.0]
["CDISCPILOT01", "LB", "01-701-1146", 64.0, "PH", "pH", "URINALYSIS", "5.0", "", "5", "8", "5", 5.0, "", 5.0, 8.0, "NORMAL", "", 4.0, "WEEK 2", 14.0, "TREATMENT", "2013-06-03T13:16", 15.0]
["CDISCPILOT01", "LB", "01-701-1146", 129.0, "PH", "pH", "URINALYSIS", "5.0", "", "5", "8", "5", 5.0, "", 5.0, 8.0, "NORMAL", "", 7.0, "WEEK 6", 42.0, "TREATMENT", "2013-06-30T11:44", 42.0]
["CDISCPILOT01", "LB", "01-701-1146", 32.0, "SPGRAV", "Specific Gravity", "URINALYSIS", "1.008", "", "1.006", "1.03", "1.008", 1.008, "", 1.006, 1.03, "NORMAL", "Y", 1.0, "SCREENING 1", -7.0, "SCREENING", "2013-05-07T13:52", -13.0]
["CDISCPILOT01", "LB", "01-701-1146", 69.0, "SPGRAV", "Specific Gravity", "URINALYSIS", "1.011", "", "1.006", "1.03", "1.011", 1.011, "", 1.006, 1.03, "NORMAL", "", 4.0, "WEEK 2", 14.0, "TREATMENT", "2013-06-03T13:16", 15.0]
["CDISCPILOT01", "LB", "01-701-1146", 134.0, "SPGRAV", "Specific Gravity", "URINALYSIS", "1.014", "", "1.006", "1.03", "1.014", 1.014, "", 1.006, 1.03, "NORMAL", "", 7.0, "WEEK 6", 42.0, "TREATMENT", "2013-06-30T11:44", 42.0]
["CDISCPILOT01", "LB", "01-701-1146", 33.0, "TSH", "Thyrotropin", "OTHER", "1.98", "mIU/L", "0.32", "5", "1.98", 1.98, "mU/L", 0.32, 5.0, "NORMAL", "Y", 1.0, "SCREENING 1", -7.0, "SCREENING", "2013-05-07T13:52", -13.0]
["CDISCPILOT01", "LB", "01-701-1146", 35.0, "UROBIL", "Urobilinogen", "URINALYSIS", "0", "", "", "", "0", 0.0, "", null, null, "NORMAL", "Y", 1.0, "SCREENING 1", -7.0, "SCREENING", "2013-05-07T13:52", -13.0]
["CDISCPILOT01", "LB", "01-701-1146", 71.0, "UROBIL", "Urobilinogen", "URINALYSIS", "0", "", "", "", "0", 0.0, "", null, null, "NORMAL", "", 4.0, "WEEK 2", 14.0, "TREATMENT", "2013-06-03T13:16", 15.0]
["CDISCPILOT01", "LB", "01-701-1146", 136.0, "UROBIL", "Urobilinogen", "URINALYSIS", "0", "", "", "", "0", 0.0, "", null, null, "NORMAL", "", 7.0, "WEEK 6", 42.0, "TREATMENT", "2013-06-30T11:44", 42.0]
["CDISCPILOT01", "LB", "01-701-1146", 36.0, "VITB12", "Vitamin B12", "OTHER", "381", "ng/L", "200", "900", "281.1018", 281.1018, "pmol/L", 148.0, 664.0, "NORMAL", "Y", 1.0, "SCREENING 1", -7.0, "SCREENING", "2013-05-07T13:52", -13.0]
["CDISCPILOT01", "LB", "01-701-1148", 12.0, "COLOR", "Color", "URINALYSIS", "N", "", "", "", "N", null, "", null, null, "NORMAL", "Y", 1.0, "SCREENING 1", -7.0, "SCREENING", "2013-08-14T13:04", -9.0]
["CDISCPILOT01", "LB", "01-701-1148", 49.0, "COLOR", "Color", "URINALYSIS", "N", "", "", "", "N", null, "", null, null, "NORMAL", "", 4.0, "WEEK 2", 14.0, "TREATMENT", "2013-09-05T15:43", 14.0]
["CDISCPILOT01", "LB", "01-701-1148", 174.0, "COLOR", "Color", "URINALYSIS", "N", "", "", "", "N", null, "", null, null, "NORMAL", "", 9.0, "WEEK 12", 84.0, "TREATMENT", "2013-11-17T10:59", 87.0]
["CDISCPILOT01", "LB", "01-701-1148", 269.0, "COLOR", "Color", "URINALYSIS", "N", "", "", "", "N", null, "", null, null, "NORMAL", "", 12.0, "WEEK 24", 168.0, "TREATMENT", "2014-02-08T14:40", 170.0]
["CDISCPILOT01", "LB", "01-701-1148", 20.0, "KETONES", "Ketones", "URINALYSIS", "0", "", "", "", "0", 0.0, "", null, null, "NORMAL", "Y", 1.0, "SCREENING 1", -7.0, "SCREENING", "2013-08-14T13:04", -9.0]
["CDISCPILOT01", "LB", "01-701-1148", 57.0, "KETONES", "Ketones", "URINALYSIS", "0", "", "", "", "0", 0.0, "", null, null, "NORMAL", "", 4.0, "WEEK 2", 14.0, "TREATMENT", "2013-09-05T15:43", 14.0]
["CDISCPILOT01", "LB", "01-701-1148", 182.0, "KETONES", "Ketones", "URINALYSIS", "0", "", "", "", "0", 0.0, "", null, null, "NORMAL", "", 9.0, "WEEK 12", 84.0, "TREATMENT", "2013-11-17T10:59", 87.0]
["CDISCPILOT01", "LB", "01-701-1148", 277.0, "KETONES", "Ketones", "URINALYSIS", "0", "", "", "", "0", 0.0, "", null, null, "NORMAL", "", 12.0, "WEEK 24", 168.0, "TREATMENT", "2014-02-08T14:40", 170.0]
["CDISCPILOT01", "LB", "01-701-1148", 27.0, "PH", "pH", "URINALYSIS", "5.0", "", "5", "8", "5", 5.0, "", 5.0, 8.0, "NORMAL", "Y", 1.0, "SCREENING 1", -7.0, "SCREENING", "2013-08-14T13:04", -9.0]
["CDISCPILOT01", "LB", "01-701-1148", 64.0, "PH", "pH", "URINALYSIS", "7.0", "", "5", "8", "7", 7.0, "", 5.0, 8.0, "NORMAL", "", 4.0, "WEEK 2", 14.0, "TREATMENT", "2013-09-05T15:43", 14.0]
["CDISCPILOT01", "LB", "01-701-1148", 189.0, "PH", "pH", "URINALYSIS", "5.0", "", "5", "8", "5", 5.0, "", 5.0, 8.0, "NORMAL", "", 9.0, "WEEK 12", 84.0, "TREATMENT", "2013-11-17T10:59", 87.0]
["CDISCPILOT01", "LB", "01-701-1148", 284.0, "PH", "pH", "URINALYSIS", "5.0", "", "5", "8", "5", 5.0, "", 5.0, 8.0, "NORMAL", "", 12.0, "WEEK 24", 168.0, "TREATMENT", "2014-02-08T14:40", 170.0]
["CDISCPILOT01", "LB", "01-701-1148", 32.0, "SPGRAV", "Specific Gravity", "URINALYSIS", "1.026", "", "1.01", "1.034", "1.026", 1.026, "", 1.01, 1.034, "NORMAL", "Y", 1.0, "SCREENING 1", -7.0, "SCREENING", "2013-08-14T13:04", -9.0]
["CDISCPILOT01", "LB", "01-701-1148", 69.0, "SPGRAV", "Specific Gravity", "URINALYSIS", "1.016", "", "1.01", "1.034", "1.016", 1.016, "", 1.01, 1.034, "NORMAL", "", 4.0, "WEEK 2", 14.0, "TREATMENT", "2013-09-05T15:43", 14.0]
["CDISCPILOT01", "LB", "01-701-1148", 194.0, "SPGRAV", "Specific Gravity", "URINALYSIS", "1.017", "", "1.01", "1.034", "1.017", 1.017, "", 1.01, 1.034, "NORMAL", "", 9.0, "WEEK 12", 84.0, "TREATMENT", "2013-11-17T10:59", 87.0]
["CDISCPILOT01", "LB", "01-701-1148", 289.0, "SPGRAV", "Specific Gravity", "URINALYSIS", "1.020", "", "1.01", "1.034", "1.02", 1.02, "", 1.01, 1.034, "NORMAL", "", 12.0, "WEEK 24", 168.0, "TREATMENT", "2014-02-08T14:40", 170.0]
["CDISCPILOT01", "LB", "01-701-1148", 33.0, "TSH", "Thyrotropin", "OTHER", "1.81", "mIU/L", "0.32", "5", "1.81", 1.81, "mU/L", 0.32, 5.0, "NORMAL", "Y", 1.0, "SCREENING 1", -7.0, "SCREENING", "2013-08-14T13:04", -9.0]
["CDISCPILOT01", "LB", "01-701-1148", 35.0, "UROBIL", "Urobilinogen", "URINALYSIS", "0", "", "", "", "0", 0.0, "", null, null, "NORMAL", "Y", 1.0, "SCREENING 1", -7.0, "SCREENING", "2013-08-14T13:04", -9.0]
["CDISCPILOT01", "LB", "01-701-1148", 71.0, "UROBIL", "Urobilinogen", "URINALYSIS", "0", "", "", "", "0", 0.0, "", null, null, "NORMAL", "", 4.0, "WEEK 2", 14.0, "TREATMENT", "2013-09-05T15:43", 14.0]
["CDISCPILOT01", "LB", "01-701-1148", 196.0, "UROBIL", "Urobilinogen", "URINALYSIS", "0", "", "", "", "0", 0.0, "", null, null, "NORMAL", "", 9.0, "WEEK 12", 84.0, "TREATMENT", "2013-11-17T10:59", 87.0]
["CDISCPILOT01", "LB", "01-701-1148", 291.0, "UROBIL", "Urobilinogen", "URINALYSIS", "0", "", "", "", "0", 0.0, "", null, null, "NORMAL", "", 12.0, "WEEK 24", 168.0, "TREATMENT", "2014-02-08T14:40", 170.0]
["CDISCPILOT01", "LB", "01-701-1148", 36.0, "VITB12", "Vitamin B12", "OTHER", "500", "ng/L", "200", "900", "368.9", 368.9, "pmol/L", 148.0, 664.0, "NORMAL", "Y", 1.0, "SCREENING 1", -7.0, "SCREENING", "2013-08-14T13:04", -9.0]
["CDISCPILOT01", "LB", "01-701-1153", 12.0, "COLOR", "Color", "URINALYSIS", "N", "", "", "", "N", null, "", null, null, "NORMAL", "Y", 1.0, "SCREENING 1", -7.0, "SCREENING", "2013-09-06T14:50", -17.0]
["CDISCPILOT01", "LB", "01-701-1153", 49.0, "COLOR", "Color", "URINALYSIS", "N", "", "", "", "N", null, "", null, null, "NORMAL", "", 4.0, "WEEK 2", 14.0, "TREATMENT", "2013-10-08T11:00", 16.0]
["CDISCPILOT01", "LB", "01-701-1153", 103.0, "COLOR", "Color", "URINALYSIS", "N", "", "", "", "N", null, "", null, null, "NORMAL", "", 5.1, "UNSCHEDULED 5.1", null, "TREATMENT", "2013-10-19T12:22", 27.0]
["CDISCPILOT01", "LB", "01-701-1153", 179.0, "COLOR", "Color", "URINALYSIS", "N", "", "", "", "N", null, "", null, null, "NORMAL", "", 9.0, "WEEK 12", 84.0, "TREATMENT", "2013-12-16T15:22", 85.0]
["CDISCPILOT01", "LB", "01-701-1153", 203.0, "COLOR", "Color", "URINALYSIS", "N", "", "", "", "N", null, "", null, null, "NORMAL", "", 9.2, "UNSCHEDULED 9.2", null, "TREATMENT", "2013-12-18T06:30", 87.0]
["CDISCPILOT01", "LB", "01-701-1153", 208.0, "COLOR", "Color", "URINALYSIS", "N", "", "", "", "N", null, "", null, null, "NORMAL", "", 9.299999999999999, "UNSCHEDULED 9.3", null, "TREATMENT", "2014-01-08T11:05", 108.0]
["CDISCPILOT01", "LB", "01-701-1153", 284.0, "COLOR", "Color", "URINALYSIS", "N", "", "", "", "N", null, "", null, null, "NORMAL", "", 12.0, "WEEK 24", 168.0, "TREATMENT", "2014-03-11T11:58", 170.0]
["CDISCPILOT01", "LB", "01-701-1153", 20.0, "KETONES", "Ketones", "URINALYSIS", "0", "", "", "", "0", 0.0, "", null, null, "NORMAL", "Y", 1.0, "SCREENING 1", -7.0, "SCREENING", "2013-09-06T14:50", -17.0]
["CDISCPILOT01", "LB", "01-701-1153", 57.0, "KETONES", "Ketones", "URINALYSIS", "0", "", "", "", "0", 0.0, "", null, null, "NORMAL", "", 4.0, "WEEK 2", 14.0, "TREATMENT", "2013-10-08T11:00", 16.0]
["CDISCPILOT01", "LB", "01-701-1153", 104.0, "KETONES", "Ketones", "URINALYSIS", "0", "", "", "", "0", 0.0, "", null, null, "NORMAL", "", 5.1, "UNSCHEDULED 5.1", null, "TREATMENT", "2013-10-19T12:22", 27.0]
["CDISCPILOT01", "LB", "01-701-1153", 187.0, "KETONES", "Ketones", "URINALYSIS", "1", "", "", "", "1", 1.0, "", null, null, "ABNORMAL", "", 9.0, "WEEK 12", 84.0, "TREATMENT", "2013-12-16T15:22", 85.0]
["CDISCPILOT01", "LB", "01-701-1153", 204.0, "KETONES", "Ketones", "URINALYSIS", "0", "", "", "", "0", 0.0, "", null, null, "NORMAL", "", 9.2, "UNSCHEDULED 9.2", null, "TREATMENT", "2013-12-18T06:30", 87.0]
["CDISCPILOT01", "LB", "01-701-1153", 209.0, "KETONES", "Ketones", "URINALYSIS", "0", "", "", "", "0", 0.0, "", null, null, "NORMAL", "", 9.299999999999999, "UNSCHEDULED 9.3", null, "TREATMENT", "2014-01-08T11:05", 108.0]
["CDISCPILOT01", "LB", "01-701-1153", 292.0, "KETONES", "Ketones", "URINALYSIS", "0", "", "", "", "0", 0.0, "", null, null, "NORMAL", "", 12.0, "WEEK 24", 168.0, "TREATMENT", "2014-03-11T11:58", 170.0]
["CDISCPILOT01", "LB", "01-701-1153", 27.0, "PH", "pH", "URINALYSIS", "5.0", "", "5", "8", "5", 5.0, "", 5.0, 8.0, "NORMAL", "Y", 1.0, "SCREENING 1", -7.0, "SCREENING", "2013-09-06T14:50", -17.0]
["CDISCPILOT01", "LB", "01-701-1153", 64.0, "PH", "pH", "URINALYSIS", "5.0", "", "5", "8", "5", 5.0, "", 5.0, 8.0, "NORMAL", "", 4.0, "WEEK 2", 14.0, "TREATMENT", "2013-10-08T11:00", 16.0]
["CDISCPILOT01", "LB", "01-701-1153", 105.0, "PH", "pH", "URINALYSIS", "5.0", "", "5", "8", "5", 5.0, "", 5.0, 8.0, "NORMAL", "", 5.1, "UNSCHEDULED 5.1", null, "TREATMENT", "2013-10-19T12:22", 27.0]
["CDISCPILOT01", "LB", "01-701-1153", 194.0, "PH", "pH", "URINALYSIS", "5.0", "", "5", "8", "5", 5.0, "", 5.0, 8.0, "NORMAL", "", 9.0, "WEEK 12", 84.0, "TREATMENT", "2013-12-16T15:22", 85.0]
["CDISCPILOT01", "LB", "01-701-1153", 205.0, "PH", "pH", "URINALYSIS", "5.0", "", "5", "8", "5", 5.0, "", 5.0, 8.0, "NORMAL", "", 9.2, "UNSCHEDULED 9.2", null, "TREATMENT", "2013-12-18T06:30", 87.0]
["CDISCPILOT01", "LB", "01-701-1153", 210.0, "PH", "pH", "URINALYSIS", "7.0", "", "5", "8", "7", 7.0, "", 5.0, 8.0, "NORMAL", "", 9.299999999999999, "UNSCHEDULED 9.3", null, "TREATMENT", "2014-01-08T11:05", 108.0]
["CDISCPILOT01", "LB", "01-701-1153", 299.0, "PH", "pH", "URINALYSIS", "7.0", "", "5", "8", "7", 7.0, "", 5.0, 8.0, "NORMAL", "", 12.0, "WEEK 24", 168.0, "TREATMENT", "2014-03-11T11:58", 170.0]
["CDISCPILOT01", "LB", "01-701-1153", 32.0, "SPGRAV", "Specific Gravity", "URINALYSIS", "1.003", "", "1.006", "1.03", "1.003", 1.003, "", 1.006, 1.03, "LOW", "Y", 1.0, "SCREENING 1", -7.0, "SCREENING", "2013-09-06T14:50", -17.0]
["CDISCPILOT01", "LB", "01-701-1153", 69.0, "SPGRAV", "Specific Gravity", "URINALYSIS", "1.019", "", "1.006", "1.03", "1.019", 1.019, "", 1.006, 1.03, "NORMAL", "", 4.0, "WEEK 2", 14.0, "TREATMENT", "2013-10-08T11:00", 16.0]
["CDISCPILOT01", "LB", "01-701-1153", 106.0, "SPGRAV", "Specific Gravity", "URINALYSIS", "1.019", "", "1.006", "1.03", "1.019", 1.019, "", 1.006, 1.03, "NORMAL", "", 5.1, "UNSCHEDULED 5.1", null, "TREATMENT", "2013-10-19T12:22", 27.0]
["CDISCPILOT01", "LB", "01-701-1153", 199.0, "SPGRAV", "Specific Gravity", "URINALYSIS", "1.023", "", "1.006", "1.03", "1.023", 1.023, "", 1.006, 1.03, "NORMAL", "", 9.0, "WEEK 12", 84.0, "TREATMENT", "2013-12-16T15:22", 85.0]
["CDISCPILOT01", "LB", "01-701-1153", 206.0, "SPGRAV", "Specific Gravity", "URINALYSIS", "1.011", "", "1.006", "1.03", "1.011", 1.011, "", 1.006, 1.03, "NORMAL", "", 9.2, "UNSCHEDULED 9.2", null, "TREATMENT", "2013-12-18T06:30", 87.0]
["CDISCPILOT01", "LB", "01-701-1153", 211.0, "SPGRAV", "Specific Gravity", "URINALYSIS", "1.012", "", "1.006", "1.03", "1.012", 1.012, "", 1.006, 1.03, "NORMAL", "", 9.299999999999999, "UNSCHEDULED 9.3", null, "TREATMENT", "2014-01-08T11:05", 108.0]
["CDISCPILOT01", "LB", "01-701-1153", 304.0, "SPGRAV", "Specific Gravity", "URINALYSIS", "1.010", "", "1.006", "1.03", "1.01", 1.01, "", 1.006, 1.03, "NORMAL", "", 12.0, "WEEK 24", 168.0, "TREATMENT", "2014-03-11T11:58", 170.0]
["CDISCPILOT01", "LB", "01-701-1153", 33.0, "TSH", "Thyrotropin", "OTHER", "0.38", "mIU/L", "0.32", "5", "0.38", 0.38, "mU/L", 0.32, 5.0, "NORMAL", "Y", 1.0, "SCREENING 1", -7.0, "SCREENING", "2013-09-06T14:50", -17.0]
["CDISCPILOT01", "LB", "01-701-1153", 35.0, "UROBIL", "Urobilinogen", "URINALYSIS", "0", "", "", "", "0", 0.0, "", null, null, "NORMAL", "Y", 1.0, "SCREENING 1", -7.0, "SCREENING", "2013-09-06T14:50", -17.0]
["CDISCPILOT01", "LB", "01-701-1153", 71.0, "UROBIL", "Urobilinogen", "URINALYSIS", "0", "", "", "", "0", 0.0, "", null, null, "NORMAL", "", 4.0, "WEEK 2", 14.0, "TREATMENT", "2013-10-08T11:00", 16.0]
["CDISCPILOT01", "LB", "01-701-1153", 107.0, "UROBIL", "Urobilinogen", "URINALYSIS", "0", "", "", "", "0", 0.0, "", null, null, "NORMAL", "", 5.1, "UNSCHEDULED 5.1", null, "TREATMENT", "2013-10-19T12:22", 27.0]
["CDISCPILOT01", "LB", "01-701-1153", 201.0, "UROBIL", "Urobilinogen", "URINALYSIS", "0", "", "", "", "0", 0.0, "", null, null, "NORMAL", "", 9.0, "WEEK 12", 84.0, "TREATMENT", "2013-12-16T15:22", 85.0]
["CDISCPILOT01", "LB", "01-701-1153", 207.0, "UROBIL", "Urobilinogen", "URINALYSIS", "0", "", "", "", "0", 0.0, "", null, null, "NORMAL", "", 9.2, "UNSCHEDULED 9.2", null, "TREATMENT", "2013-12-18T06:30", 87.0]
["CDISCPILOT01", "LB", "01-701-1153", 212.0, "UROBIL", "Urobilinogen", "URINALYSIS", "0", "", "", "", "0", 0.0, "", null, null, "NORMAL", "", 9.299999999999999, "UNSCHEDULED 9.3", null, "TREATMENT", "2014-01-08T11:05", 108.0]
["CDISCPILOT01", "LB", "01-701-1153", 306.0, "UROBIL", "Urobilinogen", "URINALYSIS", "0", "", "", "", "0", 0.0, "", null, null, "NORMAL", "", 12.0, "WEEK 24", 168.0, "TREATMENT", "2014-03-11T11:58", 170.0]
["CDISCPILOT01", "LB", "01-701-1153", 36.0, "VITB12", "Vitamin B12", "OTHER", "345", "ng/L", "200", "900", "254.541", 254.541, "pmol/L", 148.0, 664.0, "NORMAL", "Y", 1.0, "SCREENING 1", -7.0, "SCREENING", "2013-09-06T14:50", -17.0]
["CDISCPILOT01", "LB", "01-701-1180", 12.0, "COLOR", "Color", "URINALYSIS", "N", "", "", "", "N", null, "", null, null, "NORMAL", "Y", 1.0, "SCREENING 1", -7.0, "SCREENING", "2013-01-28T11:00", -15.0]
["CDISCPILOT01", "LB", "01-701-1180", 49.0, "COLOR", "Color", "URINALYSIS", "N", "", "", "", "N", null, "", null, null, "NORMAL", "", 4.0, "WEEK 2", 14.0, "TREATMENT", "2013-02-25T12:10", 14.0]
["CDISCPILOT01", "LB", "01-701-1180", 114.0, "COLOR", "Color", "URINALYSIS", "N", "", "", "", "N", null, "", null, null, "NORMAL", "", 7.0, "WEEK 6", 42.0, "TREATMENT", "2013-03-23T12:45", 40.0]
["CDISCPILOT01", "LB", "01-701-1180", 20.0, "KETONES", "Ketones", "URINALYSIS", "0", "", "", "", "0", 0.0, "", null, null, "NORMAL", "Y", 1.0, "SCREENING 1", -7.0, "SCREENING", "2013-01-28T11:00", -15.0]
["CDISCPILOT01", "LB", "01-701-1180", 57.0, "KETONES", "Ketones", "URINALYSIS", "0", "", "", "", "0", 0.0, "", null, null, "NORMAL", "", 4.0, "WEEK 2", 14.0, "TREATMENT", "2013-02-25T12:10", 14.0]
["CDISCPILOT01", "LB", "01-701-1180", 122.0, "KETONES", "Ketones", "URINALYSIS", "0", "", "", "", "0", 0.0, "", null, null, "NORMAL", "", 7.0, "WEEK 6", 42.0, "TREATMENT", "2013-03-23T12:45", 40.0]
["CDISCPILOT01", "LB", "01-701-1180", 27.0, "PH", "pH", "URINALYSIS", "5.0", "", "5", "8", "5", 5.0, "", 5.0, 8.0, "NORMAL", "Y", 1.0, "SCREENING 1", -7.0, "SCREENING", "2013-01-28T11:00", -15.0]
["CDISCPILOT01", "LB", "01-701-1180", 64.0, "PH", "pH", "URINALYSIS", "5.0", "", "5", "8", "5", 5.0, "", 5.0, 8.0, "NORMAL", "", 4.0, "WEEK 2", 14.0, "TREATMENT", "2013-02-25T12:10", 14.0]
["CDISCPILOT01", "LB", "01-701-1180", 129.0, "PH", "pH", "URINALYSIS", "6.0", "", "5", "8", "6", 6.0, "", 5.0, 8.0, "NORMAL", "", 7.0, "WEEK 6", 42.0, "TREATMENT", "2013-03-23T12:45", 40.0]
["CDISCPILOT01", "LB", "01-701-1180", 32.0, "SPGRAV", "Specific Gravity", "URINALYSIS", "1.019", "", "1.01", "1.034", "1.019", 1.019, "", 1.01, 1.034, "NORMAL", "Y", 1.0, "SCREENING 1", -7.0, "SCREENING", "2013-01-28T11:00", -15.0]
["CDISCPILOT01", "LB", "01-701-1180", 69.0, "SPGRAV", "Specific Gravity", "URINALYSIS", "1.014", "", "1.01", "1.034", "1.014", 1.014, "", 1.01, 1.034, "NORMAL", "", 4.0, "WEEK 2", 14.0, "TREATMENT", "2013-02-25T12:10", 14.0]
["CDISCPILOT01", "LB", "01-701-1180", 134.0, "SPGRAV", "Specific Gravity", "URINALYSIS", "1.020", "", "1.01", "1.034", "1.02", 1.02, "", 1.01, 1.034, "NORMAL", "", 7.0, "WEEK 6", 42.0, "TREATMENT", "2013-03-23T12:45", 40.0]
["CDISCPILOT01", "LB", "01-701-1180", 33.0, "TSH", "Thyrotropin", "OTHER", "4.27", "mIU/L", "0.32", "5", "4.27", 4.27, "mU/L", 0.32, 5.0, "NORMAL", "Y", 1.0, "SCREENING 1", -7.0, "SCREENING", "2013-01-28T11:00", -15.0]
["CDISCPILOT01", "LB", "01-701-1180", 35.0, "UROBIL", "Urobilinogen", "URINALYSIS", "0", "", "", "", "0", 0.0, "", null, null, "NORMAL", "Y", 1.0, "SCREENING 1", -7.0, "SCREENING", "2013-01-28T11:00", -15.0]
["CDISCPILOT01", "LB", "01-701-1180", 71.0, "UROBIL", "Urobilinogen", "URINALYSIS", "0", "", "", "", "0", 0.0, "", null, null, "NORMAL", "", 4.0, "WEEK 2", 14.0, "TREATMENT", "2013-02-25T12:10", 14.0]
["CDISCPILOT01", "LB", "01-701-1180", 136.0, "UROBIL", "Urobilinogen", "URINALYSIS", "0", "", "", "", "0", 0.0, "", null, null, "NORMAL", "", 7.0, "WEEK 6", 42.0, "TREATMENT", "2013-03-23T12:45", 40.0]
["CDISCPILOT01", "LB", "01-701-1180", 36.0, "VITB12", "Vitamin B12", "OTHER", "602", "ng/L", "200", "900", "444.1556", 444.1556, "pmol/L", 148.0, 664.0, "NORMAL", "Y", 1.0, "SCREENING 1", -7.0, "SCREENING", "2013-01-28T11:00", -15.0]
["CDISCPILOT01", "LB", "01-701-1181", 12.0, "COLOR", "Color", "URINALYSIS", "N", "", "", "", "N", null, "", null, null, "NORMAL", "Y", 1.0, "SCREENING 1", -7.0, "SCREENING", "2013-11-26T13:36", -9.0]
["CDISCPILOT01", "LB", "01-701-1181", 49.0, "COLOR", "Color", "URINALYSIS", "N", "", "", "", "N", null, "", null, null, "NORMAL", "", 4.0, "WEEK 2", 14.0, "TREATMENT", "2013-12-12T12:09", 8.0]
["CDISCPILOT01", "LB", "01-701-1181", 20.0, "KETONES", "Ketones", "URINALYSIS", "0", "", "", "", "0", 0.0, "", null, null, "NORMAL", "Y", 1.0, "SCREENING 1", -7.0, "SCREENING", "2013-11-26T13:36", -9.0]
["CDISCPILOT01", "LB", "01-701-1181", 57.0, "KETONES", "Ketones", "URINALYSIS", "0", "", "", "", "0", 0.0, "", null, null, "NORMAL", "", 4.0, "WEEK 2", 14.0, "TREATMENT", "2013-12-12T12:09", 8.0]
["CDISCPILOT01", "LB", "01-701-1181", 27.0, "PH", "pH", "URINALYSIS", "5.0", "", "5", "8", "5", 5.0, "", 5.0, 8.0, "NORMAL", "Y", 1.0, "SCREENING 1", -7.0, "SCREENING", "2013-11-26T13:36", -9.0]
["CDISCPILOT01", "LB", "01-701-1181", 64.0, "PH", "pH", "URINALYSIS", "5.0", "", "5", "8", "5", 5.0, "", 5.0, 8.0, "NORMAL", "", 4.0, "WEEK 2", 14.0, "TREATMENT", "2013-12-12T12:09", 8.0]
["CDISCPILOT01", "LB", "01-701-1181", 32.0, "SPGRAV", "Specific Gravity", "URINALYSIS", "1.016", "", "1.006", "1.03", "1.016", 1.016, "", 1.006, 1.03, "NORMAL", "Y", 1.0, "SCREENING 1", -7.0, "SCREENING", "2013-11-26T13:36", -9.0]
["CDISCPILOT01", "LB", "01-701-1181", 69.0, "SPGRAV", "Specific Gravity", "URINALYSIS", "1.011", "", "1.006", "1.03", "1.011", 1.011, "", 1.006, 1.03, "NORMAL", "", 4.0, "WEEK 2", 14.0, "TREATMENT", "2013-12-12T12:09", 8.0]
["CDISCPILOT01", "LB", "01-701-1181", 33.0, "TSH", "Thyrotropin", "OTHER", "1.51", "mIU/L", "0.32", "5", "1.51", 1.51, "mU/L", 0.32, 5.0, "NORMAL", "Y", 1.0, "SCREENING 1", -7.0, "SCREENING", "2013-11-26T13:36", -9.0]
["CDISCPILOT01", "LB", "01-701-1181", 35.0, "UROBIL", "Urobilinogen", "URINALYSIS", "0", "", "", "", "0", 0.0, "", null, null, "NORMAL", "Y", 1.0, "SCREENING 1", -7.0, "SCREENING", "2013-11-26T13:36", -9.0]
["CDISCPILOT01", "LB", "01-701-1181", 71.0, "UROBIL", "Urobilinogen", "URINALYSIS", "0", "", "", "", "0", 0.0, "", null, null, "NORMAL", "", 4.0, "WEEK 2", 14.0, "TREATMENT", "2013-12-12T12:09", 8.0]
["CDISCPILOT01", "LB", "01-701-1181", 36.0, "VITB12", "Vitamin B12", "OTHER", "421", "ng/L", "200", "900", "310.6138", 310.6138, "pmol/L", 148.0, 664.0, "NORMAL", "Y", 1.0, "SCREENING 1", -7.0, "SCREENING", "2013-11-26T13:36", -9.0]
["CDISCPILOT01", "LB", "01-701-1188", 12.0, "COLOR", "Color", "URINALYSIS", "N", "", "", "", "N", null, "", null, null, "NORMAL", "Y", 1.0, "SCREENING 1", -7.0, "SCREENING", "2013-02-03T12:37", -12.0]
["CDISCPILOT01", "LB", "01-701-1188", 49.0, "COLOR", "Color", "URINALYSIS", "N", "", "", "", "N", null, "", null, null, "NORMAL", "", 4.0, "WEEK 2", 14.0, "TREATMENT", "2013-03-02T08:31", 16.0]
["CDISCPILOT01", "LB", "01-701-1188", 114.0, "COLOR", "Color", "URINALYSIS", "N", "", "", "", "N", null, "", null, null, "NORMAL", "", 7.0, "WEEK 6", 42.0, "TREATMENT", "2013-03-25T15:08", 39.0]
["CDISCPILOT01", "LB", "01-701-1188", 20.0, "KETONES", "Ketones", "URINALYSIS", "0", "", "", "", "0", 0.0, "", null, null, "NORMAL", "Y", 1.0, "SCREENING 1", -7.0, "SCREENING", "2013-02-03T12:37", -12.0]
["CDISCPILOT01", "LB", "01-701-1188", 57.0, "KETONES", "Ketones", "URINALYSIS", "0", "", "", "", "0", 0.0, "", null, null, "NORMAL", "", 4.0, "WEEK 2", 14.0, "TREATMENT", "2013-03-02T08:31", 16.0]
["CDISCPILOT01", "LB", "01-701-1188", 122.0, "KETONES", "Ketones", "URINALYSIS", "0", "", "", "", "0", 0.0, "", null, null, "NORMAL", "", 7.0, "WEEK 6", 42.0, "TREATMENT", "2013-03-25T15:08", 39.0]
["CDISCPILOT01", "LB", "01-701-1188", 27.0, "PH", "pH", "URINALYSIS", "6.0", "", "5", "8", "6", 6.0, "", 5.0, 8.0, "NORMAL", "Y", 1.0, "SCREENING 1", -7.0, "SCREENING", "2013-02-03T12:37", -12.0]
["CDISCPILOT01", "LB", "01-701-1188", 64.0, "PH", "pH", "URINALYSIS", "5.0", "", "5", "8", "5", 5.0, "", 5.0, 8.0, "NORMAL", "", 4.0, "WEEK 2", 14.0, "TREATMENT", "2013-03-02T08:31", 16.0]
["CDISCPILOT01", "LB", "01-701-1188", 129.0, "PH", "pH", "URINALYSIS", "5.0", "", "5", "8", "5", 5.0, "", 5.0, 8.0, "NORMAL", "", 7.0, "WEEK 6", 42.0, "TREATMENT", "2013-03-25T15:08", 39.0]
["CDISCPILOT01", "LB", "01-701-1188", 32.0, "SPGRAV", "Specific Gravity", "URINALYSIS", "1.019", "", "1.006", "1.03", "1.019", 1.019, "", 1.006, 1.03, "NORMAL", "Y", 1.0, "SCREENING 1", -7.0, "SCREENING", "2013-02-03T12:37", -12.0]
["CDISCPILOT01", "LB", "01-701-1188", 69.0, "SPGRAV", "Specific Gravity", "URINALYSIS", "1.022", "", "1.006", "1.03", "1.022", 1.022, "", 1.006, 1.03, "NORMAL", "", 4.0, "WEEK 2", 14.0, "TREATMENT", "2013-03-02T08:31", 16.0]
["CDISCPILOT01", "LB", "01-701-1188", 134.0, "SPGRAV", "Specific Gravity", "URINALYSIS", "1.022", "", "1.006", "1.03", "1.022", 1.022, "", 1.006, 1.03, "NORMAL", "", 7.0, "WEEK 6", 42.0, "TREATMENT", "2013-03-25T15:08", 39.0]
["CDISCPILOT01", "LB", "01-701-1188", 33.0, "TSH", "Thyrotropin", "OTHER", "1.48", "mIU/L", "0.32", "5", "1.48", 1.48, "mU/L", 0.32, 5.0, "NORMAL", "Y", 1.0, "SCREENING 1", -7.0, "SCREENING", "2013-02-03T12:37", -12.0]
["CDISCPILOT01", "LB", "01-701-1188", 35.0, "UROBIL", "Urobilinogen", "URINALYSIS", "0", "", "", "", "0", 0.0, "", null, null, "NORMAL", "Y", 1.0, "SCREENING 1", -7.0, "SCREENING", "2013-02-03T12:37", -12.0]
["CDISCPILOT01", "LB", "01-701-1188", 71.0, "UROBIL", "Urobilinogen", "URINALYSIS", "0", "", "", "", "0", 0.0, "", null, null, "NORMAL", "", 4.0, "WEEK 2", 14.0, "TREATMENT", "2013-03-02T08:31", 16.0]
["CDISCPILOT01", "LB", "01-701-1188", 136.0, "UROBIL", "Urobilinogen", "URINALYSIS", "0", "", "", "", "0", 0.0, "", null, null, "NORMAL", "", 7.0, "WEEK 6", 42.0, "TREATMENT", "2013-03-25T15:08", 39.0]
["CDISCPILOT01", "LB", "01-701-1188", 36.0, "VITB12", "Vitamin B12", "OTHER", "269", "ng/L", "200", "900", "198.4682", 198.4682, "pmol/L", 148.0, 664.0, "NORMAL", "Y", 1.0, "SCREENING 1", -7.0, "SCREENING", "2013-02-03T12:37", -12.0]
["CDISCPILOT01", "LB", "01-701-1192", 12.0, "COLOR", "Color", "URINALYSIS", "N", "", "", "", "N", null, "", null, null, "NORMAL", "Y", 1.0, "SCREENING 1", -7.0, "SCREENING", "2012-07-08T15:50", -14.0]
["CDISCPILOT01", "LB", "01-701-1192", 49.0, "COLOR", "Color", "URINALYSIS", "N", "", "", "", "N", null, "", null, null, "NORMAL", "", 4.0, "WEEK 2", 14.0, "TREATMENT", "2012-08-07T10:31", 17.0]
["CDISCPILOT01", "LB", "01-701-1192", 103.0, "COLOR", "Color", "URINALYSIS", "N", "", "", "", "N", null, "", null, null, "NORMAL", "", 5.1, "UNSCHEDULED 5.1", null, "TREATMENT", "2012-08-21T11:00", 31.0]
["CDISCPILOT01", "LB", "01-701-1192", 179.0, "COLOR", "Color", "URINALYSIS", "N", "", "", "", "N", null, "", null, null, "NORMAL", "", 9.0, "WEEK 12", 84.0, "TREATMENT", "2012-10-14T13:12", 85.0]
["CDISCPILOT01", "LB", "01-701-1192", 274.0, "COLOR", "Color", "URINALYSIS", "N", "", "", "", "N", null, "", null, null, "NORMAL", "", 12.0, "WEEK 24", 168.0, "TREATMENT", "2013-01-11T15:37", 174.0]
["CDISCPILOT01", "LB", "01-701-1192", 20.0, "KETONES", "Ketones", "URINALYSIS", "0", "", "", "", "0", 0.0, "", null, null, "NORMAL", "Y", 1.0, "SCREENING 1", -7.0, "SCREENING", "2012-07-08T15:50", -14.0]
["CDISCPILOT01", "LB", "01-701-1192", 57.0, "KETONES", "Ketones", "URINALYSIS", "0", "", "", "", "0", 0.0, "", null, null, "NORMAL", "", 4.0, "WEEK 2", 14.0, "TREATMENT", "2012-08-07T10:31", 17.0]
["CDISCPILOT01", "LB", "01-701-1192", 104.0, "KETONES", "Ketones", "URINALYSIS", "0", "", "", "", "0", 0.0, "", null, null, "NORMAL", "", 5.1, "UNSCHEDULED 5.1", null, "TREATMENT", "2012-08-21T11:00", 31.0]
["CDISCPILOT01", "LB", "01-701-1192", 187.0, "KETONES", "Ketones", "URINALYSIS", "0", "", "", "", "0", 0.0, "", null, null, "NORMAL", "", 9.0, "WEEK 12", 84.0, "TREATMENT", "2012-10-14T13:12", 85.0]
["CDISCPILOT01", "LB", "01-701-1192", 282.0, "KETONES", "Ketones", "URINALYSIS", "0", "", "", "", "0", 0.0, "", null, null, "NORMAL", "", 12.0, "WEEK 24", 168.0, "TREATMENT", "2013-01-11T15:37", 174.0]
["CDISCPILOT01", "LB", "01-701-1192", 27.0, "PH", "pH", "URINALYSIS", "5.0", "", "5", "8", "5", 5.0, "", 5.0, 8.0, "NORMAL", "Y", 1.0, "SCREENING 1", -7.0, "SCREENING", "2012-07-08T15:50", -14.0]
["CDISCPILOT01", "LB", "01-701-1192", 64.0, "PH", "pH", "URINALYSIS", "5.0", "", "5", "8", "5", 5.0, "", 5.0, 8.0, "NORMAL", "", 4.0, "WEEK 2", 14.0, "TREATMENT", "2012-08-07T10:31", 17.0]
["CDISCPILOT01", "LB", "01-701-1192", 105.0, "PH", "pH", "URINALYSIS", "5.0", "", "5", "8", "5", 5.0, "", 5.0, 8.0, "NORMAL", "", 5.1, "UNSCHEDULED 5.1", null, "TREATMENT", "2012-08-21T11:00", 31.0]
["CDISCPILOT01", "LB", "01-701-1192", 194.0, "PH", "pH", "URINALYSIS", "5.0", "", "5", "8", "5", 5.0, "", 5.0, 8.0, "NORMAL", "", 9.0, "WEEK 12", 84.0, "TREATMENT", "2012-10-14T13:12", 85.0]
["CDISCPILOT01", "LB", "01-701-1192", 289.0, "PH", "pH", "URINALYSIS", "6.0", "", "5", "8", "6", 6.0, "", 5.0, 8.0, "NORMAL", "", 12.0, "WEEK 24", 168.0, "TREATMENT", "2013-01-11T15:37", 174.0]
["CDISCPILOT01", "LB", "01-701-1192", 32.0, "SPGRAV", "Specific Gravity", "URINALYSIS", "1.022", "", "1.006", "1.03", "1.022", 1.022, "", 1.006, 1.03, "NORMAL", "Y", 1.0, "SCREENING 1", -7.0, "SCREENING", "2012-07-08T15:50", -14.0]
["CDISCPILOT01", "LB", "01-701-1192", 69.0, "SPGRAV", "Specific Gravity", "URINALYSIS", "1.026", "", "1.006", "1.03", "1.026", 1.026, "", 1.006, 1.03, "NORMAL", "", 4.0, "WEEK 2", 14.0, "TREATMENT", "2012-08-07T10:31", 17.0]
["CDISCPILOT01", "LB", "01-701-1192", 106.0, "SPGRAV", "Specific Gravity", "URINALYSIS", "1.025", "", "1.006", "1.03", "1.025", 1.025, "", 1.006, 1.03, "NORMAL", "", 5.1, "UNSCHEDULED 5.1", null, "TREATMENT", "2012-08-21T11:00", 31.0]
["CDISCPILOT01", "LB", "01-701-1192", 199.0, "SPGRAV", "Specific Gravity", "URINALYSIS", "1.025", "", "1.006", "1.03", "1.025", 1.025, "", 1.006, 1.03, "NORMAL", "", 9.0, "WEEK 12", 84.0, "TREATMENT", "2012-10-14T13:12", 85.0]
["CDISCPILOT01", "LB", "01-701-1192", 294.0, "SPGRAV", "Specific Gravity", "URINALYSIS", "1.019", "", "1.006", "1.03", "1.019", 1.019, "", 1.006, 1.03, "NORMAL", "", 12.0, "WEEK 24", 168.0, "TREATMENT", "2013-01-11T15:37", 174.0]
["CDISCPILOT01", "LB", "01-701-1192", 33.0, "TSH", "Thyrotropin", "OTHER", "0.76", "mIU/L", "0.32", "5", "0.76", 0.7599999999999999, "mU/L", 0.32, 5.0, "NORMAL", "Y", 1.0, "SCREENING 1", -7.0, "SCREENING", "2012-07-08T15:50", -14.0]
["CDISCPILOT01", "LB", "01-701-1192", 35.0, "UROBIL", "Urobilinogen", "URINALYSIS", "0", "", "", "", "0", 0.0, "", null, null, "NORMAL", "Y", 1.0, "SCREENING 1", -7.0, "SCREENING", "2012-07-08T15:50", -14.0]
["CDISCPILOT01", "LB", "01-701-1192", 71.0, "UROBIL", "Urobilinogen", "URINALYSIS", "0", "", "", "", "0", 0.0, "", null, null, "NORMAL", "", 4.0, "WEEK 2", 14.0, "TREATMENT", "2012-08-07T10:31", 17.0]
["CDISCPILOT01", "LB", "01-701-1192", 107.0, "UROBIL", "Urobilinogen", "URINALYSIS", "0", "", "", "", "0", 0.0, "", null, null, "NORMAL", "", 5.1, "UNSCHEDULED 5.1", null, "TREATMENT", "2012-08-21T11:00", 31.0]
["CDISCPILOT01", "LB", "01-701-1192", 201.0, "UROBIL", "Urobilinogen", "URINALYSIS", "0", "", "", "", "0", 0.0, "", null, null, "NORMAL", "", 9.0, "WEEK 12", 84.0, "TREATMENT", "2012-10-14T13:12", 85.0]
["CDISCPILOT01", "LB", "01-701-1192", 296.0, "UROBIL", "Urobilinogen", "URINALYSIS", "0", "", "", "", "0", 0.0, "", null, null, "NORMAL", "", 12.0, "WEEK 24", 168.0, "TREATMENT", "2013-01-11T15:37", 174.0]
["CDISCPILOT01", "LB", "01-701-1192", 36.0, "VITB12", "Vitamin B12", "OTHER", "325", "ng/L", "200", "900", "239.785", 239.785, "pmol/L", 148.0, 664.0, "NORMAL", "Y", 1.0, "SCREENING 1", -7.0, "SCREENING", "2012-07-08T15:50", -14.0]
["CDISCPILOT01", "LB", "01-701-1203", 12.0, "COLOR", "Color", "URINALYSIS", "N", "", "", "", "N", null, "", null, null, "NORMAL", "Y", 1.0, "SCREENING 1", -7.0, "SCREENING", "2013-01-25T13:50", -8.0]
["CDISCPILOT01", "LB", "01-701-1203", 49.0, "COLOR", "Color", "URINALYSIS", "N", "", "", "", "N", null, "", null, null, "NORMAL", "", 4.0, "WEEK 2", 14.0, "TREATMENT", "2013-02-23T11:56", 22.0]
["CDISCPILOT01", "LB", "01-701-1203", 174.0, "COLOR", "Color", "URINALYSIS", "N", "", "", "", "N", null, "", null, null, "NORMAL", "", 9.0, "WEEK 12", 84.0, "TREATMENT", "2013-05-09T13:25", 97.0]
["CDISCPILOT01", "LB", "01-701-1203", 269.0, "COLOR", "Color", "URINALYSIS", "N", "", "", "", "N", null, "", null, null, "NORMAL", "", 12.0, "WEEK 24", 168.0, "TREATMENT", "2013-07-22T12:49", 171.0]
["CDISCPILOT01", "LB", "01-701-1203", 20.0, "KETONES", "Ketones", "URINALYSIS", "0", "", "", "", "0", 0.0, "", null, null, "NORMAL", "Y", 1.0, "SCREENING 1", -7.0, "SCREENING", "2013-01-25T13:50", -8.0]
["CDISCPILOT01", "LB", "01-701-1203", 57.0, "KETONES", "Ketones", "URINALYSIS", "0", "", "", "", "0", 0.0, "", null, null, "NORMAL", "", 4.0, "WEEK 2", 14.0, "TREATMENT", "2013-02-23T11:56", 22.0]
["CDISCPILOT01", "LB", "01-701-1203", 182.0, "KETONES", "Ketones", "URINALYSIS", "1", "", "", "", "1", 1.0, "", null, null, "ABNORMAL", "", 9.0, "WEEK 12", 84.0, "TREATMENT", "2013-05-09T13:25", 97.0]
["CDISCPILOT01", "LB", "01-701-1203", 277.0, "KETONES", "Ketones", "URINALYSIS", "0", "", "", "", "0", 0.0, "", null, null, "NORMAL", "", 12.0, "WEEK 24", 168.0, "TREATMENT", "2013-07-22T12:49", 171.0]
["CDISCPILOT01", "LB", "01-701-1203", 27.0, "PH", "pH", "URINALYSIS", "5.0", "", "5", "8", "5", 5.0, "", 5.0, 8.0, "NORMAL", "Y", 1.0, "SCREENING 1", -7.0, "SCREENING", "2013-01-25T13:50", -8.0]
["CDISCPILOT01", "LB", "01-701-1203", 64.0, "PH", "pH", "URINALYSIS", "5.0", "", "5", "8", "5", 5.0, "", 5.0, 8.0, "NORMAL", "", 4.0, "WEEK 2", 14.0, "TREATMENT", "2013-02-23T11:56", 22.0]
["CDISCPILOT01", "LB", "01-701-1203", 189.0, "PH", "pH", "URINALYSIS", "6.0", "", "5", "8", "6", 6.0, "", 5.0, 8.0, "NORMAL", "", 9.0, "WEEK 12", 84.0, "TREATMENT", "2013-05-09T13:25", 97.0]
["CDISCPILOT01", "LB", "01-701-1203", 284.0, "PH", "pH", "URINALYSIS", "5.0", "", "5", "8", "5", 5.0, "", 5.0, 8.0, "NORMAL", "", 12.0, "WEEK 24", 168.0, "TREATMENT", "2013-07-22T12:49", 171.0]
["CDISCPILOT01", "LB", "01-701-1203", 32.0, "SPGRAV", "Specific Gravity", "URINALYSIS", "1.017", "", "1.006", "1.03", "1.017", 1.017, "", 1.006, 1.03, "NORMAL", "Y", 1.0, "SCREENING 1", -7.0, "SCREENING", "2013-01-25T13:50", -8.0]
["CDISCPILOT01", "LB", "01-701-1203", 69.0, "SPGRAV", "Specific Gravity", "URINALYSIS", "1.010", "", "1.006", "1.03", "1.01", 1.01, "", 1.006, 1.03, "NORMAL", "", 4.0, "WEEK 2", 14.0, "TREATMENT", "2013-02-23T11:56", 22.0]
["CDISCPILOT01", "LB", "01-701-1203", 194.0, "SPGRAV", "Specific Gravity", "URINALYSIS", "1.025", "", "1.006", "1.03", "1.025", 1.025, "", 1.006, 1.03, "NORMAL", "", 9.0, "WEEK 12", 84.0, "TREATMENT", "2013-05-09T13:25", 97.0]
["CDISCPILOT01", "LB", "01-701-1203", 289.0, "SPGRAV", "Specific Gravity", "URINALYSIS", "1.018", "", "1.006", "1.03", "1.018", 1.018, "", 1.006, 1.03, "NORMAL", "", 12.0, "WEEK 24", 168.0, "TREATMENT", "2013-07-22T12:49", 171.0]
["CDISCPILOT01", "LB", "01-701-1203", 33.0, "TSH", "Thyrotropin", "OTHER", "4.80", "mIU/L", "0.32", "5", "4.8", 4.8, "mU/L", 0.32, 5.0, "NORMAL", "Y", 1.0, "SCREENING 1", -7.0, "SCREENING", "2013-01-25T13:50", -8.0]
["CDISCPILOT01", "LB", "01-701-1203", 35.0, "UROBIL", "Urobilinogen", "URINALYSIS", "0", "", "", "", "0", 0.0, "", null, null, "NORMAL", "Y", 1.0, "SCREENING 1", -7.0, "SCREENING", "2013-01-25T13:50", -8.0]
["CDISCPILOT01", "LB", "01-701-1203", 71.0, "UROBIL", "Urobilinogen", "URINALYSIS", "0", "", "", "", "0", 0.0, "", null, null, "NORMAL", "", 4.0, "WEEK 2", 14.0, "TREATMENT", "2013-02-23T11:56", 22.0]
["CDISCPILOT01", "LB", "01-701-1203", 196.0, "UROBIL", "Urobilinogen", "URINALYSIS", "0", "", "", "", "0", 0.0, "", null, null, "NORMAL", "", 9.0, "WEEK 12", 84.0, "TREATMENT", "2013-05-09T13:25", 97.0]
["CDISCPILOT01", "LB", "01-701-1203", 291.0, "UROBIL", "Urobilinogen", "URINALYSIS", "0", "", "", "", "0", 0.0, "", null, null, "NORMAL", "", 12.0, "WEEK 24", 168.0, "TREATMENT", "2013-07-22T12:49", 171.0]
["CDISCPILOT01", "LB", "01-701-1203", 36.0, "VITB12", "Vitamin B12", "OTHER", "491", "ng/L", "200", "900", "362.2598", 362.2598, "pmol/L", 148.0, 664.0, "NORMAL", "Y", 1.0, "SCREENING 1", -7.0, "SCREENING", "2013-01-25T13:50", -8.0]
["CDISCPILOT01", "LB", "01-701-1211", 12.0, "COLOR", "Color", "URINALYSIS", "N", "", "", "", "N", null, "", null, null, "NORMAL", "Y", 1.0, "SCREENING 1", -7.0, "SCREENING", "2012-10-30T14:26", -16.0]
["CDISCPILOT01", "LB", "01-701-1211", 49.0, "COLOR", "Color", "URINALYSIS", "N", "", "", "", "N", null, "", null, null, "NORMAL", "", 4.0, "WEEK 2", 14.0, "TREATMENT", "2012-11-28T10:00", 14.0]
["CDISCPILOT01", "LB", "01-701-1211", 20.0, "KETONES", "Ketones", "URINALYSIS", "1", "", "", "", "1", 1.0, "", null, null, "ABNORMAL", "Y", 1.0, "SCREENING 1", -7.0, "SCREENING", "2012-10-30T14:26", -16.0]
["CDISCPILOT01", "LB", "01-701-1211", 57.0, "KETONES", "Ketones", "URINALYSIS", "0", "", "", "", "0", 0.0, "", null, null, "NORMAL", "", 4.0, "WEEK 2", 14.0, "TREATMENT", "2012-11-28T10:00", 14.0]
["CDISCPILOT01", "LB", "01-701-1211", 27.0, "PH", "pH", "URINALYSIS", "5.0", "", "5", "8", "5", 5.0, "", 5.0, 8.0, "NORMAL", "Y", 1.0, "SCREENING 1", -7.0, "SCREENING", "2012-10-30T14:26", -16.0]
["CDISCPILOT01", "LB", "01-701-1211", 64.0, "PH", "pH", "URINALYSIS", "5.0", "", "5", "8", "5", 5.0, "", 5.0, 8.0, "NORMAL", "", 4.0, "WEEK 2", 14.0, "TREATMENT", "2012-11-28T10:00", 14.0]
["CDISCPILOT01", "LB", "01-701-1211", 32.0, "SPGRAV", "Specific Gravity", "URINALYSIS", "1.021", "", "1.006", "1.03", "1.021", 1.021, "", 1.006, 1.03, "NORMAL", "Y", 1.0, "SCREENING 1", -7.0, "SCREENING", "2012-10-30T14:26", -16.0]
["CDISCPILOT01", "LB", "01-701-1211", 69.0, "SPGRAV", "Specific Gravity", "URINALYSIS", "1.016", "", "1.006", "1.03", "1.016", 1.016, "", 1.006, 1.03, "NORMAL", "", 4.0, "WEEK 2", 14.0, "TREATMENT", "2012-11-28T10:00", 14.0]
["CDISCPILOT01", "LB", "01-701-1211", 33.0, "TSH", "Thyrotropin", "OTHER", "1.75", "mIU/L", "0.32", "5", "1.75", 1.75, "mU/L", 0.32, 5.0, "NORMAL", "Y", 1.0, "SCREENING 1", -7.0, "SCREENING", "2012-10-30T14:26", -16.0]
["CDISCPILOT01", "LB", "01-701-1211", 35.0, "UROBIL", "Urobilinogen", "URINALYSIS", "0", "", "", "", "0", 0.0, "", null, null, "NORMAL", "Y", 1.0, "SCREENING 1", -7.0, "SCREENING", "2012-10-30T14:26", -16.0]
["CDISCPILOT01", "LB", "01-701-1211", 71.0, "UROBIL", "Urobilinogen", "URINALYSIS", "0", "", "", "", "0", 0.0, "", null, null, "NORMAL", "", 4.0, "WEEK 2", 14.0, "TREATMENT", "2012-11-28T10:00", 14.0]
["CDISCPILOT01", "LB", "01-701-1211", 36.0, "VITB12", "Vitamin B12", "OTHER", "427", "ng/L", "200", "900", "315.0406", 315.0406, "pmol/L", 148.0, 664.0, "NORMAL", "Y", 1.0, "SCREENING 1", -7.0, "SCREENING", "2012-10-30T14:26", -16.0]
["CDISCPILOT01", "LB", "01-701-1234", 13.0, "COLOR", "Color", "URINALYSIS", "N", "", "", "", "N", null, "", null, null, "NORMAL", "Y", 1.0, "SCREENING 1", -7.0, "SCREENING", "2013-03-20T16:13", -10.0]
["CDISCPILOT01", "LB", "01-701-1234", 50.0, "COLOR", "Color", "URINALYSIS", "N", "", "", "", "N", null, "", null, null, "NORMAL", "", 4.0, "WEEK 2", 14.0, "TREATMENT", "2013-04-21T08:49", 23.0]
["CDISCPILOT01", "LB", "01-701-1234", 175.0, "COLOR", "Color", "URINALYSIS", "N", "", "", "", "N", null, "", null, null, "NORMAL", "", 9.0, "WEEK 12", 84.0, "TREATMENT", "2013-07-07T11:13", 100.0]
["CDISCPILOT01", "LB", "01-701-1234", 270.0, "COLOR", "Color", "URINALYSIS", "N", "", "", "", "N", null, "", null, null, "NORMAL", "", 12.0, "WEEK 24", 168.0, "TREATMENT", "2013-09-10T13:26", 165.0]
["CDISCPILOT01", "LB", "01-701-1234", 21.0, "KETONES", "Ketones", "URINALYSIS", "0", "", "", "", "0", 0.0, "", null, null, "NORMAL", "Y", 1.0, "SCREENING 1", -7.0, "SCREENING", "2013-03-20T16:13", -10.0]
["CDISCPILOT01", "LB", "01-701-1234", 58.0, "KETONES", "Ketones", "URINALYSIS", "0", "", "", "", "0", 0.0, "", null, null, "NORMAL", "", 4.0, "WEEK 2", 14.0, "TREATMENT", "2013-04-21T08:49", 23.0]
["CDISCPILOT01", "LB", "01-701-1234", 183.0, "KETONES", "Ketones", "URINALYSIS", "0", "", "", "", "0", 0.0, "", null, null, "NORMAL", "", 9.0, "WEEK 12", 84.0, "TREATMENT", "2013-07-07T11:13", 100.0]
["CDISCPILOT01", "LB", "01-701-1234", 278.0, "KETONES", "Ketones", "URINALYSIS", "1", "", "", "", "1", 1.0, "", null, null, "ABNORMAL", "", 12.0, "WEEK 24", 168.0, "TREATMENT", "2013-09-10T13:26", 165.0]
["CDISCPILOT01", "LB", "01-701-1234", 28.0, "PH", "pH", "URINALYSIS", "5.0", "", "5", "8", "5", 5.0, "", 5.0, 8.0, "NORMAL", "Y", 1.0, "SCREENING 1", -7.0, "SCREENING", "2013-03-20T16:13", -10.0]
["CDISCPILOT01", "LB", "01-701-1234", 65.0, "PH", "pH", "URINALYSIS", "5.0", "", "5", "8", "5", 5.0, "", 5.0, 8.0, "NORMAL", "", 4.0, "WEEK 2", 14.0, "TREATMENT", "2013-04-21T08:49", 23.0]
["CDISCPILOT01", "LB", "01-701-1234", 190.0, "PH", "pH", "URINALYSIS", "7.0", "", "5", "8", "7", 7.0, "", 5.0, 8.0, "NORMAL", "", 9.0, "WEEK 12", 84.0, "TREATMENT", "2013-07-07T11:13", 100.0]
["CDISCPILOT01", "LB", "01-701-1234", 285.0, "PH", "pH", "URINALYSIS", "6.0", "", "5", "8", "6", 6.0, "", 5.0, 8.0, "NORMAL", "", 12.0, "WEEK 24", 168.0, "TREATMENT", "2013-09-10T13:26", 165.0]
["CDISCPILOT01", "LB", "01-701-1234", 33.0, "SPGRAV", "Specific Gravity", "URINALYSIS", "1.028", "", "1.006", "1.03", "1.028", 1.028, "", 1.006, 1.03, "NORMAL", "Y", 1.0, "SCREENING 1", -7.0, "SCREENING", "2013-03-20T16:13", -10.0]
["CDISCPILOT01", "LB", "01-701-1234", 70.0, "SPGRAV", "Specific Gravity", "URINALYSIS", "1.020", "", "1.006", "1.03", "1.02", 1.02, "", 1.006, 1.03, "NORMAL", "", 4.0, "WEEK 2", 14.0, "TREATMENT", "2013-04-21T08:49", 23.0]
["CDISCPILOT01", "LB", "01-701-1234", 195.0, "SPGRAV", "Specific Gravity", "URINALYSIS", "1.021", "", "1.006", "1.03", "1.021", 1.021, "", 1.006, 1.03, "NORMAL", "", 9.0, "WEEK 12", 84.0, "TREATMENT", "2013-07-07T11:13", 100.0]
["CDISCPILOT01", "LB", "01-701-1234", 290.0, "SPGRAV", "Specific Gravity", "URINALYSIS", "1.023", "", "1.006", "1.03", "1.023", 1.023, "", 1.006, 1.03, "NORMAL", "", 12.0, "WEEK 24", 168.0, "TREATMENT", "2013-09-10T13:26", 165.0]
["CDISCPILOT01", "LB", "01-701-1234", 34.0, "TSH", "Thyrotropin", "OTHER", "0.66", "mIU/L", "0.32", "5", "0.66", 0.6599999999999999, "mU/L", 0.32, 5.0, "NORMAL", "Y", 1.0, "SCREENING 1", -7.0, "SCREENING", "2013-03-20T16:13", -10.0]
["CDISCPILOT01", "LB", "01-701-1234", 36.0, "UROBIL", "Urobilinogen", "URINALYSIS", "0", "", "", "", "0", 0.0, "", null, null, "NORMAL", "Y", 1.0, "SCREENING 1", -7.0, "SCREENING", "2013-03-20T16:13", -10.0]
["CDISCPILOT01", "LB", "01-701-1234", 72.0, "UROBIL", "Urobilinogen", "URINALYSIS", "0", "", "", "", "0", 0.0, "", null, null, "NORMAL", "", 4.0, "WEEK 2", 14.0, "TREATMENT", "2013-04-21T08:49", 23.0]
["CDISCPILOT01", "LB", "01-701-1234", 197.0, "UROBIL", "Urobilinogen", "URINALYSIS", "0", "", "", "", "0", 0.0, "", null, null, "NORMAL", "", 9.0, "WEEK 12", 84.0, "TREATMENT", "2013-07-07T11:13", 100.0]
["CDISCPILOT01", "LB", "01-701-1234", 292.0, "UROBIL", "Urobilinogen", "URINALYSIS", "0", "", "", "", "0", 0.0, "", null, null, "NORMAL", "", 12.0, "WEEK 24", 168.0, "TREATMENT", "2013-09-10T13:26", 165.0]
["CDISCPILOT01", "LB", "01-701-1234", 37.0, "VITB12", "Vitamin B12", "OTHER", "497", "ng/L", "200", "900", "366.6866", 366.6866, "pmol/L", 148.0, 664.0, "NORMAL", "Y", 1.0, "SCREENING 1", -7.0, "SCREENING", "2013-03-20T16:13", -10.0]
["CDISCPILOT01", "LB", "01-701-1239", 12.0, "COLOR", "Color", "URINALYSIS", "N", "", "", "", "N", null, "", null, null, "NORMAL", "Y", 1.0, "SCREENING 1", -7.0, "SCREENING", "2013-12-28T12:44", -14.0]
["CDISCPILOT01", "LB", "01-701-1239", 64.0, "COLOR", "Color", "URINALYSIS", "N", "", "", "", "N", null, "", null, null, "NORMAL", "", 4.0, "WEEK 2", 14.0, "TREATMENT", "2014-01-25T10:05", 15.0]
["CDISCPILOT01", "LB", "01-701-1239", 189.0, "COLOR", "Color", "URINALYSIS", "N", "", "", "", "N", null, "", null, null, "NORMAL", "", 9.0, "WEEK 12", 84.0, "TREATMENT", "2014-04-02T08:31", 82.0]
["CDISCPILOT01", "LB", "01-701-1239", 284.0, "COLOR", "Color", "URINALYSIS", "N", "", "", "", "N", null, "", null, null, "NORMAL", "", 12.0, "WEEK 24", 168.0, "TREATMENT", "2014-06-27T10:11", 168.0]
["CDISCPILOT01", "LB", "01-701-1239", 20.0, "KETONES", "Ketones", "URINALYSIS", "0", "", "", "", "0", 0.0, "", null, null, "NORMAL", "Y", 1.0, "SCREENING 1", -7.0, "SCREENING", "2013-12-28T12:44", -14.0]
["CDISCPILOT01", "LB", "01-701-1239", 72.0, "KETONES", "Ketones", "URINALYSIS", "0", "", "", "", "0", 0.0, "", null, null, "NORMAL", "", 4.0, "WEEK 2", 14.0, "TREATMENT", "2014-01-25T10:05", 15.0]
["CDISCPILOT01", "LB", "01-701-1239", 197.0, "KETONES", "Ketones", "URINALYSIS", "0", "", "", "", "0", 0.0, "", null, null, "NORMAL", "", 9.0, "WEEK 12", 84.0, "TREATMENT", "2014-04-02T08:31", 82.0]
["CDISCPILOT01", "LB", "01-701-1239", 292.0, "KETONES", "Ketones", "URINALYSIS", "0", "", "", "", "0", 0.0, "", null, null, "NORMAL", "", 12.0, "WEEK 24", 168.0, "TREATMENT", "2014-06-27T10:11", 168.0]
["CDISCPILOT01", "LB", "01-701-1239", 27.0, "PH", "pH", "URINALYSIS", "5.0", "", "5", "8", "5", 5.0, "", 5.0, 8.0, "NORMAL", "Y", 1.0, "SCREENING 1", -7.0, "SCREENING", "2013-12-28T12:44", -14.0]
["CDISCPILOT01", "LB", "01-701-1239", 79.0, "PH", "pH", "URINALYSIS", "6.0", "", "5", "8", "6", 6.0, "", 5.0, 8.0, "NORMAL", "", 4.0, "WEEK 2", 14.0, "TREATMENT", "2014-01-25T10:05", 15.0]
["CDISCPILOT01", "LB", "01-701-1239", 204.0, "PH", "pH", "URINALYSIS", "5.0", "", "5", "8", "5", 5.0, "", 5.0, 8.0, "NORMAL", "", 9.0, "WEEK 12", 84.0, "TREATMENT", "2014-04-02T08:31", 82.0]
["CDISCPILOT01", "LB", "01-701-1239", 299.0, "PH", "pH", "URINALYSIS", "6.0", "", "5", "8", "6", 6.0, "", 5.0, 8.0, "NORMAL", "", 12.0, "WEEK 24", 168.0, "TREATMENT", "2014-06-27T10:11", 168.0]
["CDISCPILOT01", "LB", "01-701-1239", 32.0, "SPGRAV", "Specific Gravity", "URINALYSIS", "1.018", "", "1.01", "1.034", "1.018", 1.018, "", 1.01, 1.034, "NORMAL", "Y", 1.0, "SCREENING 1", -7.0, "SCREENING", "2013-12-28T12:44", -14.0]
["CDISCPILOT01", "LB", "01-701-1239", 84.0, "SPGRAV", "Specific Gravity", "URINALYSIS", "1.030", "", "1.01", "1.034", "1.03", 1.03, "", 1.01, 1.034, "NORMAL", "", 4.0, "WEEK 2", 14.0, "TREATMENT", "2014-01-25T10:05", 15.0]
["CDISCPILOT01", "LB", "01-701-1239", 209.0, "SPGRAV", "Specific Gravity", "URINALYSIS", "1.013", "", "1.01", "1.034", "1.013", 1.013, "", 1.01, 1.034, "NORMAL", "", 9.0, "WEEK 12", 84.0, "TREATMENT", "2014-04-02T08:31", 82.0]
["CDISCPILOT01", "LB", "01-701-1239", 304.0, "SPGRAV", "Specific Gravity", "URINALYSIS", "1.018", "", "1.01", "1.034", "1.018", 1.018, "", 1.01, 1.034, "NORMAL", "", 12.0, "WEEK 24", 168.0, "TREATMENT", "2014-06-27T10:11", 168.0]
["CDISCPILOT01", "LB", "01-701-1239", 33.0, "TSH", "Thyrotropin", "OTHER", "1.42", "mIU/L", "0.32", "5", "1.42", 1.42, "mU/L", 0.32, 5.0, "NORMAL", "Y", 1.0, "SCREENING 1", -7.0, "SCREENING", "2013-12-28T12:44", -14.0]
["CDISCPILOT01", "LB", "01-701-1239", 35.0, "UROBIL", "Urobilinogen", "URINALYSIS", "0", "", "", "", "0", 0.0, "", null, null, "NORMAL", "Y", 1.0, "SCREENING 1", -7.0, "SCREENING", "2013-12-28T12:44", -14.0]
["CDISCPILOT01", "LB", "01-701-1239", 86.0, "UROBIL", "Urobilinogen", "URINALYSIS", "0", "", "", "", "0", 0.0, "", null, null, "NORMAL", "", 4.0, "WEEK 2", 14.0, "TREATMENT", "2014-01-25T10:05", 15.0]
["CDISCPILOT01", "LB", "01-701-1239", 211.0, "UROBIL", "Urobilinogen", "URINALYSIS", "0", "", "", "", "0", 0.0, "", null, null, "NORMAL", "", 9.0, "WEEK 12", 84.0, "TREATMENT", "2014-04-02T08:31", 82.0]
["CDISCPILOT01", "LB", "01-701-1239", 306.0, "UROBIL", "Urobilinogen", "URINALYSIS", "0", "", "", "", "0", 0.0, "", null, null, "NORMAL", "", 12.0, "WEEK 24", 168.0, "TREATMENT", "2014-06-27T10:11", 168.0]
["CDISCPILOT01", "LB", "01-701-1239", 36.0, "VITB12", "Vitamin B12", "OTHER", "640", "ng/L", "200", "900", "472.192", 472.192, "pmol/L", 148.0, 664.0, "NORMAL", "Y", 1.0, "SCREENING 1", -7.0, "SCREENING", "2013-12-28T12:44", -14.0]
["CDISCPILOT01", "LB", "01-701-1275", 12.0, "COLOR", "Color", "URINALYSIS", "N", "", "", "", "N", null, "", null, null, "NORMAL", "Y", 1.0, "SCREENING 1", -7.0, "SCREENING", "2014-01-25T09:26", -13.0]
["CDISCPILOT01", "LB", "01-701-1275", 49.0, "COLOR", "Color", "URINALYSIS", "N", "", "", "", "N", null, "", null, null, "NORMAL", "", 4.0, "WEEK 2", 14.0, "TREATMENT", "2014-02-22T08:22", 16.0]
["CDISCPILOT01", "LB", "01-701-1275", 173.0, "COLOR", "Color", "URINALYSIS", "N", "", "", "", "N", null, "", null, null, "NORMAL", "", 9.0, "WEEK 12", 84.0, "TREATMENT", "2014-05-03T08:15", 86.0]
["CDISCPILOT01", "LB", "01-701-1275", 206.0, "COLOR", "Color", "URINALYSIS", "N", "", "", "", "N", null, "", null, null, "NORMAL", "", 10.0, "WEEK 16", 112.0, "TREATMENT", "2014-06-14T12:35", 128.0]
["CDISCPILOT01", "LB", "01-701-1275", 20.0, "KETONES", "Ketones", "URINALYSIS", "0", "", "", "", "0", 0.0, "", null, null, "NORMAL", "Y", 1.0, "SCREENING 1", -7.0, "SCREENING", "2014-01-25T09:26", -13.0]
["CDISCPILOT01", "LB", "01-701-1275", 57.0, "KETONES", "Ketones", "URINALYSIS", "0", "", "", "", "0", 0.0, "", null, null, "NORMAL", "", 4.0, "WEEK 2", 14.0, "TREATMENT", "2014-02-22T08:22", 16.0]
["CDISCPILOT01", "LB", "01-701-1275", 180.0, "KETONES", "Ketones", "URINALYSIS", "0", "", "", "", "0", 0.0, "", null, null, "NORMAL", "", 9.0, "WEEK 12", 84.0, "TREATMENT", "2014-05-03T08:15", 86.0]
["CDISCPILOT01", "LB", "01-701-1275", 214.0, "KETONES", "Ketones", "URINALYSIS", "0", "", "", "", "0", 0.0, "", null, null, "NORMAL", "", 10.0, "WEEK 16", 112.0, "TREATMENT", "2014-06-14T12:35", 128.0]
["CDISCPILOT01", "LB", "01-701-1275", 27.0, "PH", "pH", "URINALYSIS", "5.0", "", "5", "8", "5", 5.0, "", 5.0, 8.0, "NORMAL", "Y", 1.0, "SCREENING 1", -7.0, "SCREENING", "2014-01-25T09:26", -13.0]
["CDISCPILOT01", "LB", "01-701-1275", 64.0, "PH", "pH", "URINALYSIS", "7.0", "", "5", "8", "7", 7.0, "", 5.0, 8.0, "NORMAL", "", 4.0, "WEEK 2", 14.0, "TREATMENT", "2014-02-22T08:22", 16.0]
["CDISCPILOT01", "LB", "01-701-1275", 186.0, "PH", "pH", "URINALYSIS", "6.0", "", "5", "8", "6", 6.0, "", 5.0, 8.0, "NORMAL", "", 9.0, "WEEK 12", 84.0, "TREATMENT", "2014-05-03T08:15", 86.0]
["CDISCPILOT01", "LB", "01-701-1275", 221.0, "PH", "pH", "URINALYSIS", "6.0", "", "5", "8", "6", 6.0, "", 5.0, 8.0, "NORMAL", "", 10.0, "WEEK 16", 112.0, "TREATMENT", "2014-06-14T12:35", 128.0]
["CDISCPILOT01", "LB", "01-701-1275", 32.0, "SPGRAV", "Specific Gravity", "URINALYSIS", "1.022", "", "1.006", "1.03", "1.022", 1.022, "", 1.006, 1.03, "NORMAL", "Y", 1.0, "SCREENING 1", -7.0, "SCREENING", "2014-01-25T09:26", -13.0]
["CDISCPILOT01", "LB", "01-701-1275", 69.0, "SPGRAV", "Specific Gravity", "URINALYSIS", "1.022", "", "1.006", "1.03", "1.022", 1.022, "", 1.006, 1.03, "NORMAL", "", 4.0, "WEEK 2", 14.0, "TREATMENT", "2014-02-22T08:22", 16.0]
["CDISCPILOT01", "LB", "01-701-1275", 191.0, "SPGRAV", "Specific Gravity", "URINALYSIS", "1.021", "", "1.006", "1.03", "1.021", 1.021, "", 1.006, 1.03, "NORMAL", "", 9.0, "WEEK 12", 84.0, "TREATMENT", "2014-05-03T08:15", 86.0]
["CDISCPILOT01", "LB", "01-701-1275", 226.0, "SPGRAV", "Specific Gravity", "URINALYSIS", "1.023", "", "1.006", "1.03", "1.023", 1.023, "", 1.006, 1.03, "NORMAL", "", 10.0, "WEEK 16", 112.0, "TREATMENT", "2014-06-14T12:35", 128.0]
["CDISCPILOT01", "LB", "01-701-1275", 33.0, "TSH", "Thyrotropin", "OTHER", "1.42", "mIU/L", "0.32", "5", "1.42", 1.42, "mU/L", 0.32, 5.0, "NORMAL", "Y", 1.0, "SCREENING 1", -7.0, "SCREENING", "2014-01-25T09:26", -13.0]
["CDISCPILOT01", "LB", "01-701-1275", 35.0, "UROBIL", "Urobilinogen", "URINALYSIS", "0", "", "", "", "0", 0.0, "", null, null, "NORMAL", "Y", 1.0, "SCREENING 1", -7.0, "SCREENING", "2014-01-25T09:26", -13.0]
["CDISCPILOT01", "LB", "01-701-1275", 71.0, "UROBIL", "Urobilinogen", "URINALYSIS", "0", "", "", "", "0", 0.0, "", null, null, "NORMAL", "", 4.0, "WEEK 2", 14.0, "TREATMENT", "2014-02-22T08:22", 16.0]
["CDISCPILOT01", "LB", "01-701-1275", 193.0, "UROBIL", "Urobilinogen", "URINALYSIS", "0", "", "", "", "0", 0.0, "", null, null, "NORMAL", "", 9.0, "WEEK 12", 84.0, "TREATMENT", "2014-05-03T08:15", 86.0]
["CDISCPILOT01", "LB", "01-701-1275", 228.0, "UROBIL", "Urobilinogen", "URINALYSIS", "0", "", "", "", "0", 0.0, "", null, null, "NORMAL", "", 10.0, "WEEK 16", 112.0, "TREATMENT", "2014-06-14T12:35", 128.0]
["CDISCPILOT01", "LB", "01-701-1275", 36.0, "VITB12", "Vitamin B12", "OTHER", "271", "ng/L", "200", "900", "199.9438", 199.94379999999998, "pmol/L", 148.0, 664.0, "NORMAL", "Y", 1.0, "SCREENING 1", -7.0, "SCREENING", "2014-01-25T09:26", -13.0]
["CDISCPILOT01", "LB", "01-701-1287", 12.0, "COLOR", "Color", "URINALYSIS", "N", "", "", "", "N", null, "", null, null, "NORMAL", "Y", 1.0, "SCREENING 1", -7.0, "SCREENING", "2014-01-17T12:16", -8.0]
["CDISCPILOT01", "LB", "01-701-1287", 49.0, "COLOR", "Color", "URINALYSIS", "N", "", "", "", "N", null, "", null, null, "NORMAL", "", 4.0, "WEEK 2", 14.0, "TREATMENT", "2014-02-11T10:50", 18.0]
["CDISCPILOT01", "LB", "01-701-1287", 174.0, "COLOR", "Color", "URINALYSIS", "N", "", "", "", "N", null, "", null, null, "NORMAL", "", 9.0, "WEEK 12", 84.0, "TREATMENT", "2014-04-17T14:00", 83.0]
["CDISCPILOT01", "LB", "01-701-1287", 270.0, "COLOR", "Color", "URINALYSIS", "N", "", "", "", "N", null, "", null, null, "NORMAL", "", 12.0, "WEEK 24", 168.0, "TREATMENT", "2014-07-12T14:10", 169.0]
["CDISCPILOT01", "LB", "01-701-1287", 20.0, "KETONES", "Ketones", "URINALYSIS", "0", "", "", "", "0", 0.0, "", null, null, "NORMAL", "Y", 1.0, "SCREENING 1", -7.0, "SCREENING", "2014-01-17T12:16", -8.0]
["CDISCPILOT01", "LB", "01-701-1287", 57.0, "KETONES", "Ketones", "URINALYSIS", "0", "", "", "", "0", 0.0, "", null, null, "NORMAL", "", 4.0, "WEEK 2", 14.0, "TREATMENT", "2014-02-11T10:50", 18.0]
["CDISCPILOT01", "LB", "01-701-1287", 182.0, "KETONES", "Ketones", "URINALYSIS", "0", "", "", "", "0", 0.0, "", null, null, "NORMAL", "", 9.0, "WEEK 12", 84.0, "TREATMENT", "2014-04-17T14:00", 83.0]
["CDISCPILOT01", "LB", "01-701-1287", 278.0, "KETONES", "Ketones", "URINALYSIS", "0", "", "", "", "0", 0.0, "", null, null, "NORMAL", "", 12.0, "WEEK 24", 168.0, "TREATMENT", "2014-07-12T14:10", 169.0]
["CDISCPILOT01", "LB", "01-701-1287", 27.0, "PH", "pH", "URINALYSIS", "6.0", "", "5", "8", "6", 6.0, "", 5.0, 8.0, "NORMAL", "Y", 1.0, "SCREENING 1", -7.0, "SCREENING", "2014-01-17T12:16", -8.0]
["CDISCPILOT01", "LB", "01-701-1287", 64.0, "PH", "pH", "URINALYSIS", "5.0", "", "5", "8", "5", 5.0, "", 5.0, 8.0, "NORMAL", "", 4.0, "WEEK 2", 14.0, "TREATMENT", "2014-02-11T10:50", 18.0]
["CDISCPILOT01", "LB", "01-701-1287", 189.0, "PH", "pH", "URINALYSIS", "5.0", "", "5", "8", "5", 5.0, "", 5.0, 8.0, "NORMAL", "", 9.0, "WEEK 12", 84.0, "TREATMENT", "2014-04-17T14:00", 83.0]
["CDISCPILOT01", "LB", "01-701-1287", 286.0, "PH", "pH", "URINALYSIS", "7.0", "", "5", "8", "7", 7.0, "", 5.0, 8.0, "NORMAL", "", 12.0, "WEEK 24", 168.0, "TREATMENT", "2014-07-12T14:10", 169.0]
["CDISCPILOT01", "LB", "01-701-1287", 32.0, "SPGRAV", "Specific Gravity", "URINALYSIS", "1.009", "", "1.01", "1.034", "1.009", 1.009, "", 1.01, 1.034, "LOW", "Y", 1.0, "SCREENING 1", -7.0, "SCREENING", "2014-01-17T12:16", -8.0]
["CDISCPILOT01", "LB", "01-701-1287", 69.0, "SPGRAV", "Specific Gravity", "URINALYSIS", "1.007", "", "1.01", "1.034", "1.007", 1.007, "", 1.01, 1.034, "LOW", "", 4.0, "WEEK 2", 14.0, "TREATMENT", "2014-02-11T10:50", 18.0]
["CDISCPILOT01", "LB", "01-701-1287", 194.0, "SPGRAV", "Specific Gravity", "URINALYSIS", "1.008", "", "1.01", "1.034", "1.008", 1.008, "", 1.01, 1.034, "LOW", "", 9.0, "WEEK 12", 84.0, "TREATMENT", "2014-04-17T14:00", 83.0]
["CDISCPILOT01", "LB", "01-701-1287", 291.0, "SPGRAV", "Specific Gravity", "URINALYSIS", "1.013", "", "1.01", "1.034", "1.013", 1.013, "", 1.01, 1.034, "NORMAL", "", 12.0, "WEEK 24", 168.0, "TREATMENT", "2014-07-12T14:10", 169.0]
["CDISCPILOT01", "LB", "01-701-1287", 33.0, "TSH", "Thyrotropin", "OTHER", "2.09", "mIU/L", "0.32", "5", "2.09", 2.09, "mU/L", 0.32, 5.0, "NORMAL", "Y", 1.0, "SCREENING 1", -7.0, "SCREENING", "2014-01-17T12:16", -8.0]
["CDISCPILOT01", "LB", "01-701-1287", 35.0, "UROBIL", "Urobilinogen", "URINALYSIS", "0", "", "", "", "0", 0.0, "", null, null, "NORMAL", "Y", 1.0, "SCREENING 1", -7.0, "SCREENING", "2014-01-17T12:16", -8.0]
["CDISCPILOT01", "LB", "01-701-1287", 71.0, "UROBIL", "Urobilinogen", "URINALYSIS", "0", "", "", "", "0", 0.0, "", null, null, "NORMAL", "", 4.0, "WEEK 2", 14.0, "TREATMENT", "2014-02-11T10:50", 18.0]
["CDISCPILOT01", "LB", "01-701-1287", 196.0, "UROBIL", "Urobilinogen", "URINALYSIS", "0", "", "", "", "0", 0.0, "", null, null, "NORMAL", "", 9.0, "WEEK 12", 84.0, "TREATMENT", "2014-04-17T14:00", 83.0]
["CDISCPILOT01", "LB", "01-701-1287", 293.0, "UROBIL", "Urobilinogen", "URINALYSIS", "0", "", "", "", "0", 0.0, "", null, null, "NORMAL", "", 12.0, "WEEK 24", 168.0, "TREATMENT", "2014-07-12T14:10", 169.0]
["CDISCPILOT01", "LB", "01-701-1287", 36.0, "VITB12", "Vitamin B12", "OTHER", "446", "ng/L", "200", "900", "329.0588", 329.0588, "pmol/L", 148.0, 664.0, "NORMAL", "Y", 1.0, "SCREENING 1", -7.0, "SCREENING", "2014-01-17T12:16", -8.0]
["CDISCPILOT01", "LB", "01-701-1294", 12.0, "COLOR", "Color", "URINALYSIS", "N", "", "", "", "N", null, "", null, null, "NORMAL", "Y", 1.0, "SCREENING 1", -7.0, "SCREENING", "2013-03-17T12:03", -7.0]
["CDISCPILOT01", "LB", "01-701-1294", 49.0, "COLOR", "Color", "URINALYSIS", "N", "", "", "", "N", null, "", null, null, "NORMAL", "", 4.0, "WEEK 2", 14.0, "TREATMENT", "2013-04-10T08:57", 18.0]
["CDISCPILOT01", "LB", "01-701-1294", 174.0, "COLOR", "Color", "URINALYSIS", "N", "", "", "", "N", null, "", null, null, "NORMAL", "", 9.0, "WEEK 12", 84.0, "TREATMENT", "2013-06-14T09:47", 83.0]
["CDISCPILOT01", "LB", "01-701-1294", 20.0, "KETONES", "Ketones", "URINALYSIS", "0", "", "", "", "0", 0.0, "", null, null, "NORMAL", "Y", 1.0, "SCREENING 1", -7.0, "SCREENING", "2013-03-17T12:03", -7.0]
["CDISCPILOT01", "LB", "01-701-1294", 57.0, "KETONES", "Ketones", "URINALYSIS", "0", "", "", "", "0", 0.0, "", null, null, "NORMAL", "", 4.0, "WEEK 2", 14.0, "TREATMENT", "2013-04-10T08:57", 18.0]
["CDISCPILOT01", "LB", "01-701-1294", 182.0, "KETONES", "Ketones", "URINALYSIS", "0", "", "", "", "0", 0.0, "", null, null, "NORMAL", "", 9.0, "WEEK 12", 84.0, "TREATMENT", "2013-06-14T09:47", 83.0]
["CDISCPILOT01", "LB", "01-701-1294", 27.0, "PH", "pH", "URINALYSIS", "5.0", "", "5", "8", "5", 5.0, "", 5.0, 8.0, "NORMAL", "Y", 1.0, "SCREENING 1", -7.0, "SCREENING", "2013-03-17T12:03", -7.0]
["CDISCPILOT01", "LB", "01-701-1294", 64.0, "PH", "pH", "URINALYSIS", "5.0", "", "5", "8", "5", 5.0, "", 5.0, 8.0, "NORMAL", "", 4.0, "WEEK 2", 14.0, "TREATMENT", "2013-04-10T08:57", 18.0]
["CDISCPILOT01", "LB", "01-701-1294", 189.0, "PH", "pH", "URINALYSIS", "5.0", "", "5", "8", "5", 5.0, "", 5.0, 8.0, "NORMAL", "", 9.0, "WEEK 12", 84.0, "TREATMENT", "2013-06-14T09:47", 83.0]
["CDISCPILOT01", "LB", "01-701-1294", 32.0, "SPGRAV", "Specific Gravity", "URINALYSIS", "1.018", "", "1.006", "1.03", "1.018", 1.018, "", 1.006, 1.03, "NORMAL", "Y", 1.0, "SCREENING 1", -7.0, "SCREENING", "2013-03-17T12:03", -7.0]
["CDISCPILOT01", "LB", "01-701-1294", 69.0, "SPGRAV", "Specific Gravity", "URINALYSIS", "1.018", "", "1.006", "1.03", "1.018", 1.018, "", 1.006, 1.03, "NORMAL", "", 4.0, "WEEK 2", 14.0, "TREATMENT", "2013-04-10T08:57", 18.0]
["CDISCPILOT01", "LB", "01-701-1294", 194.0, "SPGRAV", "Specific Gravity", "URINALYSIS", "1.017", "", "1.006", "1.03", "1.017", 1.017, "", 1.006, 1.03, "NORMAL", "", 9.0, "WEEK 12", 84.0, "TREATMENT", "2013-06-14T09:47", 83.0]
["CDISCPILOT01", "LB", "01-701-1294", 33.0, "TSH", "Thyrotropin", "OTHER", "1.85", "mIU/L", "0.32", "5", "1.85", 1.85, "mU/L", 0.32, 5.0, "NORMAL", "Y", 1.0, "SCREENING 1", -7.0, "SCREENING", "2013-03-17T12:03", -7.0]
["CDISCPILOT01", "LB", "01-701-1294", 35.0, "UROBIL", "Urobilinogen", "URINALYSIS", "0", "", "", "", "0", 0.0, "", null, null, "NORMAL", "Y", 1.0, "SCREENING 1", -7.0, "SCREENING", "2013-03-17T12:03", -7.0]
["CDISCPILOT01", "LB", "01-701-1294", 71.0, "UROBIL", "Urobilinogen", "URINALYSIS", "0", "", "", "", "0", 0.0, "", null, null, "NORMAL", "", 4.0, "WEEK 2", 14.0, "TREATMENT", "2013-04-10T08:57", 18.0]
["CDISCPILOT01", "LB", "01-701-1294", 196.0, "UROBIL", "Urobilinogen", "URINALYSIS", "0", "", "", "", "0", 0.0, "", null, null, "NORMAL", "", 9.0, "WEEK 12", 84.0, "TREATMENT", "2013-06-14T09:47", 83.0]
["CDISCPILOT01", "LB", "01-701-1294", 36.0, "VITB12", "Vitamin B12", "OTHER", "366", "ng/L", "200", "900", "270.0348", 270.0348, "pmol/L", 148.0, 664.0, "NORMAL", "Y", 1.0, "SCREENING 1", -7.0, "SCREENING", "2013-03-17T12:03", -7.0]
["CDISCPILOT01", "LB", "01-701-1302", 12.0, "COLOR", "Color", "URINALYSIS", "N", "", "", "", "N", null, "", null, null, "NORMAL", "Y", 1.0, "SCREENING 1", -7.0, "SCREENING", "2013-08-20T12:27", -9.0]
["CDISCPILOT01", "LB", "01-701-1302", 49.0, "COLOR", "Color", "URINALYSIS", "N", "", "", "", "N", null, "", null, null, "NORMAL", "", 4.0, "WEEK 2", 14.0, "TREATMENT", "2013-09-15T12:44", 18.0]
["CDISCPILOT01", "LB", "01-701-1302", 174.0, "COLOR", "Color", "URINALYSIS", "N", "", "", "", "N", null, "", null, null, "NORMAL", "", 9.0, "WEEK 12", 84.0, "TREATMENT", "2013-11-05T13:54", 69.0]
["CDISCPILOT01", "LB", "01-701-1302", 20.0, "KETONES", "Ketones", "URINALYSIS", "0", "", "", "", "0", 0.0, "", null, null, "NORMAL", "Y", 1.0, "SCREENING 1", -7.0, "SCREENING", "2013-08-20T12:27", -9.0]
["CDISCPILOT01", "LB", "01-701-1302", 57.0, "KETONES", "Ketones", "URINALYSIS", "0", "", "", "", "0", 0.0, "", null, null, "NORMAL", "", 4.0, "WEEK 2", 14.0, "TREATMENT", "2013-09-15T12:44", 18.0]
["CDISCPILOT01", "LB", "01-701-1302", 182.0, "KETONES", "Ketones", "URINALYSIS", "0", "", "", "", "0", 0.0, "", null, null, "NORMAL", "", 9.0, "WEEK 12", 84.0, "TREATMENT", "2013-11-05T13:54", 69.0]
["CDISCPILOT01", "LB", "01-701-1302", 27.0, "PH", "pH", "URINALYSIS", "5.0", "", "5", "8", "5", 5.0, "", 5.0, 8.0, "NORMAL", "Y", 1.0, "SCREENING 1", -7.0, "SCREENING", "2013-08-20T12:27", -9.0]
["CDISCPILOT01", "LB", "01-701-1302", 64.0, "PH", "pH", "URINALYSIS", "5.0", "", "5", "8", "5", 5.0, "", 5.0, 8.0, "NORMAL", "", 4.0, "WEEK 2", 14.0, "TREATMENT", "2013-09-15T12:44", 18.0]
["CDISCPILOT01", "LB", "01-701-1302", 189.0, "PH", "pH", "URINALYSIS", "5.0", "", "5", "8", "5", 5.0, "", 5.0, 8.0, "NORMAL", "", 9.0, "WEEK 12", 84.0, "TREATMENT", "2013-11-05T13:54", 69.0]
["CDISCPILOT01", "LB", "01-701-1302", 32.0, "SPGRAV", "Specific Gravity", "URINALYSIS", "1.021", "", "1.006", "1.03", "1.021", 1.021, "", 1.006, 1.03, "NORMAL", "Y", 1.0, "SCREENING 1", -7.0, "SCREENING", "2013-08-20T12:27", -9.0]
["CDISCPILOT01", "LB", "01-701-1302", 69.0, "SPGRAV", "Specific Gravity", "URINALYSIS", "1.021", "", "1.006", "1.03", "1.021", 1.021, "", 1.006, 1.03, "NORMAL", "", 4.0, "WEEK 2", 14.0, "TREATMENT", "2013-09-15T12:44", 18.0]
["CDISCPILOT01", "LB", "01-701-1302", 194.0, "SPGRAV", "Specific Gravity", "URINALYSIS", "1.013", "", "1.006", "1.03", "1.013", 1.013, "", 1.006, 1.03, "NORMAL", "", 9.0, "WEEK 12", 84.0, "TREATMENT", "2013-11-05T13:54", 69.0]
["CDISCPILOT01", "LB", "01-701-1302", 33.0, "TSH", "Thyrotropin", "OTHER", "1.89", "mIU/L", "0.32", "5", "1.89", 1.89, "mU/L", 0.32, 5.0, "NORMAL", "Y", 1.0, "SCREENING 1", -7.0, "SCREENING", "2013-08-20T12:27", -9.0]
["CDISCPILOT01", "LB", "01-701-1302", 35.0, "UROBIL", "Urobilinogen", "URINALYSIS", "0", "", "", "", "0", 0.0, "", null, null, "NORMAL", "Y", 1.0, "SCREENING 1", -7.0, "SCREENING", "2013-08-20T12:27", -9.0]
["CDISCPILOT01", "LB", "01-701-1302", 71.0, "UROBIL", "Urobilinogen", "URINALYSIS", "0", "", "", "", "0", 0.0, "", null, null, "NORMAL", "", 4.0, "WEEK 2", 14.0, "TREATMENT", "2013-09-15T12:44", 18.0]
["CDISCPILOT01", "LB", "01-701-1302", 196.0, "UROBIL", "Urobilinogen", "URINALYSIS", "0", "", "", "", "0", 0.0, "", null, null, "NORMAL", "", 9.0, "WEEK 12", 84.0, "TREATMENT", "2013-11-05T13:54", 69.0]
["CDISCPILOT01", "LB", "01-701-1302", 36.0, "VITB12", "Vitamin B12", "OTHER", "714", "ng/L", "200", "900", "526.7892", 526.7891999999999, "pmol/L", 148.0, 664.0, "NORMAL", "Y", 1.0, "SCREENING 1", -7.0, "SCREENING", "2013-08-20T12:27", -9.0]
["CDISCPILOT01", "LB", "01-701-1317", 12.0, "COLOR", "Color", "URINALYSIS", "N", "", "", "", "N", null, "", null, null, "NORMAL", "Y", 1.0, "SCREENING 1", -7.0, "SCREENING", "2014-05-13T10:44", -9.0]
["CDISCPILOT01", "LB", "01-701-1317", 49.0, "COLOR", "Color", "URINALYSIS", "N", "", "", "", "N", null, "", null, null, "NORMAL", "", 1.1, "UNSCHEDULED 1.1", null, "SCREENING", "2014-05-10T15:37", -12.0]
["CDISCPILOT01", "LB", "01-701-1317", 80.0, "COLOR", "Color", "URINALYSIS", "N", "", "", "", "N", null, "", null, null, "NORMAL", "", 4.0, "WEEK 2", 14.0, "TREATMENT", "2014-06-05T08:25", 15.0]
["CDISCPILOT01", "LB", "01-701-1317", 205.0, "COLOR", "Color", "URINALYSIS", "N", "", "", "", "N", null, "", null, null, "NORMAL", "", 9.0, "WEEK 12", 84.0, "TREATMENT", "2014-08-15T14:12", 86.0]
["CDISCPILOT01", "LB", "01-701-1317", 300.0, "COLOR", "Color", "URINALYSIS", "N", "", "", "", "N", null, "", null, null, "NORMAL", "", 12.0, "WEEK 24", 168.0, "TREATMENT", "2014-11-06T13:15", 169.0]
["CDISCPILOT01", "LB", "01-701-1317", 20.0, "KETONES", "Ketones", "URINALYSIS", "0", "", "", "", "0", 0.0, "", null, null, "NORMAL", "Y", 1.0, "SCREENING 1", -7.0, "SCREENING", "2014-05-13T10:44", -9.0]
["CDISCPILOT01", "LB", "01-701-1317", 54.0, "KETONES", "Ketones", "URINALYSIS", "0", "", "", "", "0", 0.0, "", null, null, "NORMAL", "", 1.1, "UNSCHEDULED 1.1", null, "SCREENING", "2014-05-10T15:37", -12.0]
["CDISCPILOT01", "LB", "01-701-1317", 88.0, "KETONES", "Ketones", "URINALYSIS", "0", "", "", "", "0", 0.0, "", null, null, "NORMAL", "", 4.0, "WEEK 2", 14.0, "TREATMENT", "2014-06-05T08:25", 15.0]
["CDISCPILOT01", "LB", "01-701-1317", 213.0, "KETONES", "Ketones", "URINALYSIS", "0", "", "", "", "0", 0.0, "", null, null, "NORMAL", "", 9.0, "WEEK 12", 84.0, "TREATMENT", "2014-08-15T14:12", 86.0]
["CDISCPILOT01", "LB", "01-701-1317", 308.0, "KETONES", "Ketones", "URINALYSIS", "0", "", "", "", "0", 0.0, "", null, null, "NORMAL", "", 12.0, "WEEK 24", 168.0, "TREATMENT", "2014-11-06T13:15", 169.0]
["CDISCPILOT01", "LB", "01-701-1317", 27.0, "PH", "pH", "URINALYSIS", "5.0", "", "5", "8", "5", 5.0, "", 5.0, 8.0, "NORMAL", "Y", 1.0, "SCREENING 1", -7.0, "SCREENING", "2014-05-13T10:44", -9.0]
["CDISCPILOT01", "LB", "01-701-1317", 59.0, "PH", "pH", "URINALYSIS", "6.0", "", "5", "8", "6", 6.0, "", 5.0, 8.0, "NORMAL", "", 1.1, "UNSCHEDULED 1.1", null, "SCREENING", "2014-05-10T15:37", -12.0]
["CDISCPILOT01", "LB", "01-701-1317", 95.0, "PH", "pH", "URINALYSIS", "5.0", "", "5", "8", "5", 5.0, "", 5.0, 8.0, "NORMAL", "", 4.0, "WEEK 2", 14.0, "TREATMENT", "2014-06-05T08:25", 15.0]
["CDISCPILOT01", "LB", "01-701-1317", 220.0, "PH", "pH", "URINALYSIS", "5.0", "", "5", "8", "5", 5.0, "", 5.0, 8.0, "NORMAL", "", 9.0, "WEEK 12", 84.0, "TREATMENT", "2014-08-15T14:12", 86.0]
["CDISCPILOT01", "LB", "01-701-1317", 315.0, "PH", "pH", "URINALYSIS", "6.0", "", "5", "8", "6", 6.0, "", 5.0, 8.0, "NORMAL", "", 12.0, "WEEK 24", 168.0, "TREATMENT", "2014-11-06T13:15", 169.0]
["CDISCPILOT01", "LB", "01-701-1317", 32.0, "SPGRAV", "Specific Gravity", "URINALYSIS", "1.021", "", "1.006", "1.03", "1.021", 1.021, "", 1.006, 1.03, "NORMAL", "Y", 1.0, "SCREENING 1", -7.0, "SCREENING", "2014-05-13T10:44", -9.0]
["CDISCPILOT01", "LB", "01-701-1317", 63.0, "SPGRAV", "Specific Gravity", "URINALYSIS", "1.018", "", "1.006", "1.03", "1.018", 1.018, "", 1.006, 1.03, "NORMAL", "", 1.1, "UNSCHEDULED 1.1", null, "SCREENING", "2014-05-10T15:37", -12.0]
["CDISCPILOT01", "LB", "01-701-1317", 100.0, "SPGRAV", "Specific Gravity", "URINALYSIS", "1.022", "", "1.006", "1.03", "1.022", 1.022, "", 1.006, 1.03, "NORMAL", "", 4.0, "WEEK 2", 14.0, "TREATMENT", "2014-06-05T08:25", 15.0]
["CDISCPILOT01", "LB", "01-701-1317", 225.0, "SPGRAV", "Specific Gravity", "URINALYSIS", "1.027", "", "1.006", "1.03", "1.027", 1.027, "", 1.006, 1.03, "NORMAL", "", 9.0, "WEEK 12", 84.0, "TREATMENT", "2014-08-15T14:12", 86.0]
["CDISCPILOT01", "LB", "01-701-1317", 320.0, "SPGRAV", "Specific Gravity", "URINALYSIS", "1.030", "", "1.006", "1.03", "1.03", 1.03, "", 1.006, 1.03, "NORMAL", "", 12.0, "WEEK 24", 168.0, "TREATMENT", "2014-11-06T13:15", 169.0]
["CDISCPILOT01", "LB", "01-701-1317", 33.0, "TSH", "Thyrotropin", "OTHER", "0.78", "mIU/L", "0.32", "5", "0.78", 0.7799999999999999, "mU/L", 0.32, 5.0, "NORMAL", "Y", 1.0, "SCREENING 1", -7.0, "SCREENING", "2014-05-13T10:44", -9.0]
["CDISCPILOT01", "LB", "01-701-1317", 64.0, "TSH", "Thyrotropin", "OTHER", "0.86", "mIU/L", "0.32", "5", "0.86", 0.86, "mU/L", 0.32, 5.0, "NORMAL", "", 1.1, "UNSCHEDULED 1.1", null, "SCREENING", "2014-05-10T15:37", -12.0]
["CDISCPILOT01", "LB", "01-701-1317", 35.0, "UROBIL", "Urobilinogen", "URINALYSIS", "0", "", "", "", "0", 0.0, "", null, null, "NORMAL", "Y", 1.0, "SCREENING 1", -7.0, "SCREENING", "2014-05-13T10:44", -9.0]
["CDISCPILOT01", "LB", "01-701-1317", 66.0, "UROBIL", "Urobilinogen", "URINALYSIS", "0", "", "", "", "0", 0.0, "", null, null, "NORMAL", "", 1.1, "UNSCHEDULED 1.1", null, "SCREENING", "2014-05-10T15:37", -12.0]
["CDISCPILOT01", "LB", "01-701-1317", 102.0, "UROBIL", "Urobilinogen", "URINALYSIS", "0", "", "", "", "0", 0.0, "", null, null, "NORMAL", "", 4.0, "WEEK 2", 14.0, "TREATMENT", "2014-06-05T08:25", 15.0]
["CDISCPILOT01", "LB", "01-701-1317", 227.0, "UROBIL", "Urobilinogen", "URINALYSIS", "0", "", "", "", "0", 0.0, "", null, null, "NORMAL", "", 9.0, "WEEK 12", 84.0, "TREATMENT", "2014-08-15T14:12", 86.0]
["CDISCPILOT01", "LB", "01-701-1317", 322.0, "UROBIL", "Urobilinogen", "URINALYSIS", "0", "", "", "", "0", 0.0, "", null, null, "NORMAL", "", 12.0, "WEEK 24", 168.0, "TREATMENT", "2014-11-06T13:15", 169.0]
["CDISCPILOT01", "LB", "01-701-1317", 36.0, "VITB12", "Vitamin B12", "OTHER", "532", "ng/L", "200", "900", "392.5096", 392.5096, "pmol/L", 148.0, 664.0, "NORMAL", "Y", 1.0, "SCREENING 1", -7.0, "SCREENING", "2014-05-13T10:44", -9.0]
["CDISCPILOT01", "LB", "01-701-1317", 67.0, "VITB12", "Vitamin B12", "OTHER", "821", "ng/L", "200", "900", "605.7338", 605.7338, "pmol/L", 148.0, 664.0, "NORMAL", "", 1.1, "UNSCHEDULED 1.1", null, "SCREENING", "2014-05-10T15:37", -12.0]
["CDISCPILOT01", "LB", "01-701-1324", 12.0, "COLOR", "Color", "URINALYSIS", "N", "", "", "", "N", null, "", null, null, "NORMAL", "Y", 1.0, "SCREENING 1", -7.0, "SCREENING", "2012-09-16T13:35", -16.0]
["CDISCPILOT01", "LB", "01-701-1324", 59.0, "COLOR", "Color", "URINALYSIS", "N", "", "", "", "N", null, "", null, null, "NORMAL", "", 4.1, "UNSCHEDULED 4.1", null, "TREATMENT", "2012-10-25T10:11", 24.0]
["CDISCPILOT01", "LB", "01-701-1324", 183.0, "COLOR", "Color", "URINALYSIS", "N", "", "", "", "N", null, "", null, null, "NORMAL", "", 9.0, "WEEK 12", 84.0, "TREATMENT", "2012-12-25T08:58", 85.0]
["CDISCPILOT01", "LB", "01-701-1324", 278.0, "COLOR", "Color", "URINALYSIS", "N", "", "", "", "N", null, "", null, null, "NORMAL", "", 12.0, "WEEK 24", 168.0, "TREATMENT", "2013-03-19T12:25", 169.0]
["CDISCPILOT01", "LB", "01-701-1324", 20.0, "KETONES", "Ketones", "URINALYSIS", "0", "", "", "", "0", 0.0, "", null, null, "NORMAL", "Y", 1.0, "SCREENING 1", -7.0, "SCREENING", "2012-09-16T13:35", -16.0]
["CDISCPILOT01", "LB", "01-701-1324", 66.0, "KETONES", "Ketones", "URINALYSIS", "0", "", "", "", "0", 0.0, "", null, null, "NORMAL", "", 4.1, "UNSCHEDULED 4.1", null, "TREATMENT", "2012-10-25T10:11", 24.0]
["CDISCPILOT01", "LB", "01-701-1324", 191.0, "KETONES", "Ketones", "URINALYSIS", "0", "", "", "", "0", 0.0, "", null, null, "NORMAL", "", 9.0, "WEEK 12", 84.0, "TREATMENT", "2012-12-25T08:58", 85.0]
["CDISCPILOT01", "LB", "01-701-1324", 286.0, "KETONES", "Ketones", "URINALYSIS", "0", "", "", "", "0", 0.0, "", null, null, "NORMAL", "", 12.0, "WEEK 24", 168.0, "TREATMENT", "2013-03-19T12:25", 169.0]
["CDISCPILOT01", "LB", "01-701-1324", 27.0, "PH", "pH", "URINALYSIS", "5.0", "", "5", "8", "5", 5.0, "", 5.0, 8.0, "NORMAL", "Y", 1.0, "SCREENING 1", -7.0, "SCREENING", "2012-09-16T13:35", -16.0]
["CDISCPILOT01", "LB", "01-701-1324", 72.0, "PH", "pH", "URINALYSIS", "5.0", "", "5", "8", "5", 5.0, "", 5.0, 8.0, "NORMAL", "", 4.1, "UNSCHEDULED 4.1", null, "TREATMENT", "2012-10-25T10:11", 24.0]
["CDISCPILOT01", "LB", "01-701-1324", 198.0, "PH", "pH", "URINALYSIS", "5.0", "", "5", "8", "5", 5.0, "", 5.0, 8.0, "NORMAL", "", 9.0, "WEEK 12", 84.0, "TREATMENT", "2012-12-25T08:58", 85.0]
["CDISCPILOT01", "LB", "01-701-1324", 293.0, "PH", "pH", "URINALYSIS", "5.0", "", "5", "8", "5", 5.0, "", 5.0, 8.0, "NORMAL", "", 12.0, "WEEK 24", 168.0, "TREATMENT", "2013-03-19T12:25", 169.0]
["CDISCPILOT01", "LB", "01-701-1324", 31.0, "SPGRAV", "Specific Gravity", "URINALYSIS", "1.010", "", "1.006", "1.03", "1.01", 1.01, "", 1.006, 1.03, "NORMAL", "Y", 1.0, "SCREENING 1", -7.0, "SCREENING", "2012-09-16T13:35", -16.0]
["CDISCPILOT01", "LB", "01-701-1324", 77.0, "SPGRAV", "Specific Gravity", "URINALYSIS", "1.023", "", "1.006", "1.03", "1.023", 1.023, "", 1.006, 1.03, "NORMAL", "", 4.1, "UNSCHEDULED 4.1", null, "TREATMENT", "2012-10-25T10:11", 24.0]
["CDISCPILOT01", "LB", "01-701-1324", 203.0, "SPGRAV", "Specific Gravity", "URINALYSIS", "1.021", "", "1.006", "1.03", "1.021", 1.021, "", 1.006, 1.03, "NORMAL", "", 9.0, "WEEK 12", 84.0, "TREATMENT", "2012-12-25T08:58", 85.0]
["CDISCPILOT01", "LB", "01-701-1324", 298.0, "SPGRAV", "Specific Gravity", "URINALYSIS", "1.029", "", "1.006", "1.03", "1.029", 1.029, "", 1.006, 1.03, "NORMAL", "", 12.0, "WEEK 24", 168.0, "TREATMENT", "2013-03-19T12:25", 169.0]
["CDISCPILOT01", "LB", "01-701-1324", 32.0, "TSH", "Thyrotropin", "OTHER", "1.31", "mIU/L", "0.32", "5", "1.31", 1.31, "mU/L", 0.32, 5.0, "NORMAL", "Y", 1.0, "SCREENING 1", -7.0, "SCREENING", "2012-09-16T13:35", -16.0]
["CDISCPILOT01", "LB", "01-701-1324", 34.0, "UROBIL", "Urobilinogen", "URINALYSIS", "0", "", "", "", "0", 0.0, "", null, null, "NORMAL", "Y", 1.0, "SCREENING 1", -7.0, "SCREENING", "2012-09-16T13:35", -16.0]
["CDISCPILOT01", "LB", "01-701-1324", 79.0, "UROBIL", "Urobilinogen", "URINALYSIS", "0", "", "", "", "0", 0.0, "", null, null, "NORMAL", "", 4.1, "UNSCHEDULED 4.1", null, "TREATMENT", "2012-10-25T10:11", 24.0]
["CDISCPILOT01", "LB", "01-701-1324", 205.0, "UROBIL", "Urobilinogen", "URINALYSIS", "0", "", "", "", "0", 0.0, "", null, null, "NORMAL", "", 9.0, "WEEK 12", 84.0, "TREATMENT", "2012-12-25T08:58", 85.0]
["CDISCPILOT01", "LB", "01-701-1324", 300.0, "UROBIL", "Urobilinogen", "URINALYSIS", "0", "", "", "", "0", 0.0, "", null, null, "NORMAL", "", 12.0, "WEEK 24", 168.0, "TREATMENT", "2013-03-19T12:25", 169.0]
["CDISCPILOT01", "LB", "01-701-1324", 35.0, "VITB12", "Vitamin B12", "OTHER", "317", "ng/L", "200", "900", "233.8826", 233.8826, "pmol/L", 148.0, 664.0, "NORMAL", "Y", 1.0, "SCREENING 1", -7.0, "SCREENING", "2012-09-16T13:35", -16.0]
["CDISCPILOT01", "LB", "01-701-1324", 80.0, "VITB12", "Vitamin B12", "OTHER", "432", "ng/L", "200", "900", "318.7296", 318.7296, "pmol/L", 148.0, 664.0, "NORMAL", "", 4.1, "UNSCHEDULED 4.1", null, "TREATMENT", "2012-10-25T10:11", 24.0]
["CDISCPILOT01", "LB", "01-701-1341", 12.0, "COLOR", "Color", "URINALYSIS", "N", "", "", "", "N", null, "", null, null, "NORMAL", "Y", 1.0, "SCREENING 1", -7.0, "SCREENING", "2012-12-22T14:56", -14.0]
["CDISCPILOT01", "LB", "01-701-1341", 65.0, "COLOR", "Color", "URINALYSIS", "N", "", "", "", "N", null, "", null, null, "NORMAL", "", 4.0, "WEEK 2", 14.0, "TREATMENT", "2013-01-18T12:00", 14.0]
["CDISCPILOT01", "LB", "01-701-1341", 100.0, "COLOR", "Color", "URINALYSIS", "N", "", "", "", "N", null, "", null, null, "NORMAL", "", 5.0, "WEEK 4", 28.0, "TREATMENT", "2013-02-07T15:16", 34.0]
["CDISCPILOT01", "LB", "01-701-1341", 20.0, "KETONES", "Ketones", "URINALYSIS", "0", "", "", "", "0", 0.0, "", null, null, "NORMAL", "Y", 1.0, "SCREENING 1", -7.0, "SCREENING", "2012-12-22T14:56", -14.0]
["CDISCPILOT01", "LB", "01-701-1341", 73.0, "KETONES", "Ketones", "URINALYSIS", "0", "", "", "", "0", 0.0, "", null, null, "NORMAL", "", 4.0, "WEEK 2", 14.0, "TREATMENT", "2013-01-18T12:00", 14.0]
["CDISCPILOT01", "LB", "01-701-1341", 108.0, "KETONES", "Ketones", "URINALYSIS", "1", "", "", "", "1", 1.0, "", null, null, "ABNORMAL", "", 5.0, "WEEK 4", 28.0, "TREATMENT", "2013-02-07T15:16", 34.0]
["CDISCPILOT01", "LB", "01-701-1341", 27.0, "PH", "pH", "URINALYSIS", "5.0", "", "5", "8", "5", 5.0, "", 5.0, 8.0, "NORMAL", "Y", 1.0, "SCREENING 1", -7.0, "SCREENING", "2012-12-22T14:56", -14.0]
["CDISCPILOT01", "LB", "01-701-1341", 80.0, "PH", "pH", "URINALYSIS", "7.0", "", "5", "8", "7", 7.0, "", 5.0, 8.0, "NORMAL", "", 4.0, "WEEK 2", 14.0, "TREATMENT", "2013-01-18T12:00", 14.0]
["CDISCPILOT01", "LB", "01-701-1341", 115.0, "PH", "pH", "URINALYSIS", "5.0", "", "5", "8", "5", 5.0, "", 5.0, 8.0, "NORMAL", "", 5.0, "WEEK 4", 28.0, "TREATMENT", "2013-02-07T15:16", 34.0]
["CDISCPILOT01", "LB", "01-701-1341", 32.0, "SPGRAV", "Specific Gravity", "URINALYSIS", "1.023", "", "1.01", "1.034", "1.023", 1.023, "", 1.01, 1.034, "NORMAL", "Y", 1.0, "SCREENING 1", -7.0, "SCREENING", "2012-12-22T14:56", -14.0]
["CDISCPILOT01", "LB", "01-701-1341", 85.0, "SPGRAV", "Specific Gravity", "URINALYSIS", "1.030", "", "1.01", "1.034", "1.03", 1.03, "", 1.01, 1.034, "NORMAL", "", 4.0, "WEEK 2", 14.0, "TREATMENT", "2013-01-18T12:00", 14.0]
["CDISCPILOT01", "LB", "01-701-1341", 120.0, "SPGRAV", "Specific Gravity", "URINALYSIS", "1.021", "", "1.01", "1.034", "1.021", 1.021, "", 1.01, 1.034, "NORMAL", "", 5.0, "WEEK 4", 28.0, "TREATMENT", "2013-02-07T15:16", 34.0]
["CDISCPILOT01", "LB", "01-701-1341", 33.0, "TSH", "Thyrotropin", "OTHER", "0.22", "mIU/L", "0.32", "5", "0.22", 0.22, "mU/L", 0.32, 5.0, "LOW", "Y", 1.0, "SCREENING 1", -7.0, "SCREENING", "2012-12-22T14:56", -14.0]
["CDISCPILOT01", "LB", "01-701-1341", 52.0, "TSH", "Thyrotropin", "OTHER", "0.51", "mIU/L", "0.32", "5", "0.51", 0.5099999999999999, "mU/L", 0.32, 5.0, "NORMAL", "", 1.1, "UNSCHEDULED 1.1", null, "SCREENING", "2012-12-26T11:05", -10.0]
["CDISCPILOT01", "LB", "01-701-1341", 35.0, "UROBIL", "Urobilinogen", "URINALYSIS", "0", "", "", "", "0", 0.0, "", null, null, "NORMAL", "Y", 1.0, "SCREENING 1", -7.0, "SCREENING", "2012-12-22T14:56", -14.0]
["CDISCPILOT01", "LB", "01-701-1341", 87.0, "UROBIL", "Urobilinogen", "URINALYSIS", "0", "", "", "", "0", 0.0, "", null, null, "NORMAL", "", 4.0, "WEEK 2", 14.0, "TREATMENT", "2013-01-18T12:00", 14.0]
["CDISCPILOT01", "LB", "01-701-1341", 122.0, "UROBIL", "Urobilinogen", "URINALYSIS", "0", "", "", "", "0", 0.0, "", null, null, "NORMAL", "", 5.0, "WEEK 4", 28.0, "TREATMENT", "2013-02-07T15:16", 34.0]
["CDISCPILOT01", "LB", "01-701-1341", 36.0, "VITB12", "Vitamin B12", "OTHER", "597", "ng/L", "200", "900", "440.4666", 440.4666, "pmol/L", 148.0, 664.0, "NORMAL", "Y", 1.0, "SCREENING 1", -7.0, "SCREENING", "2012-12-22T14:56", -14.0]
["CDISCPILOT01", "LB", "01-701-1345", 12.0, "COLOR", "Color", "URINALYSIS", "N", "", "", "", "N", null, "", null, null, "NORMAL", "Y", 1.0, "SCREENING 1", -7.0, "SCREENING", "2013-10-01T12:50", -7.0]
["CDISCPILOT01", "LB", "01-701-1345", 49.0, "COLOR", "Color", "URINALYSIS", "N", "", "", "", "N", null, "", null, null, "NORMAL", "", 4.0, "WEEK 2", 14.0, "TREATMENT", "2013-10-24T10:41", 17.0]
["CDISCPILOT01", "LB", "01-701-1345", 174.0, "COLOR", "Color", "URINALYSIS", "N", "", "", "", "N", null, "", null, null, "NORMAL", "", 9.0, "WEEK 12", 84.0, "TREATMENT", "2013-12-31T15:07", 85.0]
["CDISCPILOT01", "LB", "01-701-1345", 269.0, "COLOR", "Color", "URINALYSIS", "N", "", "", "", "N", null, "", null, null, "NORMAL", "", 12.0, "WEEK 24", 168.0, "TREATMENT", "2014-03-18T14:12", 162.0]
["CDISCPILOT01", "LB", "01-701-1345", 20.0, "KETONES", "Ketones", "URINALYSIS", "0", "", "", "", "0", 0.0, "", null, null, "NORMAL", "Y", 1.0, "SCREENING 1", -7.0, "SCREENING", "2013-10-01T12:50", -7.0]
["CDISCPILOT01", "LB", "01-701-1345", 57.0, "KETONES", "Ketones", "URINALYSIS", "0", "", "", "", "0", 0.0, "", null, null, "NORMAL", "", 4.0, "WEEK 2", 14.0, "TREATMENT", "2013-10-24T10:41", 17.0]
["CDISCPILOT01", "LB", "01-701-1345", 182.0, "KETONES", "Ketones", "URINALYSIS", "0", "", "", "", "0", 0.0, "", null, null, "NORMAL", "", 9.0, "WEEK 12", 84.0, "TREATMENT", "2013-12-31T15:07", 85.0]
["CDISCPILOT01", "LB", "01-701-1345", 277.0, "KETONES", "Ketones", "URINALYSIS", "0", "", "", "", "0", 0.0, "", null, null, "NORMAL", "", 12.0, "WEEK 24", 168.0, "TREATMENT", "2014-03-18T14:12", 162.0]
["CDISCPILOT01", "LB", "01-701-1345", 27.0, "PH", "pH", "URINALYSIS", "5.0", "", "5", "8", "5", 5.0, "", 5.0, 8.0, "NORMAL", "Y", 1.0, "SCREENING 1", -7.0, "SCREENING", "2013-10-01T12:50", -7.0]
["CDISCPILOT01", "LB", "01-701-1345", 64.0, "PH", "pH", "URINALYSIS", "5.0", "", "5", "8", "5", 5.0, "", 5.0, 8.0, "NORMAL", "", 4.0, "WEEK 2", 14.0, "TREATMENT", "2013-10-24T10:41", 17.0]
["CDISCPILOT01", "LB", "01-701-1345", 189.0, "PH", "pH", "URINALYSIS", "5.0", "", "5", "8", "5", 5.0, "", 5.0, 8.0, "NORMAL", "", 9.0, "WEEK 12", 84.0, "TREATMENT", "2013-12-31T15:07", 85.0]
["CDISCPILOT01", "LB", "01-701-1345", 284.0, "PH", "pH", "URINALYSIS", "5.0", "", "5", "8", "5", 5.0, "", 5.0, 8.0, "NORMAL", "", 12.0, "WEEK 24", 168.0, "TREATMENT", "2014-03-18T14:12", 162.0]
["CDISCPILOT01", "LB", "01-701-1345", 32.0, "SPGRAV", "Specific Gravity", "URINALYSIS", "1.013", "", "1.006", "1.03", "1.013", 1.013, "", 1.006, 1.03, "NORMAL", "Y", 1.0, "SCREENING 1", -7.0, "SCREENING", "2013-10-01T12:50", -7.0]
["CDISCPILOT01", "LB", "01-701-1345", 69.0, "SPGRAV", "Specific Gravity", "URINALYSIS", "1.015", "", "1.006", "1.03", "1.015", 1.015, "", 1.006, 1.03, "NORMAL", "", 4.0, "WEEK 2", 14.0, "TREATMENT", "2013-10-24T10:41", 17.0]
["CDISCPILOT01", "LB", "01-701-1345", 194.0, "SPGRAV", "Specific Gravity", "URINALYSIS", "1.007", "", "1.006", "1.03", "1.007", 1.007, "", 1.006, 1.03, "NORMAL", "", 9.0, "WEEK 12", 84.0, "TREATMENT", "2013-12-31T15:07", 85.0]
["CDISCPILOT01", "LB", "01-701-1345", 289.0, "SPGRAV", "Specific Gravity", "URINALYSIS", "1.007", "", "1.006", "1.03", "1.007", 1.007, "", 1.006, 1.03, "NORMAL", "", 12.0, "WEEK 24", 168.0, "TREATMENT", "2014-03-18T14:12", 162.0]
["CDISCPILOT01", "LB", "01-701-1345", 33.0, "TSH", "Thyrotropin", "OTHER", "0.94", "mIU/L", "0.32", "5", "0.94", 0.94, "mU/L", 0.32, 5.0, "NORMAL", "Y", 1.0, "SCREENING 1", -7.0, "SCREENING", "2013-10-01T12:50", -7.0]
["CDISCPILOT01", "LB", "01-701-1345", 35.0, "UROBIL", "Urobilinogen", "URINALYSIS", "0", "", "", "", "0", 0.0, "", null, null, "NORMAL", "Y", 1.0, "SCREENING 1", -7.0, "SCREENING", "2013-10-01T12:50", -7.0]
["CDISCPILOT01", "LB", "01-701-1345", 71.0, "UROBIL", "Urobilinogen", "URINALYSIS", "0", "", "", "", "0", 0.0, "", null, null, "NORMAL", "", 4.0, "WEEK 2", 14.0, "TREATMENT", "2013-10-24T10:41", 17.0]
["CDISCPILOT01", "LB", "01-701-1345", 196.0, "UROBIL", "Urobilinogen", "URINALYSIS", "0", "", "", "", "0", 0.0, "", null, null, "NORMAL", "", 9.0, "WEEK 12", 84.0, "TREATMENT", "2013-12-31T15:07", 85.0]
["CDISCPILOT01", "LB", "01-701-1345", 291.0, "UROBIL", "Urobilinogen", "URINALYSIS", "0", "", "", "", "0", 0.0, "", null, null, "NORMAL", "", 12.0, "WEEK 24", 168.0, "TREATMENT", "2014-03-18T14:12", 162.0]
["CDISCPILOT01", "LB", "01-701-1345", 36.0, "VITB12", "Vitamin B12", "OTHER", "302", "ng/L", "200", "900", "222.8156", 222.8156, "pmol/L", 148.0, 664.0, "NORMAL", "Y", 1.0, "SCREENING 1", -7.0, "SCREENING", "2013-10-01T12:50", -7.0]
["CDISCPILOT01", "LB", "01-701-1360", 12.0, "COLOR", "Color", "URINALYSIS", "N", "", "", "", "N", null, "", null, null, "NORMAL", "Y", 1.0, "SCREENING 1", -7.0, "SCREENING", "2013-07-24T11:04", -7.0]
["CDISCPILOT01", "LB", "01-701-1360", 49.0, "COLOR", "Color", "URINALYSIS", "N", "", "", "", "N", null, "", null, null, "NORMAL", "", 4.0, "WEEK 2", 14.0, "TREATMENT", "2013-08-14T15:17", 15.0]
["CDISCPILOT01", "LB", "01-701-1360", 20.0, "KETONES", "Ketones", "URINALYSIS", "0", "", "", "", "0", 0.0, "", null, null, "NORMAL", "Y", 1.0, "SCREENING 1", -7.0, "SCREENING", "2013-07-24T11:04", -7.0]
["CDISCPILOT01", "LB", "01-701-1360", 57.0, "KETONES", "Ketones", "URINALYSIS", "0", "", "", "", "0", 0.0, "", null, null, "NORMAL", "", 4.0, "WEEK 2", 14.0, "TREATMENT", "2013-08-14T15:17", 15.0]
["CDISCPILOT01", "LB", "01-701-1360", 27.0, "PH", "pH", "URINALYSIS", "5.0", "", "5", "8", "5", 5.0, "", 5.0, 8.0, "NORMAL", "Y", 1.0, "SCREENING 1", -7.0, "SCREENING", "2013-07-24T11:04", -7.0]
["CDISCPILOT01", "LB", "01-701-1360", 64.0, "PH", "pH", "URINALYSIS", "5.0", "", "5", "8", "5", 5.0, "", 5.0, 8.0, "NORMAL", "", 4.0, "WEEK 2", 14.0, "TREATMENT", "2013-08-14T15:17", 15.0]
["CDISCPILOT01", "LB", "01-701-1360", 32.0, "SPGRAV", "Specific Gravity", "URINALYSIS", "1.014", "", "1.006", "1.03", "1.014", 1.014, "", 1.006, 1.03, "NORMAL", "Y", 1.0, "SCREENING 1", -7.0, "SCREENING", "2013-07-24T11:04", -7.0]
["CDISCPILOT01", "LB", "01-701-1360", 69.0, "SPGRAV", "Specific Gravity", "URINALYSIS", "1.022", "", "1.006", "1.03", "1.022", 1.022, "", 1.006, 1.03, "NORMAL", "", 4.0, "WEEK 2", 14.0, "TREATMENT", "2013-08-14T15:17", 15.0]
["CDISCPILOT01", "LB", "01-701-1360", 33.0, "TSH", "Thyrotropin", "OTHER", "1.09", "mIU/L", "0.32", "5", "1.09", 1.09, "mU/L", 0.32, 5.0, "NORMAL", "Y", 1.0, "SCREENING 1", -7.0, "SCREENING", "2013-07-24T11:04", -7.0]
["CDISCPILOT01", "LB", "01-701-1360", 35.0, "UROBIL", "Urobilinogen", "URINALYSIS", "0", "", "", "", "0", 0.0, "", null, null, "NORMAL", "Y", 1.0, "SCREENING 1", -7.0, "SCREENING", "2013-07-24T11:04", -7.0]
["CDISCPILOT01", "LB", "01-701-1360", 71.0, "UROBIL", "Urobilinogen", "URINALYSIS", "0", "", "", "", "0", 0.0, "", null, null, "NORMAL", "", 4.0, "WEEK 2", 14.0, "TREATMENT", "2013-08-14T15:17", 15.0]
["CDISCPILOT01", "LB", "01-701-1360", 36.0, "VITB12", "Vitamin B12", "OTHER", "249", "ng/L", "200", "900", "183.7122", 183.7122, "pmol/L", 148.0, 664.0, "NORMAL", "Y", 1.0, "SCREENING 1", -7.0, "SCREENING", "2013-07-24T11:04", -7.0]
["CDISCPILOT01", "LB", "01-701-1363", 12.0, "COLOR", "Color", "URINALYSIS", "N", "", "", "", "N", null, "", null, null, "NORMAL", "Y", 1.0, "SCREENING 1", -7.0, "SCREENING", "2013-05-20T13:29", -10.0]
["CDISCPILOT01", "LB", "01-701-1363", 49.0, "COLOR", "Color", "URINALYSIS", "N", "", "", "", "N", null, "", null, null, "NORMAL", "", 4.0, "WEEK 2", 14.0, "TREATMENT", "2013-06-12T09:57", 14.0]
["CDISCPILOT01", "LB", "01-701-1363", 174.0, "COLOR", "Color", "URINALYSIS", "N", "", "", "", "N", null, "", null, null, "NORMAL", "", 9.0, "WEEK 12", 84.0, "TREATMENT", "2013-08-21T15:17", 84.0]
["CDISCPILOT01", "LB", "01-701-1363", 269.0, "COLOR", "Color", "URINALYSIS", "N", "", "", "", "N", null, "", null, null, "NORMAL", "", 12.0, "WEEK 24", 168.0, "TREATMENT", "2013-11-13T11:55", 168.0]
["CDISCPILOT01", "LB", "01-701-1363", 20.0, "KETONES", "Ketones", "URINALYSIS", "0", "", "", "", "0", 0.0, "", null, null, "NORMAL", "Y", 1.0, "SCREENING 1", -7.0, "SCREENING", "2013-05-20T13:29", -10.0]
["CDISCPILOT01", "LB", "01-701-1363", 57.0, "KETONES", "Ketones", "URINALYSIS", "0", "", "", "", "0", 0.0, "", null, null, "NORMAL", "", 4.0, "WEEK 2", 14.0, "TREATMENT", "2013-06-12T09:57", 14.0]
["CDISCPILOT01", "LB", "01-701-1363", 182.0, "KETONES", "Ketones", "URINALYSIS", "0", "", "", "", "0", 0.0, "", null, null, "NORMAL", "", 9.0, "WEEK 12", 84.0, "TREATMENT", "2013-08-21T15:17", 84.0]
["CDISCPILOT01", "LB", "01-701-1363", 277.0, "KETONES", "Ketones", "URINALYSIS", "0", "", "", "", "0", 0.0, "", null, null, "NORMAL", "", 12.0, "WEEK 24", 168.0, "TREATMENT", "2013-11-13T11:55", 168.0]
["CDISCPILOT01", "LB", "01-701-1363", 27.0, "PH", "pH", "URINALYSIS", "5.0", "", "5", "8", "5", 5.0, "", 5.0, 8.0, "NORMAL", "Y", 1.0, "SCREENING 1", -7.0, "SCREENING", "2013-05-20T13:29", -10.0]
["CDISCPILOT01", "LB", "01-701-1363", 64.0, "PH", "pH", "URINALYSIS", "5.0", "", "5", "8", "5", 5.0, "", 5.0, 8.0, "NORMAL", "", 4.0, "WEEK 2", 14.0, "TREATMENT", "2013-06-12T09:57", 14.0]
["CDISCPILOT01", "LB", "01-701-1363", 189.0, "PH", "pH", "URINALYSIS", "5.0", "", "5", "8", "5", 5.0, "", 5.0, 8.0, "NORMAL", "", 9.0, "WEEK 12", 84.0, "TREATMENT", "2013-08-21T15:17", 84.0]
["CDISCPILOT01", "LB", "01-701-1363", 284.0, "PH", "pH", "URINALYSIS", "6.0", "", "5", "8", "6", 6.0, "", 5.0, 8.0, "NORMAL", "", 12.0, "WEEK 24", 168.0, "TREATMENT", "2013-11-13T11:55", 168.0]
["CDISCPILOT01", "LB", "01-701-1363", 32.0, "SPGRAV", "Specific Gravity", "URINALYSIS", "1.025", "", "1.006", "1.03", "1.025", 1.025, "", 1.006, 1.03, "NORMAL", "Y", 1.0, "SCREENING 1", -7.0, "SCREENING", "2013-05-20T13:29", -10.0]
["CDISCPILOT01", "LB", "01-701-1363", 69.0, "SPGRAV", "Specific Gravity", "URINALYSIS", "1.023", "", "1.006", "1.03", "1.023", 1.023, "", 1.006, 1.03, "NORMAL", "", 4.0, "WEEK 2", 14.0, "TREATMENT", "2013-06-12T09:57", 14.0]
["CDISCPILOT01", "LB", "01-701-1363", 194.0, "SPGRAV", "Specific Gravity", "URINALYSIS", "1.022", "", "1.006", "1.03", "1.022", 1.022, "", 1.006, 1.03, "NORMAL", "", 9.0, "WEEK 12", 84.0, "TREATMENT", "2013-08-21T15:17", 84.0]
["CDISCPILOT01", "LB", "01-701-1363", 289.0, "SPGRAV", "Specific Gravity", "URINALYSIS", "1.022", "", "1.006", "1.03", "1.022", 1.022, "", 1.006, 1.03, "NORMAL", "", 12.0, "WEEK 24", 168.0, "TREATMENT", "2013-11-13T11:55", 168.0]
["CDISCPILOT01", "LB", "01-701-1363", 33.0, "TSH", "Thyrotropin", "OTHER", "1.36", "mIU/L", "0.32", "5", "1.36", 1.36, "mU/L", 0.32, 5.0, "NORMAL", "Y", 1.0, "SCREENING 1", -7.0, "SCREENING", "2013-05-20T13:29", -10.0]
["CDISCPILOT01", "LB", "01-701-1363", 35.0, "UROBIL", "Urobilinogen", "URINALYSIS", "0", "", "", "", "0", 0.0, "", null, null, "NORMAL", "Y", 1.0, "SCREENING 1", -7.0, "SCREENING", "2013-05-20T13:29", -10.0]
["CDISCPILOT01", "LB", "01-701-1363", 71.0, "UROBIL", "Urobilinogen", "URINALYSIS", "0", "", "", "", "0", 0.0, "", null, null, "NORMAL", "", 4.0, "WEEK 2", 14.0, "TREATMENT", "2013-06-12T09:57", 14.0]
["CDISCPILOT01", "LB", "01-701-1363", 196.0, "UROBIL", "Urobilinogen", "URINALYSIS", "0", "", "", "", "0", 0.0, "", null, null, "NORMAL", "", 9.0, "WEEK 12", 84.0, "TREATMENT", "2013-08-21T15:17", 84.0]
["CDISCPILOT01", "LB", "01-701-1363", 291.0, "UROBIL", "Urobilinogen", "URINALYSIS", "0", "", "", "", "0", 0.0, "", null, null, "NORMAL", "", 12.0, "WEEK 24", 168.0, "TREATMENT", "2013-11-13T11:55", 168.0]
["CDISCPILOT01", "LB", "01-701-1363", 36.0, "VITB12", "Vitamin B12", "OTHER", "713", "ng/L", "200", "900", "526.0514", 526.0514, "pmol/L", 148.0, 664.0, "NORMAL", "Y", 1.0, "SCREENING 1", -7.0, "SCREENING", "2013-05-20T13:29", -10.0]
["CDISCPILOT01", "LB", "01-701-1383", 12.0, "COLOR", "Color", "URINALYSIS", "N", "", "", "", "N", null, "", null, null, "NORMAL", "Y", 1.0, "SCREENING 1", -7.0, "SCREENING", "2013-01-22T11:43", -13.0]
["CDISCPILOT01", "LB", "01-701-1383", 49.0, "COLOR", "Color", "URINALYSIS", "N", "", "", "", "N", null, "", null, null, "NORMAL", "", 4.0, "WEEK 2", 14.0, "TREATMENT", "2013-02-19T09:40", 16.0]
["CDISCPILOT01", "LB", "01-701-1383", 174.0, "COLOR", "Color", "URINALYSIS", "N", "", "", "", "N", null, "", null, null, "NORMAL", "", 9.0, "WEEK 12", 84.0, "TREATMENT", "2013-04-30T13:14", 86.0]
["CDISCPILOT01", "LB", "01-701-1383", 269.0, "COLOR", "Color", "URINALYSIS", "N", "", "", "", "N", null, "", null, null, "NORMAL", "", 12.0, "WEEK 24", 168.0, "TREATMENT", "2013-07-30T12:32", 177.0]
["CDISCPILOT01", "LB", "01-701-1383", 20.0, "KETONES", "Ketones", "URINALYSIS", "0", "", "", "", "0", 0.0, "", null, null, "NORMAL", "Y", 1.0, "SCREENING 1", -7.0, "SCREENING", "2013-01-22T11:43", -13.0]
["CDISCPILOT01", "LB", "01-701-1383", 57.0, "KETONES", "Ketones", "URINALYSIS", "0", "", "", "", "0", 0.0, "", null, null, "NORMAL", "", 4.0, "WEEK 2", 14.0, "TREATMENT", "2013-02-19T09:40", 16.0]
["CDISCPILOT01", "LB", "01-701-1383", 182.0, "KETONES", "Ketones", "URINALYSIS", "0", "", "", "", "0", 0.0, "", null, null, "NORMAL", "", 9.0, "WEEK 12", 84.0, "TREATMENT", "2013-04-30T13:14", 86.0]
["CDISCPILOT01", "LB", "01-701-1383", 277.0, "KETONES", "Ketones", "URINALYSIS", "0", "", "", "", "0", 0.0, "", null, null, "NORMAL", "", 12.0, "WEEK 24", 168.0, "TREATMENT", "2013-07-30T12:32", 177.0]
["CDISCPILOT01", "LB", "01-701-1383", 27.0, "PH", "pH", "URINALYSIS", "6.0", "", "5", "8", "6", 6.0, "", 5.0, 8.0, "NORMAL", "Y", 1.0, "SCREENING 1", -7.0, "SCREENING", "2013-01-22T11:43", -13.0]
["CDISCPILOT01", "LB", "01-701-1383", 64.0, "PH", "pH", "URINALYSIS", "6.0", "", "5", "8", "6", 6.0, "", 5.0, 8.0, "NORMAL", "", 4.0, "WEEK 2", 14.0, "TREATMENT", "2013-02-19T09:40", 16.0]
["CDISCPILOT01", "LB", "01-701-1383", 189.0, "PH", "pH", "URINALYSIS", "5.0", "", "5", "8", "5", 5.0, "", 5.0, 8.0, "NORMAL", "", 9.0, "WEEK 12", 84.0, "TREATMENT", "2013-04-30T13:14", 86.0]
["CDISCPILOT01", "LB", "01-701-1383", 284.0, "PH", "pH", "URINALYSIS", "7.0", "", "5", "8", "7", 7.0, "", 5.0, 8.0, "NORMAL", "", 12.0, "WEEK 24", 168.0, "TREATMENT", "2013-07-30T12:32", 177.0]
["CDISCPILOT01", "LB", "01-701-1383", 32.0, "SPGRAV", "Specific Gravity", "URINALYSIS", "1.011", "", "1.006", "1.03", "1.011", 1.011, "", 1.006, 1.03, "NORMAL", "Y", 1.0, "SCREENING 1", -7.0, "SCREENING", "2013-01-22T11:43", -13.0]
["CDISCPILOT01", "LB", "01-701-1383", 69.0, "SPGRAV", "Specific Gravity", "URINALYSIS", "1.016", "", "1.006", "1.03", "1.016", 1.016, "", 1.006, 1.03, "NORMAL", "", 4.0, "WEEK 2", 14.0, "TREATMENT", "2013-02-19T09:40", 16.0]
["CDISCPILOT01", "LB", "01-701-1383", 194.0, "SPGRAV", "Specific Gravity", "URINALYSIS", "1.022", "", "1.006", "1.03", "1.022", 1.022, "", 1.006, 1.03, "NORMAL", "", 9.0, "WEEK 12", 84.0, "TREATMENT", "2013-04-30T13:14", 86.0]
["CDISCPILOT01", "LB", "01-701-1383", 289.0, "SPGRAV", "Specific Gravity", "URINALYSIS", "1.017", "", "1.006", "1.03", "1.017", 1.017, "", 1.006, 1.03, "NORMAL", "", 12.0, "WEEK 24", 168.0, "TREATMENT", "2013-07-30T12:32", 177.0]
["CDISCPILOT01", "LB", "01-701-1383", 33.0, "TSH", "Thyrotropin", "OTHER", "3.66", "mIU/L", "0.32", "5", "3.66", 3.6599999999999997, "mU/L", 0.32, 5.0, "NORMAL", "Y", 1.0, "SCREENING 1", -7.0, "SCREENING", "2013-01-22T11:43", -13.0]
["CDISCPILOT01", "LB", "01-701-1383", 35.0, "UROBIL", "Urobilinogen", "URINALYSIS", "0", "", "", "", "0", 0.0, "", null, null, "NORMAL", "Y", 1.0, "SCREENING 1", -7.0, "SCREENING", "2013-01-22T11:43", -13.0]
["CDISCPILOT01", "LB", "01-701-1383", 71.0, "UROBIL", "Urobilinogen", "URINALYSIS", "0", "", "", "", "0", 0.0, "", null, null, "NORMAL", "", 4.0, "WEEK 2", 14.0, "TREATMENT", "2013-02-19T09:40", 16.0]
["CDISCPILOT01", "LB", "01-701-1383", 196.0, "UROBIL", "Urobilinogen", "URINALYSIS", "0", "", "", "", "0", 0.0, "", null, null, "NORMAL", "", 9.0, "WEEK 12", 84.0, "TREATMENT", "2013-04-30T13:14", 86.0]
["CDISCPILOT01", "LB", "01-701-1383", 291.0, "UROBIL", "Urobilinogen", "URINALYSIS", "0", "", "", "", "0", 0.0, "", null, null, "NORMAL", "", 12.0, "WEEK 24", 168.0, "TREATMENT", "2013-07-30T12:32", 177.0]
["CDISCPILOT01", "LB", "01-701-1383", 36.0, "VITB12", "Vitamin B12", "OTHER", "555", "ng/L", "200", "900", "409.479", 409.479, "pmol/L", 148.0, 664.0, "NORMAL", "Y", 1.0, "SCREENING 1", -7.0, "SCREENING", "2013-01-22T11:43", -13.0]
["CDISCPILOT01", "LB", "01-701-1387", 12.0, "COLOR", "Color", "URINALYSIS", "N", "", "", "", "N", null, "", null, null, "NORMAL", "Y", 1.0, "SCREENING 1", -7.0, "SCREENING", "2014-02-23T13:20", -17.0]
["CDISCPILOT01", "LB", "01-701-1387", 49.0, "COLOR", "Color", "URINALYSIS", "N", "", "", "", "N", null, "", null, null, "NORMAL", "", 4.0, "WEEK 2", 14.0, "TREATMENT", "2014-03-25T10:40", 14.0]
["CDISCPILOT01", "LB", "01-701-1387", 20.0, "KETONES", "Ketones", "URINALYSIS", "0", "", "", "", "0", 0.0, "", null, null, "NORMAL", "Y", 1.0, "SCREENING 1", -7.0, "SCREENING", "2014-02-23T13:20", -17.0]
["CDISCPILOT01", "LB", "01-701-1387", 57.0, "KETONES", "Ketones", "URINALYSIS", "0", "", "", "", "0", 0.0, "", null, null, "NORMAL", "", 4.0, "WEEK 2", 14.0, "TREATMENT", "2014-03-25T10:40", 14.0]
["CDISCPILOT01", "LB", "01-701-1387", 27.0, "PH", "pH", "URINALYSIS", "5.0", "", "5", "8", "5", 5.0, "", 5.0, 8.0, "NORMAL", "Y", 1.0, "SCREENING 1", -7.0, "SCREENING", "2014-02-23T13:20", -17.0]
["CDISCPILOT01", "LB", "01-701-1387", 64.0, "PH", "pH", "URINALYSIS", "5.0", "", "5", "8", "5", 5.0, "", 5.0, 8.0, "NORMAL", "", 4.0, "WEEK 2", 14.0, "TREATMENT", "2014-03-25T10:40", 14.0]
["CDISCPILOT01", "LB", "01-701-1387", 32.0, "SPGRAV", "Specific Gravity", "URINALYSIS", "1.026", "", "1.006", "1.03", "1.026", 1.026, "", 1.006, 1.03, "NORMAL", "Y", 1.0, "SCREENING 1", -7.0, "SCREENING", "2014-02-23T13:20", -17.0]
["CDISCPILOT01", "LB", "01-701-1387", 69.0, "SPGRAV", "Specific Gravity", "URINALYSIS", "1.017", "", "1.006", "1.03", "1.017", 1.017, "", 1.006, 1.03, "NORMAL", "", 4.0, "WEEK 2", 14.0, "TREATMENT", "2014-03-25T10:40", 14.0]
["CDISCPILOT01", "LB", "01-701-1387", 33.0, "TSH", "Thyrotropin", "OTHER", "0.93", "mIU/L", "0.32", "5", "0.93", 0.9299999999999999, "mU/L", 0.32, 5.0, "NORMAL", "Y", 1.0, "SCREENING 1", -7.0, "SCREENING", "2014-02-23T13:20", -17.0]
["CDISCPILOT01", "LB", "01-701-1387", 35.0, "UROBIL", "Urobilinogen", "URINALYSIS", "0", "", "", "", "0", 0.0, "", null, null, "NORMAL", "Y", 1.0, "SCREENING 1", -7.0, "SCREENING", "2014-02-23T13:20", -17.0]
["CDISCPILOT01", "LB", "01-701-1387", 71.0, "UROBIL", "Urobilinogen", "URINALYSIS", "0", "", "", "", "0", 0.0, "", null, null, "NORMAL", "", 4.0, "WEEK 2", 14.0, "TREATMENT", "2014-03-25T10:40", 14.0]
["CDISCPILOT01", "LB", "01-701-1387", 36.0, "VITB12", "Vitamin B12", "OTHER", "370", "ng/L", "200", "900", "272.986", 272.986, "pmol/L", 148.0, 664.0, "NORMAL", "Y", 1.0, "SCREENING 1", -7.0, "SCREENING", "2014-02-23T13:20", -17.0]
["CDISCPILOT01", "LB", "01-701-1392", 12.0, "COLOR", "Color", "URINALYSIS", "N", "", "", "", "N", null, "", null, null, "NORMAL", "Y", 1.0, "SCREENING 1", -7.0, "SCREENING", "2012-10-17T12:13", -11.0]
["CDISCPILOT01", "LB", "01-701-1392", 49.0, "COLOR", "Color", "URINALYSIS", "N", "", "", "", "N", null, "", null, null, "NORMAL", "", 4.0, "WEEK 2", 14.0, "TREATMENT", "2012-11-11T15:35", 15.0]
["CDISCPILOT01", "LB", "01-701-1392", 174.0, "COLOR", "Color", "URINALYSIS", "N", "", "", "", "N", null, "", null, null, "NORMAL", "", 9.0, "WEEK 12", 84.0, "TREATMENT", "2013-01-20T14:39", 85.0]
["CDISCPILOT01", "LB", "01-701-1392", 269.0, "COLOR", "Color", "URINALYSIS", "N", "", "", "", "N", null, "", null, null, "NORMAL", "", 12.0, "WEEK 24", 168.0, "TREATMENT", "2013-04-15T10:53", 170.0]
["CDISCPILOT01", "LB", "01-701-1392", 20.0, "KETONES", "Ketones", "URINALYSIS", "0", "", "", "", "0", 0.0, "", null, null, "NORMAL", "Y", 1.0, "SCREENING 1", -7.0, "SCREENING", "2012-10-17T12:13", -11.0]
["CDISCPILOT01", "LB", "01-701-1392", 57.0, "KETONES", "Ketones", "URINALYSIS", "0", "", "", "", "0", 0.0, "", null, null, "NORMAL", "", 4.0, "WEEK 2", 14.0, "TREATMENT", "2012-11-11T15:35", 15.0]
["CDISCPILOT01", "LB", "01-701-1392", 182.0, "KETONES", "Ketones", "URINALYSIS", "0", "", "", "", "0", 0.0, "", null, null, "NORMAL", "", 9.0, "WEEK 12", 84.0, "TREATMENT", "2013-01-20T14:39", 85.0]
["CDISCPILOT01", "LB", "01-701-1392", 277.0, "KETONES", "Ketones", "URINALYSIS", "0", "", "", "", "0", 0.0, "", null, null, "NORMAL", "", 12.0, "WEEK 24", 168.0, "TREATMENT", "2013-04-15T10:53", 170.0]
["CDISCPILOT01", "LB", "01-701-1392", 27.0, "PH", "pH", "URINALYSIS", "5.0", "", "5", "8", "5", 5.0, "", 5.0, 8.0, "NORMAL", "Y", 1.0, "SCREENING 1", -7.0, "SCREENING", "2012-10-17T12:13", -11.0]
["CDISCPILOT01", "LB", "01-701-1392", 64.0, "PH", "pH", "URINALYSIS", "5.0", "", "5", "8", "5", 5.0, "", 5.0, 8.0, "NORMAL", "", 4.0, "WEEK 2", 14.0, "TREATMENT", "2012-11-11T15:35", 15.0]
["CDISCPILOT01", "LB", "01-701-1392", 189.0, "PH", "pH", "URINALYSIS", "5.0", "", "5", "8", "5", 5.0, "", 5.0, 8.0, "NORMAL", "", 9.0, "WEEK 12", 84.0, "TREATMENT", "2013-01-20T14:39", 85.0]
["CDISCPILOT01", "LB", "01-701-1392", 284.0, "PH", "pH", "URINALYSIS", "6.0", "", "5", "8", "6", 6.0, "", 5.0, 8.0, "NORMAL", "", 12.0, "WEEK 24", 168.0, "TREATMENT", "2013-04-15T10:53", 170.0]
["CDISCPILOT01", "LB", "01-701-1392", 32.0, "SPGRAV", "Specific Gravity", "URINALYSIS", "1.019", "", "1.006", "1.03", "1.019", 1.019, "", 1.006, 1.03, "NORMAL", "Y", 1.0, "SCREENING 1", -7.0, "SCREENING", "2012-10-17T12:13", -11.0]
["CDISCPILOT01", "LB", "01-701-1392", 69.0, "SPGRAV", "Specific Gravity", "URINALYSIS", "1.020", "", "1.006", "1.03", "1.02", 1.02, "", 1.006, 1.03, "NORMAL", "", 4.0, "WEEK 2", 14.0, "TREATMENT", "2012-11-11T15:35", 15.0]
["CDISCPILOT01", "LB", "01-701-1392", 194.0, "SPGRAV", "Specific Gravity", "URINALYSIS", "1.023", "", "1.006", "1.03", "1.023", 1.023, "", 1.006, 1.03, "NORMAL", "", 9.0, "WEEK 12", 84.0, "TREATMENT", "2013-01-20T14:39", 85.0]
["CDISCPILOT01", "LB", "01-701-1392", 289.0, "SPGRAV", "Specific Gravity", "URINALYSIS", "1.021", "", "1.006", "1.03", "1.021", 1.021, "", 1.006, 1.03, "NORMAL", "", 12.0, "WEEK 24", 168.0, "TREATMENT", "2013-04-15T10:53", 170.0]
["CDISCPILOT01", "LB", "01-701-1392", 33.0, "TSH", "Thyrotropin", "OTHER", "1.34", "mIU/L", "0.32", "5", "1.34", 1.34, "mU/L", 0.32, 5.0, "NORMAL", "Y", 1.0, "SCREENING 1", -7.0, "SCREENING", "2012-10-17T12:13", -11.0]
["CDISCPILOT01", "LB", "01-701-1392", 35.0, "UROBIL", "Urobilinogen", "URINALYSIS", "0", "", "", "", "0", 0.0, "", null, null, "NORMAL", "Y", 1.0, "SCREENING 1", -7.0, "SCREENING", "2012-10-17T12:13", -11.0]
["CDISCPILOT01", "LB", "01-701-1392", 71.0, "UROBIL", "Urobilinogen", "URINALYSIS", "0", "", "", "", "0", 0.0, "", null, null, "NORMAL", "", 4.0, "WEEK 2", 14.0, "TREATMENT", "2012-11-11T15:35", 15.0]
["CDISCPILOT01", "LB", "01-701-1392", 196.0, "UROBIL", "Urobilinogen", "URINALYSIS", "0", "", "", "", "0", 0.0, "", null, null, "NORMAL", "", 9.0, "WEEK 12", 84.0, "TREATMENT", "2013-01-20T14:39", 85.0]
["CDISCPILOT01", "LB", "01-701-1392", 291.0, "UROBIL", "Urobilinogen", "URINALYSIS", "0", "", "", "", "0", 0.0, "", null, null, "NORMAL", "", 12.0, "WEEK 24", 168.0, "TREATMENT", "2013-04-15T10:53", 170.0]
["CDISCPILOT01", "LB", "01-701-1392", 36.0, "VITB12", "Vitamin B12", "OTHER", "662", "ng/L", "200", "900", "488.4236", 488.4236, "pmol/L", 148.0, 664.0, "NORMAL", "Y", 1.0, "SCREENING 1", -7.0, "SCREENING", "2012-10-17T12:13", -11.0]
["CDISCPILOT01", "LB", "01-701-1415", 12.0, "COLOR", "Color", "URINALYSIS", "N", "", "", "", "N", null, "", null, null, "NORMAL", "Y", 1.0, "SCREENING 1", -7.0, "SCREENING", "2013-09-15T14:05", -8.0]
["CDISCPILOT01", "LB", "01-701-1415", 38.0, "COLOR", "Color", "URINALYSIS", "N", "", "", "", "N", null, "", null, null, "NORMAL", "", 1.1, "UNSCHEDULED 1.1", null, "SCREENING", "2013-09-21T12:35", -2.0]
["CDISCPILOT01", "LB", "01-701-1415", 54.0, "COLOR", "Color", "URINALYSIS", "N", "", "", "", "N", null, "", null, null, "NORMAL", "", 4.0, "WEEK 2", 14.0, "TREATMENT", "2013-10-07T12:25", 15.0]
["CDISCPILOT01", "LB", "01-701-1415", 181.0, "COLOR", "Color", "URINALYSIS", "N", "", "", "", "N", null, "", null, null, "NORMAL", "", 9.0, "WEEK 12", 84.0, "TREATMENT", "2013-12-21T15:25", 90.0]
["CDISCPILOT01", "LB", "01-701-1415", 275.0, "COLOR", "Color", "URINALYSIS", "N", "", "", "", "N", null, "", null, null, "NORMAL", "", 12.0, "WEEK 24", 168.0, "TREATMENT", "2014-03-10T12:30", 169.0]
["CDISCPILOT01", "LB", "01-701-1415", 20.0, "KETONES", "Ketones", "URINALYSIS", "1", "", "", "", "1", 1.0, "", null, null, "ABNORMAL", "Y", 1.0, "SCREENING 1", -7.0, "SCREENING", "2013-09-15T14:05", -8.0]
["CDISCPILOT01", "LB", "01-701-1415", 39.0, "KETONES", "Ketones", "URINALYSIS", "0", "", "", "", "0", 0.0, "", null, null, "NORMAL", "", 1.1, "UNSCHEDULED 1.1", null, "SCREENING", "2013-09-21T12:35", -2.0]
["CDISCPILOT01", "LB", "01-701-1415", 62.0, "KETONES", "Ketones", "URINALYSIS", "0", "", "", "", "0", 0.0, "", null, null, "NORMAL", "", 4.0, "WEEK 2", 14.0, "TREATMENT", "2013-10-07T12:25", 15.0]
["CDISCPILOT01", "LB", "01-701-1415", 189.0, "KETONES", "Ketones", "URINALYSIS", "0", "", "", "", "0", 0.0, "", null, null, "NORMAL", "", 9.0, "WEEK 12", 84.0, "TREATMENT", "2013-12-21T15:25", 90.0]
["CDISCPILOT01", "LB", "01-701-1415", 283.0, "KETONES", "Ketones", "URINALYSIS", "0", "", "", "", "0", 0.0, "", null, null, "NORMAL", "", 12.0, "WEEK 24", 168.0, "TREATMENT", "2014-03-10T12:30", 169.0]
["CDISCPILOT01", "LB", "01-701-1415", 27.0, "PH", "pH", "URINALYSIS", "5.0", "", "5", "8", "5", 5.0, "", 5.0, 8.0, "NORMAL", "Y", 1.0, "SCREENING 1", -7.0, "SCREENING", "2013-09-15T14:05", -8.0]
["CDISCPILOT01", "LB", "01-701-1415", 40.0, "PH", "pH", "URINALYSIS", "6.0", "", "5", "8", "6", 6.0, "", 5.0, 8.0, "NORMAL", "", 1.1, "UNSCHEDULED 1.1", null, "SCREENING", "2013-09-21T12:35", -2.0]
["CDISCPILOT01", "LB", "01-701-1415", 69.0, "PH", "pH", "URINALYSIS", "5.0", "", "5", "8", "5", 5.0, "", 5.0, 8.0, "NORMAL", "", 4.0, "WEEK 2", 14.0, "TREATMENT", "2013-10-07T12:25", 15.0]
["CDISCPILOT01", "LB", "01-701-1415", 196.0, "PH", "pH", "URINALYSIS", "5.0", "", "5", "8", "5", 5.0, "", 5.0, 8.0, "NORMAL", "", 9.0, "WEEK 12", 84.0, "TREATMENT", "2013-12-21T15:25", 90.0]
["CDISCPILOT01", "LB", "01-701-1415", 290.0, "PH", "pH", "URINALYSIS", "5.0", "", "5", "8", "5", 5.0, "", 5.0, 8.0, "NORMAL", "", 12.0, "WEEK 24", 168.0, "TREATMENT", "2014-03-10T12:30", 169.0]
["CDISCPILOT01", "LB", "01-701-1415", 32.0, "SPGRAV", "Specific Gravity", "URINALYSIS", "1.018", "", "1.006", "1.03", "1.018", 1.018, "", 1.006, 1.03, "NORMAL", "Y", 1.0, "SCREENING 1", -7.0, "SCREENING", "2013-09-15T14:05", -8.0]
["CDISCPILOT01", "LB", "01-701-1415", 41.0, "SPGRAV", "Specific Gravity", "URINALYSIS", "1.023", "", "1.006", "1.03", "1.023", 1.023, "", 1.006, 1.03, "NORMAL", "", 1.1, "UNSCHEDULED 1.1", null, "SCREENING", "2013-09-21T12:35", -2.0]
["CDISCPILOT01", "LB", "01-701-1415", 74.0, "SPGRAV", "Specific Gravity", "URINALYSIS", "1.022", "", "1.006", "1.03", "1.022", 1.022, "", 1.006, 1.03, "NORMAL", "", 4.0, "WEEK 2", 14.0, "TREATMENT", "2013-10-07T12:25", 15.0]
["CDISCPILOT01", "LB", "01-701-1415", 200.0, "SPGRAV", "Specific Gravity", "URINALYSIS", "1.022", "", "1.006", "1.03", "1.022", 1.022, "", 1.006, 1.03, "NORMAL", "", 9.0, "WEEK 12", 84.0, "TREATMENT", "2013-12-21T15:25", 90.0]
["CDISCPILOT01", "LB", "01-701-1415", 295.0, "SPGRAV", "Specific Gravity", "URINALYSIS", "1.020", "", "1.006", "1.03", "1.02", 1.02, "", 1.006, 1.03, "NORMAL", "", 12.0, "WEEK 24", 168.0, "TREATMENT", "2014-03-10T12:30", 169.0]
["CDISCPILOT01", "LB", "01-701-1415", 33.0, "TSH", "Thyrotropin", "OTHER", "1.01", "mIU/L", "0.32", "5", "1.01", 1.01, "mU/L", 0.32, 5.0, "NORMAL", "Y", 1.0, "SCREENING 1", -7.0, "SCREENING", "2013-09-15T14:05", -8.0]
["CDISCPILOT01", "LB", "01-701-1415", 35.0, "UROBIL", "Urobilinogen", "URINALYSIS", "0", "", "", "", "0", 0.0, "", null, null, "NORMAL", "Y", 1.0, "SCREENING 1", -7.0, "SCREENING", "2013-09-15T14:05", -8.0]
["CDISCPILOT01", "LB", "01-701-1415", 42.0, "UROBIL", "Urobilinogen", "URINALYSIS", "0", "", "", "", "0", 0.0, "", null, null, "NORMAL", "", 1.1, "UNSCHEDULED 1.1", null, "SCREENING", "2013-09-21T12:35", -2.0]
["CDISCPILOT01", "LB", "01-701-1415", 76.0, "UROBIL", "Urobilinogen", "URINALYSIS", "0", "", "", "", "0", 0.0, "", null, null, "NORMAL", "", 4.0, "WEEK 2", 14.0, "TREATMENT", "2013-10-07T12:25", 15.0]
["CDISCPILOT01", "LB", "01-701-1415", 202.0, "UROBIL", "Urobilinogen", "URINALYSIS", "0", "", "", "", "0", 0.0, "", null, null, "NORMAL", "", 9.0, "WEEK 12", 84.0, "TREATMENT", "2013-12-21T15:25", 90.0]
["CDISCPILOT01", "LB", "01-701-1415", 297.0, "UROBIL", "Urobilinogen", "URINALYSIS", "0", "", "", "", "0", 0.0, "", null, null, "NORMAL", "", 12.0, "WEEK 24", 168.0, "TREATMENT", "2014-03-10T12:30", 169.0]
["CDISCPILOT01", "LB", "01-701-1415", 36.0, "VITB12", "Vitamin B12", "OTHER", "387", "ng/L", "200", "900", "285.5286", 285.5286, "pmol/L", 148.0, 664.0, "NORMAL", "Y", 1.0, "SCREENING 1", -7.0, "SCREENING", "2013-09-15T14:05", -8.0]
["CDISCPILOT01", "LB", "01-701-1429", 12.0, "COLOR", "Color", "URINALYSIS", "N", "", "", "", "N", null, "", null, null, "NORMAL", "Y", 1.0, "SCREENING 1", -7.0, "SCREENING", "2013-02-21T16:20", -26.0]
["CDISCPILOT01", "LB", "01-701-1429", 49.0, "COLOR", "Color", "URINALYSIS", "N", "", "", "", "N", null, "", null, null, "NORMAL", "", 4.0, "WEEK 2", 14.0, "TREATMENT", "2013-04-02T12:41", 15.0]
["CDISCPILOT01", "LB", "01-701-1429", 114.0, "COLOR", "Color", "URINALYSIS", "N", "", "", "", "N", null, "", null, null, "NORMAL", "", 7.0, "WEEK 6", 42.0, "TREATMENT", "2013-04-30T12:22", 43.0]
["CDISCPILOT01", "LB", "01-701-1429", 20.0, "KETONES", "Ketones", "URINALYSIS", "0", "", "", "", "0", 0.0, "", null, null, "NORMAL", "Y", 1.0, "SCREENING 1", -7.0, "SCREENING", "2013-02-21T16:20", -26.0]
["CDISCPILOT01", "LB", "01-701-1429", 57.0, "KETONES", "Ketones", "URINALYSIS", "0", "", "", "", "0", 0.0, "", null, null, "NORMAL", "", 4.0, "WEEK 2", 14.0, "TREATMENT", "2013-04-02T12:41", 15.0]
["CDISCPILOT01", "LB", "01-701-1429", 122.0, "KETONES", "Ketones", "URINALYSIS", "0", "", "", "", "0", 0.0, "", null, null, "NORMAL", "", 7.0, "WEEK 6", 42.0, "TREATMENT", "2013-04-30T12:22", 43.0]
["CDISCPILOT01", "LB", "01-701-1429", 27.0, "PH", "pH", "URINALYSIS", "6.0", "", "5", "8", "6", 6.0, "", 5.0, 8.0, "NORMAL", "Y", 1.0, "SCREENING 1", -7.0, "SCREENING", "2013-02-21T16:20", -26.0]
["CDISCPILOT01", "LB", "01-701-1429", 64.0, "PH", "pH", "URINALYSIS", "5.0", "", "5", "8", "5", 5.0, "", 5.0, 8.0, "NORMAL", "", 4.0, "WEEK 2", 14.0, "TREATMENT", "2013-04-02T12:41", 15.0]
["CDISCPILOT01", "LB", "01-701-1429", 129.0, "PH", "pH", "URINALYSIS", "6.0", "", "5", "8", "6", 6.0, "", 5.0, 8.0, "NORMAL", "", 7.0, "WEEK 6", 42.0, "TREATMENT", "2013-04-30T12:22", 43.0]
["CDISCPILOT01", "LB", "01-701-1429", 32.0, "SPGRAV", "Specific Gravity", "URINALYSIS", "1.016", "", "1.006", "1.03", "1.016", 1.016, "", 1.006, 1.03, "NORMAL", "Y", 1.0, "SCREENING 1", -7.0, "SCREENING", "2013-02-21T16:20", -26.0]
["CDISCPILOT01", "LB", "01-701-1429", 69.0, "SPGRAV", "Specific Gravity", "URINALYSIS", "1.013", "", "1.006", "1.03", "1.013", 1.013, "", 1.006, 1.03, "NORMAL", "", 4.0, "WEEK 2", 14.0, "TREATMENT", "2013-04-02T12:41", 15.0]
["CDISCPILOT01", "LB", "01-701-1429", 134.0, "SPGRAV", "Specific Gravity", "URINALYSIS", "1.025", "", "1.006", "1.03", "1.025", 1.025, "", 1.006, 1.03, "NORMAL", "", 7.0, "WEEK 6", 42.0, "TREATMENT", "2013-04-30T12:22", 43.0]
["CDISCPILOT01", "LB", "01-701-1429", 33.0, "TSH", "Thyrotropin", "OTHER", "1.19", "mIU/L", "0.32", "5", "1.19", 1.19, "mU/L", 0.32, 5.0, "NORMAL", "Y", 1.0, "SCREENING 1", -7.0, "SCREENING", "2013-02-21T16:20", -26.0]
["CDISCPILOT01", "LB", "01-701-1429", 35.0, "UROBIL", "Urobilinogen", "URINALYSIS", "0", "", "", "", "0", 0.0, "", null, null, "NORMAL", "Y", 1.0, "SCREENING 1", -7.0, "SCREENING", "2013-02-21T16:20", -26.0]
["CDISCPILOT01", "LB", "01-701-1429", 71.0, "UROBIL", "Urobilinogen", "URINALYSIS", "0", "", "", "", "0", 0.0, "", null, null, "NORMAL", "", 4.0, "WEEK 2", 14.0, "TREATMENT", "2013-04-02T12:41", 15.0]
["CDISCPILOT01", "LB", "01-701-1429", 136.0, "UROBIL", "Urobilinogen", "URINALYSIS", "0", "", "", "", "0", 0.0, "", null, null, "NORMAL", "", 7.0, "WEEK 6", 42.0, "TREATMENT", "2013-04-30T12:22", 43.0]
["CDISCPILOT01", "LB", "01-701-1429", 36.0, "VITB12", "Vitamin B12", "OTHER", "329", "ng/L", "200", "900", "242.7362", 242.7362, "pmol/L", 148.0, 664.0, "NORMAL", "Y", 1.0, "SCREENING 1", -7.0, "SCREENING", "2013-02-21T16:20", -26.0]
["CDISCPILOT01", "LB", "01-701-1440", 12.0, "COLOR", "Color", "URINALYSIS", "N", "", "", "", "N", null, "", null, null, "NORMAL", "Y", 1.0, "SCREENING 1", -7.0, "SCREENING", "2013-07-24T12:09", -15.0]
["CDISCPILOT01", "LB", "01-701-1440", 49.0, "COLOR", "Color", "URINALYSIS", "N", "", "", "", "N", null, "", null, null, "NORMAL", "", 4.0, "WEEK 2", 14.0, "TREATMENT", "2013-08-23T09:40", 16.0]
["CDISCPILOT01", "LB", "01-701-1440", 174.0, "COLOR", "Color", "URINALYSIS", "N", "", "", "", "N", null, "", null, null, "NORMAL", "", 9.0, "WEEK 12", 84.0, "TREATMENT", "2013-10-31T11:50", 85.0]
["CDISCPILOT01", "LB", "01-701-1440", 269.0, "COLOR", "Color", "URINALYSIS", "N", "", "", "", "N", null, "", null, null, "NORMAL", "", 12.0, "WEEK 24", 168.0, "TREATMENT", "2014-01-22T12:32", 168.0]
["CDISCPILOT01", "LB", "01-701-1440", 20.0, "KETONES", "Ketones", "URINALYSIS", "0", "", "", "", "0", 0.0, "", null, null, "NORMAL", "Y", 1.0, "SCREENING 1", -7.0, "SCREENING", "2013-07-24T12:09", -15.0]
["CDISCPILOT01", "LB", "01-701-1440", 57.0, "KETONES", "Ketones", "URINALYSIS", "0", "", "", "", "0", 0.0, "", null, null, "NORMAL", "", 4.0, "WEEK 2", 14.0, "TREATMENT", "2013-08-23T09:40", 16.0]
["CDISCPILOT01", "LB", "01-701-1440", 182.0, "KETONES", "Ketones", "URINALYSIS", "0", "", "", "", "0", 0.0, "", null, null, "NORMAL", "", 9.0, "WEEK 12", 84.0, "TREATMENT", "2013-10-31T11:50", 85.0]
["CDISCPILOT01", "LB", "01-701-1440", 277.0, "KETONES", "Ketones", "URINALYSIS", "0", "", "", "", "0", 0.0, "", null, null, "NORMAL", "", 12.0, "WEEK 24", 168.0, "TREATMENT", "2014-01-22T12:32", 168.0]
["CDISCPILOT01", "LB", "01-701-1440", 27.0, "PH", "pH", "URINALYSIS", "5.0", "", "5", "8", "5", 5.0, "", 5.0, 8.0, "NORMAL", "Y", 1.0, "SCREENING 1", -7.0, "SCREENING", "2013-07-24T12:09", -15.0]
["CDISCPILOT01", "LB", "01-701-1440", 64.0, "PH", "pH", "URINALYSIS", "5.0", "", "5", "8", "5", 5.0, "", 5.0, 8.0, "NORMAL", "", 4.0, "WEEK 2", 14.0, "TREATMENT", "2013-08-23T09:40", 16.0]
["CDISCPILOT01", "LB", "01-701-1440", 189.0, "PH", "pH", "URINALYSIS", "6.0", "", "5", "8", "6", 6.0, "", 5.0, 8.0, "NORMAL", "", 9.0, "WEEK 12", 84.0, "TREATMENT", "2013-10-31T11:50", 85.0]
["CDISCPILOT01", "LB", "01-701-1440", 284.0, "PH", "pH", "URINALYSIS", "6.0", "", "5", "8", "6", 6.0, "", 5.0, 8.0, "NORMAL", "", 12.0, "WEEK 24", 168.0, "TREATMENT", "2014-01-22T12:32", 168.0]
["CDISCPILOT01", "LB", "01-701-1440", 32.0, "SPGRAV", "Specific Gravity", "URINALYSIS", "1.015", "", "1.006", "1.03", "1.015", 1.015, "", 1.006, 1.03, "NORMAL", "Y", 1.0, "SCREENING 1", -7.0, "SCREENING", "2013-07-24T12:09", -15.0]
["CDISCPILOT01", "LB", "01-701-1440", 69.0, "SPGRAV", "Specific Gravity", "URINALYSIS", "1.011", "", "1.006", "1.03", "1.011", 1.011, "", 1.006, 1.03, "NORMAL", "", 4.0, "WEEK 2", 14.0, "TREATMENT", "2013-08-23T09:40", 16.0]
["CDISCPILOT01", "LB", "01-701-1440", 194.0, "SPGRAV", "Specific Gravity", "URINALYSIS", "1.016", "", "1.006", "1.03", "1.016", 1.016, "", 1.006, 1.03, "NORMAL", "", 9.0, "WEEK 12", 84.0, "TREATMENT", "2013-10-31T11:50", 85.0]
["CDISCPILOT01", "LB", "01-701-1440", 289.0, "SPGRAV", "Specific Gravity", "URINALYSIS", "1.018", "", "1.006", "1.03", "1.018", 1.018, "", 1.006, 1.03, "NORMAL", "", 12.0, "WEEK 24", 168.0, "TREATMENT", "2014-01-22T12:32", 168.0]
["CDISCPILOT01", "LB", "01-701-1440", 33.0, "TSH", "Thyrotropin", "OTHER", "0.45", "mIU/L", "0.32", "5", "0.45", 0.44999999999999996, "mU/L", 0.32, 5.0, "NORMAL", "Y", 1.0, "SCREENING 1", -7.0, "SCREENING", "2013-07-24T12:09", -15.0]
["CDISCPILOT01", "LB", "01-701-1440", 35.0, "UROBIL", "Urobilinogen", "URINALYSIS", "0", "", "", "", "0", 0.0, "", null, null, "NORMAL", "Y", 1.0, "SCREENING 1", -7.0, "SCREENING", "2013-07-24T12:09", -15.0]
["CDISCPILOT01", "LB", "01-701-1440", 71.0, "UROBIL", "Urobilinogen", "URINALYSIS", "0", "", "", "", "0", 0.0, "", null, null, "NORMAL", "", 4.0, "WEEK 2", 14.0, "TREATMENT", "2013-08-23T09:40", 16.0]
["CDISCPILOT01", "LB", "01-701-1440", 196.0, "UROBIL", "Urobilinogen", "URINALYSIS", "0", "", "", "", "0", 0.0, "", null, null, "NORMAL", "", 9.0, "WEEK 12", 84.0, "TREATMENT", "2013-10-31T11:50", 85.0]
["CDISCPILOT01", "LB", "01-701-1440", 291.0, "UROBIL", "Urobilinogen", "URINALYSIS", "0", "", "", "", "0", 0.0, "", null, null, "NORMAL", "", 12.0, "WEEK 24", 168.0, "TREATMENT", "2014-01-22T12:32", 168.0]
["CDISCPILOT01", "LB", "01-701-1440", 36.0, "VITB12", "Vitamin B12", "OTHER", "269", "ng/L", "200", "900", "198.4682", 198.4682, "pmol/L", 148.0, 664.0, "NORMAL", "Y", 1.0, "SCREENING 1", -7.0, "SCREENING", "2013-07-24T12:09", -15.0]
["CDISCPILOT01", "LB", "01-701-1442", 12.0, "COLOR", "Color", "URINALYSIS", "N", "", "", "", "N", null, "", null, null, "NORMAL", "Y", 1.0, "SCREENING 1", -7.0, "SCREENING", "2013-10-17T11:49", -9.0]
["CDISCPILOT01", "LB", "01-701-1442", 49.0, "COLOR", "Color", "URINALYSIS", "N", "", "", "", "N", null, "", null, null, "NORMAL", "", 4.0, "WEEK 2", 14.0, "TREATMENT", "2013-11-09T09:50", 15.0]
["CDISCPILOT01", "LB", "01-701-1442", 174.0, "COLOR", "Color", "URINALYSIS", "N", "", "", "", "N", null, "", null, null, "NORMAL", "", 9.0, "WEEK 12", 84.0, "TREATMENT", "2014-01-18T08:37", 85.0]
["CDISCPILOT01", "LB", "01-701-1442", 269.0, "COLOR", "Color", "URINALYSIS", "N", "", "", "", "N", null, "", null, null, "NORMAL", "", 12.0, "WEEK 24", 168.0, "TREATMENT", "2014-04-17T15:14", 174.0]
["CDISCPILOT01", "LB", "01-701-1442", 20.0, "KETONES", "Ketones", "URINALYSIS", "0", "", "", "", "0", 0.0, "", null, null, "NORMAL", "Y", 1.0, "SCREENING 1", -7.0, "SCREENING", "2013-10-17T11:49", -9.0]
["CDISCPILOT01", "LB", "01-701-1442", 57.0, "KETONES", "Ketones", "URINALYSIS", "0", "", "", "", "0", 0.0, "", null, null, "NORMAL", "", 4.0, "WEEK 2", 14.0, "TREATMENT", "2013-11-09T09:50", 15.0]
["CDISCPILOT01", "LB", "01-701-1442", 182.0, "KETONES", "Ketones", "URINALYSIS", "0", "", "", "", "0", 0.0, "", null, null, "NORMAL", "", 9.0, "WEEK 12", 84.0, "TREATMENT", "2014-01-18T08:37", 85.0]
["CDISCPILOT01", "LB", "01-701-1442", 277.0, "KETONES", "Ketones", "URINALYSIS", "0", "", "", "", "0", 0.0, "", null, null, "NORMAL", "", 12.0, "WEEK 24", 168.0, "TREATMENT", "2014-04-17T15:14", 174.0]
["CDISCPILOT01", "LB", "01-701-1442", 27.0, "PH", "pH", "URINALYSIS", "5.0", "", "5", "8", "5", 5.0, "", 5.0, 8.0, "NORMAL", "Y", 1.0, "SCREENING 1", -7.0, "SCREENING", "2013-10-17T11:49", -9.0]
["CDISCPILOT01", "LB", "01-701-1442", 64.0, "PH", "pH", "URINALYSIS", "5.0", "", "5", "8", "5", 5.0, "", 5.0, 8.0, "NORMAL", "", 4.0, "WEEK 2", 14.0, "TREATMENT", "2013-11-09T09:50", 15.0]
["CDISCPILOT01", "LB", "01-701-1442", 189.0, "PH", "pH", "URINALYSIS", "5.0", "", "5", "8", "5", 5.0, "", 5.0, 8.0, "NORMAL", "", 9.0, "WEEK 12", 84.0, "TREATMENT", "2014-01-18T08:37", 85.0]
["CDISCPILOT01", "LB", "01-701-1442", 284.0, "PH", "pH", "URINALYSIS", "6.0", "", "5", "8", "6", 6.0, "", 5.0, 8.0, "NORMAL", "", 12.0, "WEEK 24", 168.0, "TREATMENT", "2014-04-17T15:14", 174.0]
["CDISCPILOT01", "LB", "01-701-1442", 32.0, "SPGRAV", "Specific Gravity", "URINALYSIS", "1.015", "", "1.01", "1.034", "1.015", 1.015, "", 1.01, 1.034, "NORMAL", "Y", 1.0, "SCREENING 1", -7.0, "SCREENING", "2013-10-17T11:49", -9.0]
["CDISCPILOT01", "LB", "01-701-1442", 69.0, "SPGRAV", "Specific Gravity", "URINALYSIS", "1.016", "", "1.01", "1.034", "1.016", 1.016, "", 1.01, 1.034, "NORMAL", "", 4.0, "WEEK 2", 14.0, "TREATMENT", "2013-11-09T09:50", 15.0]
["CDISCPILOT01", "LB", "01-701-1442", 194.0, "SPGRAV", "Specific Gravity", "URINALYSIS", "1.016", "", "1.01", "1.034", "1.016", 1.016, "", 1.01, 1.034, "NORMAL", "", 9.0, "WEEK 12", 84.0, "TREATMENT", "2014-01-18T08:37", 85.0]
["CDISCPILOT01", "LB", "01-701-1442", 289.0, "SPGRAV", "Specific Gravity", "URINALYSIS", "1.015", "", "1.01", "1.034", "1.015", 1.015, "", 1.01, 1.034, "NORMAL", "", 12.0, "WEEK 24", 168.0, "TREATMENT", "2014-04-17T15:14", 174.0]
["CDISCPILOT01", "LB", "01-701-1442", 33.0, "TSH", "Thyrotropin", "OTHER", "3.28", "mIU/L", "0.32", "5", "3.28", 3.28, "mU/L", 0.32, 5.0, "NORMAL", "Y", 1.0, "SCREENING 1", -7.0, "SCREENING", "2013-10-17T11:49", -9.0]
["CDISCPILOT01", "LB", "01-701-1442", 35.0, "UROBIL", "Urobilinogen", "URINALYSIS", "0", "", "", "", "0", 0.0, "", null, null, "NORMAL", "Y", 1.0, "SCREENING 1", -7.0, "SCREENING", "2013-10-17T11:49", -9.0]
["CDISCPILOT01", "LB", "01-701-1442", 71.0, "UROBIL", "Urobilinogen", "URINALYSIS", "0", "", "", "", "0", 0.0, "", null, null, "NORMAL", "", 4.0, "WEEK 2", 14.0, "TREATMENT", "2013-11-09T09:50", 15.0]
["CDISCPILOT01", "LB", "01-701-1442", 196.0, "UROBIL", "Urobilinogen", "URINALYSIS", "0", "", "", "", "0", 0.0, "", null, null, "NORMAL", "", 9.0, "WEEK 12", 84.0, "TREATMENT", "2014-01-18T08:37", 85.0]
["CDISCPILOT01", "LB", "01-701-1442", 291.0, "UROBIL", "Urobilinogen", "URINALYSIS", "0", "", "", "", "0", 0.0, "", null, null, "NORMAL", "", 12.0, "WEEK 24", 168.0, "TREATMENT", "2014-04-17T15:14", 174.0]
["CDISCPILOT01", "LB", "01-701-1442", 36.0, "VITB12", "Vitamin B12", "OTHER", "722", "ng/L", "200", "900", "532.6916", 532.6916, "pmol/L", 148.0, 664.0, "NORMAL", "Y", 1.0, "SCREENING 1", -7.0, "SCREENING", "2013-10-17T11:49", -9.0]
["CDISCPILOT01", "LB", "01-701-1444", 12.0, "COLOR", "Color", "URINALYSIS", "N", "", "", "", "N", null, "", null, null, "NORMAL", "Y", 1.0, "SCREENING 1", -7.0, "SCREENING", "2012-12-31T11:05", -5.0]
["CDISCPILOT01", "LB", "01-701-1444", 49.0, "COLOR", "Color", "URINALYSIS", "N", "", "", "", "N", null, "", null, null, "NORMAL", "", 4.0, "WEEK 2", 14.0, "TREATMENT", "2013-01-18T14:19", 14.0]
["CDISCPILOT01", "LB", "01-701-1444", 114.0, "COLOR", "Color", "URINALYSIS", "N", "", "", "", "N", null, "", null, null, "NORMAL", "", 7.0, "WEEK 6", 42.0, "TREATMENT", "2013-02-13T15:53", 40.0]
["CDISCPILOT01", "LB", "01-701-1444", 20.0, "KETONES", "Ketones", "URINALYSIS", "0", "", "", "", "0", 0.0, "", null, null, "NORMAL", "Y", 1.0, "SCREENING 1", -7.0, "SCREENING", "2012-12-31T11:05", -5.0]
["CDISCPILOT01", "LB", "01-701-1444", 57.0, "KETONES", "Ketones", "URINALYSIS", "0", "", "", "", "0", 0.0, "", null, null, "NORMAL", "", 4.0, "WEEK 2", 14.0, "TREATMENT", "2013-01-18T14:19", 14.0]
["CDISCPILOT01", "LB", "01-701-1444", 122.0, "KETONES", "Ketones", "URINALYSIS", "0", "", "", "", "0", 0.0, "", null, null, "NORMAL", "", 7.0, "WEEK 6", 42.0, "TREATMENT", "2013-02-13T15:53", 40.0]
["CDISCPILOT01", "LB", "01-701-1444", 27.0, "PH", "pH", "URINALYSIS", "5.0", "", "5", "8", "5", 5.0, "", 5.0, 8.0, "NORMAL", "Y", 1.0, "SCREENING 1", -7.0, "SCREENING", "2012-12-31T11:05", -5.0]
["CDISCPILOT01", "LB", "01-701-1444", 64.0, "PH", "pH", "URINALYSIS", "5.0", "", "5", "8", "5", 5.0, "", 5.0, 8.0, "NORMAL", "", 4.0, "WEEK 2", 14.0, "TREATMENT", "2013-01-18T14:19", 14.0]
["CDISCPILOT01", "LB", "01-701-1444", 129.0, "PH", "pH", "URINALYSIS", "5.0", "", "5", "8", "5", 5.0, "", 5.0, 8.0, "NORMAL", "", 7.0, "WEEK 6", 42.0, "TREATMENT", "2013-02-13T15:53", 40.0]
["CDISCPILOT01", "LB", "01-701-1444", 32.0, "SPGRAV", "Specific Gravity", "URINALYSIS", "1.015", "", "1.006", "1.03", "1.015", 1.015, "", 1.006, 1.03, "NORMAL", "Y", 1.0, "SCREENING 1", -7.0, "SCREENING", "2012-12-31T11:05", -5.0]
["CDISCPILOT01", "LB", "01-701-1444", 69.0, "SPGRAV", "Specific Gravity", "URINALYSIS", "1.013", "", "1.006", "1.03", "1.013", 1.013, "", 1.006, 1.03, "NORMAL", "", 4.0, "WEEK 2", 14.0, "TREATMENT", "2013-01-18T14:19", 14.0]
["CDISCPILOT01", "LB", "01-701-1444", 134.0, "SPGRAV", "Specific Gravity", "URINALYSIS", "1.028", "", "1.006", "1.03", "1.028", 1.028, "", 1.006, 1.03, "NORMAL", "", 7.0, "WEEK 6", 42.0, "TREATMENT", "2013-02-13T15:53", 40.0]
["CDISCPILOT01", "LB", "01-701-1444", 33.0, "TSH", "Thyrotropin", "OTHER", "1.63", "mIU/L", "0.32", "5", "1.63", 1.63, "mU/L", 0.32, 5.0, "NORMAL", "Y", 1.0, "SCREENING 1", -7.0, "SCREENING", "2012-12-31T11:05", -5.0]
["CDISCPILOT01", "LB", "01-701-1444", 35.0, "UROBIL", "Urobilinogen", "URINALYSIS", "0", "", "", "", "0", 0.0, "", null, null, "NORMAL", "Y", 1.0, "SCREENING 1", -7.0, "SCREENING", "2012-12-31T11:05", -5.0]
["CDISCPILOT01", "LB", "01-701-1444", 71.0, "UROBIL", "Urobilinogen", "URINALYSIS", "0", "", "", "", "0", 0.0, "", null, null, "NORMAL", "", 4.0, "WEEK 2", 14.0, "TREATMENT", "2013-01-18T14:19", 14.0]
["CDISCPILOT01", "LB", "01-701-1444", 136.0, "UROBIL", "Urobilinogen", "URINALYSIS", "0", "", "", "", "0", 0.0, "", null, null, "NORMAL", "", 7.0, "WEEK 6", 42.0, "TREATMENT", "2013-02-13T15:53", 40.0]
["CDISCPILOT01", "LB", "01-701-1444", 36.0, "VITB12", "Vitamin B12", "OTHER", "294", "ng/L", "200", "900", "216.9132", 216.9132, "pmol/L", 148.0, 664.0, "NORMAL", "Y", 1.0, "SCREENING 1", -7.0, "SCREENING", "2012-12-31T11:05", -5.0]
["CDISCPILOT01", "LB", "01-702-1082", 12.0, "COLOR", "Color", "URINALYSIS", "N", "", "", "", "N", null, "", null, null, "NORMAL", "Y", 1.0, "SCREENING 1", -7.0, "SCREENING", "2013-07-03T14:00", -23.0]
["CDISCPILOT01", "LB", "01-702-1082", 48.0, "COLOR", "Color", "URINALYSIS", "N", "", "", "", "N", null, "", null, null, "NORMAL", "", 1.1, "UNSCHEDULED 1.1", null, "SCREENING", "2013-07-24T14:00", -2.0]
["CDISCPILOT01", "LB", "01-702-1082", 85.0, "COLOR", "Color", "URINALYSIS", "N", "", "", "", "N", null, "", null, null, "NORMAL", "", 4.0, "WEEK 2", 14.0, "TREATMENT", "2013-08-08T14:00", 14.0]
["CDISCPILOT01", "LB", "01-702-1082", 210.0, "COLOR", "Color", "URINALYSIS", "N", "", "", "", "N", null, "", null, null, "NORMAL", "", 9.0, "WEEK 12", 84.0, "TREATMENT", "2013-11-17T12:20", 115.0]
["CDISCPILOT01", "LB", "01-702-1082", 20.0, "KETONES", "Ketones", "URINALYSIS", "0", "", "", "", "0", 0.0, "", null, null, "NORMAL", "Y", 1.0, "SCREENING 1", -7.0, "SCREENING", "2013-07-03T14:00", -23.0]
["CDISCPILOT01", "LB", "01-702-1082", 53.0, "KETONES", "Ketones", "URINALYSIS", "0", "", "", "", "0", 0.0, "", null, null, "NORMAL", "", 1.1, "UNSCHEDULED 1.1", null, "SCREENING", "2013-07-24T14:00", -2.0]
["CDISCPILOT01", "LB", "01-702-1082", 93.0, "KETONES", "Ketones", "URINALYSIS", "0", "", "", "", "0", 0.0, "", null, null, "NORMAL", "", 4.0, "WEEK 2", 14.0, "TREATMENT", "2013-08-08T14:00", 14.0]
["CDISCPILOT01", "LB", "01-702-1082", 218.0, "KETONES", "Ketones", "URINALYSIS", "1", "", "", "", "1", 1.0, "", null, null, "ABNORMAL", "", 9.0, "WEEK 12", 84.0, "TREATMENT", "2013-11-17T12:20", 115.0]
["CDISCPILOT01", "LB", "01-702-1082", 27.0, "PH", "pH", "URINALYSIS", "5.0", "", "5", "8", "5", 5.0, "", 5.0, 8.0, "NORMAL", "Y", 1.0, "SCREENING 1", -7.0, "SCREENING", "2013-07-03T14:00", -23.0]
["CDISCPILOT01", "LB", "01-702-1082", 55.0, "PH", "pH", "URINALYSIS", "5.0", "", "5", "8", "5", 5.0, "", 5.0, 8.0, "NORMAL", "", 1.1, "UNSCHEDULED 1.1", null, "SCREENING", "2013-07-24T14:00", -2.0]
["CDISCPILOT01", "LB", "01-702-1082", 100.0, "PH", "pH", "URINALYSIS", "6.0", "", "5", "8", "6", 6.0, "", 5.0, 8.0, "NORMAL", "", 4.0, "WEEK 2", 14.0, "TREATMENT", "2013-08-08T14:00", 14.0]
["CDISCPILOT01", "LB", "01-702-1082", 225.0, "PH", "pH", "URINALYSIS", "5.0", "", "5", "8", "5", 5.0, "", 5.0, 8.0, "NORMAL", "", 9.0, "WEEK 12", 84.0, "TREATMENT", "2013-11-17T12:20", 115.0]
["CDISCPILOT01", "LB", "01-702-1082", 32.0, "SPGRAV", "Specific Gravity", "URINALYSIS", "1.026", "", "1.006", "1.03", "1.026", 1.026, "", 1.006, 1.03, "NORMAL", "Y", 1.0, "SCREENING 1", -7.0, "SCREENING", "2013-07-03T14:00", -23.0]
["CDISCPILOT01", "LB", "01-702-1082", 58.0, "SPGRAV", "Specific Gravity", "URINALYSIS", "1.022", "", "1.006", "1.03", "1.022", 1.022, "", 1.006, 1.03, "NORMAL", "", 1.1, "UNSCHEDULED 1.1", null, "SCREENING", "2013-07-24T14:00", -2.0]
["CDISCPILOT01", "LB", "01-702-1082", 105.0, "SPGRAV", "Specific Gravity", "URINALYSIS", "1.022", "", "1.006", "1.03", "1.022", 1.022, "", 1.006, 1.03, "NORMAL", "", 4.0, "WEEK 2", 14.0, "TREATMENT", "2013-08-08T14:00", 14.0]
["CDISCPILOT01", "LB", "01-702-1082", 230.0, "SPGRAV", "Specific Gravity", "URINALYSIS", "1.020", "", "1.006", "1.03", "1.02", 1.02, "", 1.006, 1.03, "NORMAL", "", 9.0, "WEEK 12", 84.0, "TREATMENT", "2013-11-17T12:20", 115.0]
["CDISCPILOT01", "LB", "01-702-1082", 33.0, "TSH", "Thyrotropin", "OTHER", "2.37", "mIU/L", "0.32", "5", "2.37", 2.37, "mU/L", 0.32, 5.0, "NORMAL", "Y", 1.0, "SCREENING 1", -7.0, "SCREENING", "2013-07-03T14:00", -23.0]
["CDISCPILOT01", "LB", "01-702-1082", 59.0, "TSH", "Thyrotropin", "OTHER", "3.27", "mIU/L", "0.32", "5", "3.27", 3.27, "mU/L", 0.32, 5.0, "NORMAL", "", 1.1, "UNSCHEDULED 1.1", null, "SCREENING", "2013-07-24T14:00", -2.0]
["CDISCPILOT01", "LB", "01-702-1082", 35.0, "UROBIL", "Urobilinogen", "URINALYSIS", "0", "", "", "", "0", 0.0, "", null, null, "NORMAL", "Y", 1.0, "SCREENING 1", -7.0, "SCREENING", "2013-07-03T14:00", -23.0]
["CDISCPILOT01", "LB", "01-702-1082", 61.0, "UROBIL", "Urobilinogen", "URINALYSIS", "0", "", "", "", "0", 0.0, "", null, null, "NORMAL", "", 1.1, "UNSCHEDULED 1.1", null, "SCREENING", "2013-07-24T14:00", -2.0]
["CDISCPILOT01", "LB", "01-702-1082", 107.0, "UROBIL", "Urobilinogen", "URINALYSIS", "0", "", "", "", "0", 0.0, "", null, null, "NORMAL", "", 4.0, "WEEK 2", 14.0, "TREATMENT", "2013-08-08T14:00", 14.0]
["CDISCPILOT01", "LB", "01-702-1082", 232.0, "UROBIL", "Urobilinogen", "URINALYSIS", "0", "", "", "", "0", 0.0, "", null, null, "NORMAL", "", 9.0, "WEEK 12", 84.0, "TREATMENT", "2013-11-17T12:20", 115.0]
["CDISCPILOT01", "LB", "01-702-1082", 36.0, "VITB12", "Vitamin B12", "OTHER", "946", "ng/L", "200", "900", "697.9588", 697.9588, "pmol/L", 148.0, 664.0, "HIGH", "Y", 1.0, "SCREENING 1", -7.0, "SCREENING", "2013-07-03T14:00", -23.0]
["CDISCPILOT01", "LB", "01-703-1042", 12.0, "COLOR", "Color", "URINALYSIS", "N", "", "", "", "N", null, "", null, null, "NORMAL", "Y", 1.0, "SCREENING 1", -7.0, "SCREENING", "2012-12-27T12:45", -65.0]
["CDISCPILOT01", "LB", "01-703-1042", 49.0, "COLOR", "Color", "URINALYSIS", "N", "", "", "", "N", null, "", null, null, "NORMAL", "", 1.1, "UNSCHEDULED 1.1", null, "SCREENING", "2013-02-21T13:30", -9.0]
["CDISCPILOT01", "LB", "01-703-1042", 86.0, "COLOR", "Color", "URINALYSIS", "N", "", "", "", "N", null, "", null, null, "NORMAL", "", 4.0, "WEEK 2", 14.0, "TREATMENT", "2013-03-14T12:00", 13.0]
["CDISCPILOT01", "LB", "01-703-1042", 212.0, "COLOR", "Color", "URINALYSIS", "N", "", "", "", "N", null, "", null, null, "NORMAL", "", 9.0, "WEEK 12", 84.0, "TREATMENT", "2013-05-25T10:30", 85.0]
["CDISCPILOT01", "LB", "01-703-1042", 307.0, "COLOR", "Color", "URINALYSIS", "N", "", "", "", "N", null, "", null, null, "NORMAL", "", 12.0, "WEEK 24", 168.0, "TREATMENT", "2013-08-09T13:45", 161.0]
["CDISCPILOT01", "LB", "01-703-1042", 20.0, "KETONES", "Ketones", "URINALYSIS", "0", "", "", "", "0", 0.0, "", null, null, "NORMAL", "Y", 1.0, "SCREENING 1", -7.0, "SCREENING", "2012-12-27T12:45", -65.0]
["CDISCPILOT01", "LB", "01-703-1042", 57.0, "KETONES", "Ketones", "URINALYSIS", "0", "", "", "", "0", 0.0, "", null, null, "NORMAL", "", 1.1, "UNSCHEDULED 1.1", null, "SCREENING", "2013-02-21T13:30", -9.0]
["CDISCPILOT01", "LB", "01-703-1042", 94.0, "KETONES", "Ketones", "URINALYSIS", "0", "", "", "", "0", 0.0, "", null, null, "NORMAL", "", 4.0, "WEEK 2", 14.0, "TREATMENT", "2013-03-14T12:00", 13.0]
["CDISCPILOT01", "LB", "01-703-1042", 220.0, "KETONES", "Ketones", "URINALYSIS", "0", "", "", "", "0", 0.0, "", null, null, "NORMAL", "", 9.0, "WEEK 12", 84.0, "TREATMENT", "2013-05-25T10:30", 85.0]
["CDISCPILOT01", "LB", "01-703-1042", 315.0, "KETONES", "Ketones", "URINALYSIS", "0", "", "", "", "0", 0.0, "", null, null, "NORMAL", "", 12.0, "WEEK 24", 168.0, "TREATMENT", "2013-08-09T13:45", 161.0]
["CDISCPILOT01", "LB", "01-703-1042", 27.0, "PH", "pH", "URINALYSIS", "5.0", "", "5", "8", "5", 5.0, "", 5.0, 8.0, "NORMAL", "Y", 1.0, "SCREENING 1", -7.0, "SCREENING", "2012-12-27T12:45", -65.0]
["CDISCPILOT01", "LB", "01-703-1042", 64.0, "PH", "pH", "URINALYSIS", "5.0", "", "5", "8", "5", 5.0, "", 5.0, 8.0, "NORMAL", "", 1.1, "UNSCHEDULED 1.1", null, "SCREENING", "2013-02-21T13:30", -9.0]
["CDISCPILOT01", "LB", "01-703-1042", 101.0, "PH", "pH", "URINALYSIS", "7.0", "", "5", "8", "7", 7.0, "", 5.0, 8.0, "NORMAL", "", 4.0, "WEEK 2", 14.0, "TREATMENT", "2013-03-14T12:00", 13.0]
["CDISCPILOT01", "LB", "01-703-1042", 227.0, "PH", "pH", "URINALYSIS", "5.0", "", "5", "8", "5", 5.0, "", 5.0, 8.0, "NORMAL", "", 9.0, "WEEK 12", 84.0, "TREATMENT", "2013-05-25T10:30", 85.0]
["CDISCPILOT01", "LB", "01-703-1042", 322.0, "PH", "pH", "URINALYSIS", "5.0", "", "5", "8", "5", 5.0, "", 5.0, 8.0, "NORMAL", "", 12.0, "WEEK 24", 168.0, "TREATMENT", "2013-08-09T13:45", 161.0]
["CDISCPILOT01", "LB", "01-703-1042", 32.0, "SPGRAV", "Specific Gravity", "URINALYSIS", "1.028", "", "1.006", "1.03", "1.028", 1.028, "", 1.006, 1.03, "NORMAL", "Y", 1.0, "SCREENING 1", -7.0, "SCREENING", "2012-12-27T12:45", -65.0]
["CDISCPILOT01", "LB", "01-703-1042", 69.0, "SPGRAV", "Specific Gravity", "URINALYSIS", "1.023", "", "1.006", "1.03", "1.023", 1.023, "", 1.006, 1.03, "NORMAL", "", 1.1, "UNSCHEDULED 1.1", null, "SCREENING", "2013-02-21T13:30", -9.0]
["CDISCPILOT01", "LB", "01-703-1042", 106.0, "SPGRAV", "Specific Gravity", "URINALYSIS", "1.025", "", "1.006", "1.03", "1.025", 1.025, "", 1.006, 1.03, "NORMAL", "", 4.0, "WEEK 2", 14.0, "TREATMENT", "2013-03-14T12:00", 13.0]
["CDISCPILOT01", "LB", "01-703-1042", 232.0, "SPGRAV", "Specific Gravity", "URINALYSIS", "1.022", "", "1.006", "1.03", "1.022", 1.022, "", 1.006, 1.03, "NORMAL", "", 9.0, "WEEK 12", 84.0, "TREATMENT", "2013-05-25T10:30", 85.0]
["CDISCPILOT01", "LB", "01-703-1042", 327.0, "SPGRAV", "Specific Gravity", "URINALYSIS", "1.029", "", "1.006", "1.03", "1.029", 1.029, "", 1.006, 1.03, "NORMAL", "", 12.0, "WEEK 24", 168.0, "TREATMENT", "2013-08-09T13:45", 161.0]
["CDISCPILOT01", "LB", "01-703-1042", 33.0, "TSH", "Thyrotropin", "OTHER", "0.81", "mIU/L", "0.32", "5", "0.81", 0.8099999999999999, "mU/L", 0.32, 5.0, "NORMAL", "Y", 1.0, "SCREENING 1", -7.0, "SCREENING", "2012-12-27T12:45", -65.0]
["CDISCPILOT01", "LB", "01-703-1042", 70.0, "TSH", "Thyrotropin", "OTHER", "0.68", "mIU/L", "0.32", "5", "0.68", 0.6799999999999999, "mU/L", 0.32, 5.0, "NORMAL", "", 1.1, "UNSCHEDULED 1.1", null, "SCREENING", "2013-02-21T13:30", -9.0]
["CDISCPILOT01", "LB", "01-703-1042", 35.0, "UROBIL", "Urobilinogen", "URINALYSIS", "0", "", "", "", "0", 0.0, "", null, null, "NORMAL", "Y", 1.0, "SCREENING 1", -7.0, "SCREENING", "2012-12-27T12:45", -65.0]
["CDISCPILOT01", "LB", "01-703-1042", 72.0, "UROBIL", "Urobilinogen", "URINALYSIS", "0", "", "", "", "0", 0.0, "", null, null, "NORMAL", "", 1.1, "UNSCHEDULED 1.1", null, "SCREENING", "2013-02-21T13:30", -9.0]
["CDISCPILOT01", "LB", "01-703-1042", 108.0, "UROBIL", "Urobilinogen", "URINALYSIS", "0", "", "", "", "0", 0.0, "", null, null, "NORMAL", "", 4.0, "WEEK 2", 14.0, "TREATMENT", "2013-03-14T12:00", 13.0]
["CDISCPILOT01", "LB", "01-703-1042", 234.0, "UROBIL", "Urobilinogen", "URINALYSIS", "0", "", "", "", "0", 0.0, "", null, null, "NORMAL", "", 9.0, "WEEK 12", 84.0, "TREATMENT", "2013-05-25T10:30", 85.0]
["CDISCPILOT01", "LB", "01-703-1042", 329.0, "UROBIL", "Urobilinogen", "URINALYSIS", "0", "", "", "", "0", 0.0, "", null, null, "NORMAL", "", 12.0, "WEEK 24", 168.0, "TREATMENT", "2013-08-09T13:45", 161.0]
["CDISCPILOT01", "LB", "01-703-1042", 36.0, "VITB12", "Vitamin B12", "OTHER", "266", "ng/L", "200", "900", "196.2548", 196.2548, "pmol/L", 148.0, 664.0, "NORMAL", "Y", 1.0, "SCREENING 1", -7.0, "SCREENING", "2012-12-27T12:45", -65.0]
["CDISCPILOT01", "LB", "01-703-1042", 73.0, "VITB12", "Vitamin B12", "OTHER", "208", "ng/L", "200", "900", "153.4624", 153.46239999999997, "pmol/L", 148.0, 664.0, "NORMAL", "", 1.1, "UNSCHEDULED 1.1", null, "SCREENING", "2013-02-21T13:30", -9.0]
["CDISCPILOT01", "LB", "01-703-1076", 12.0, "COLOR", "Color", "URINALYSIS", "N", "", "", "", "N", null, "", null, null, "NORMAL", "Y", 1.0, "SCREENING 1", -7.0, "SCREENING", "2013-10-16T11:30", -9.0]
["CDISCPILOT01", "LB", "01-703-1076", 49.0, "COLOR", "Color", "URINALYSIS", "N", "", "", "", "N", null, "", null, null, "NORMAL", "", 4.0, "WEEK 2", 14.0, "TREATMENT", "2013-11-06T10:00", 13.0]
["CDISCPILOT01", "LB", "01-703-1076", 174.0, "COLOR", "Color", "URINALYSIS", "N", "", "", "", "N", null, "", null, null, "NORMAL", "", 9.0, "WEEK 12", 84.0, "TREATMENT", "2013-12-24T13:05", 61.0]
["CDISCPILOT01", "LB", "01-703-1076", 20.0, "KETONES", "Ketones", "URINALYSIS", "0", "", "", "", "0", 0.0, "", null, null, "NORMAL", "Y", 1.0, "SCREENING 1", -7.0, "SCREENING", "2013-10-16T11:30", -9.0]
["CDISCPILOT01", "LB", "01-703-1076", 57.0, "KETONES", "Ketones", "URINALYSIS", "0", "", "", "", "0", 0.0, "", null, null, "NORMAL", "", 4.0, "WEEK 2", 14.0, "TREATMENT", "2013-11-06T10:00", 13.0]
["CDISCPILOT01", "LB", "01-703-1076", 182.0, "KETONES", "Ketones", "URINALYSIS", "0", "", "", "", "0", 0.0, "", null, null, "NORMAL", "", 9.0, "WEEK 12", 84.0, "TREATMENT", "2013-12-24T13:05", 61.0]
["CDISCPILOT01", "LB", "01-703-1076", 27.0, "PH", "pH", "URINALYSIS", "5.0", "", "5", "8", "5", 5.0, "", 5.0, 8.0, "NORMAL", "Y", 1.0, "SCREENING 1", -7.0, "SCREENING", "2013-10-16T11:30", -9.0]
["CDISCPILOT01", "LB", "01-703-1076", 64.0, "PH", "pH", "URINALYSIS", "6.0", "", "5", "8", "6", 6.0, "", 5.0, 8.0, "NORMAL", "", 4.0, "WEEK 2", 14.0, "TREATMENT", "2013-11-06T10:00", 13.0]
["CDISCPILOT01", "LB", "01-703-1076", 189.0, "PH", "pH", "URINALYSIS", "5.0", "", "5", "8", "5", 5.0, "", 5.0, 8.0, "NORMAL", "", 9.0, "WEEK 12", 84.0, "TREATMENT", "2013-12-24T13:05", 61.0]
["CDISCPILOT01", "LB", "01-703-1076", 32.0, "SPGRAV", "Specific Gravity", "URINALYSIS", "1.015", "", "1.006", "1.03", "1.015", 1.015, "", 1.006, 1.03, "NORMAL", "Y", 1.0, "SCREENING 1", -7.0, "SCREENING", "2013-10-16T11:30", -9.0]
["CDISCPILOT01", "LB", "01-703-1076", 69.0, "SPGRAV", "Specific Gravity", "URINALYSIS", "1.010", "", "1.006", "1.03", "1.01", 1.01, "", 1.006, 1.03, "NORMAL", "", 4.0, "WEEK 2", 14.0, "TREATMENT", "2013-11-06T10:00", 13.0]
["CDISCPILOT01", "LB", "01-703-1076", 194.0, "SPGRAV", "Specific Gravity", "URINALYSIS", "1.019", "", "1.006", "1.03", "1.019", 1.019, "", 1.006, 1.03, "NORMAL", "", 9.0, "WEEK 12", 84.0, "TREATMENT", "2013-12-24T13:05", 61.0]
["CDISCPILOT01", "LB", "01-703-1076", 33.0, "TSH", "Thyrotropin", "OTHER", "3.34", "mIU/L", "0.32", "5", "3.34", 3.34, "mU/L", 0.32, 5.0, "NORMAL", "Y", 1.0, "SCREENING 1", -7.0, "SCREENING", "2013-10-16T11:30", -9.0]
["CDISCPILOT01", "LB", "01-703-1076", 35.0, "UROBIL", "Urobilinogen", "URINALYSIS", "0", "", "", "", "0", 0.0, "", null, null, "NORMAL", "Y", 1.0, "SCREENING 1", -7.0, "SCREENING", "2013-10-16T11:30", -9.0]
["CDISCPILOT01", "LB", "01-703-1076", 71.0, "UROBIL", "Urobilinogen", "URINALYSIS", "0", "", "", "", "0", 0.0, "", null, null, "NORMAL", "", 4.0, "WEEK 2", 14.0, "TREATMENT", "2013-11-06T10:00", 13.0]
["CDISCPILOT01", "LB", "01-703-1076", 196.0, "UROBIL", "Urobilinogen", "URINALYSIS", "0", "", "", "", "0", 0.0, "", null, null, "NORMAL", "", 9.0, "WEEK 12", 84.0, "TREATMENT", "2013-12-24T13:05", 61.0]
["CDISCPILOT01", "LB", "01-703-1076", 36.0, "VITB12", "Vitamin B12", "OTHER", "585", "ng/L", "200", "900", "431.613", 431.613, "pmol/L", 148.0, 664.0, "NORMAL", "Y", 1.0, "SCREENING 1", -7.0, "SCREENING", "2013-10-16T11:30", -9.0]
["CDISCPILOT01", "LB", "01-703-1086", 11.0, "COLOR", "Color", "URINALYSIS", "N", "", "", "", "N", null, "", null, null, "NORMAL", "Y", 1.0, "SCREENING 1", -7.0, "SCREENING", "2012-08-19T14:50", -14.0]
["CDISCPILOT01", "LB", "01-703-1086", 49.0, "COLOR", "Color", "URINALYSIS", "N", "", "", "", "N", null, "", null, null, "NORMAL", "", 4.0, "WEEK 2", 14.0, "TREATMENT", "2012-09-16T11:10", 15.0]
["CDISCPILOT01", "LB", "01-703-1086", 174.0, "COLOR", "Color", "URINALYSIS", "N", "", "", "", "N", null, "", null, null, "NORMAL", "", 9.0, "WEEK 12", 84.0, "TREATMENT", "2012-11-27T09:30", 87.0]
["CDISCPILOT01", "LB", "01-703-1086", 209.0, "COLOR", "Color", "URINALYSIS", "N", "", "", "", "N", null, "", null, null, "NORMAL", "", 10.0, "WEEK 16", 112.0, "TREATMENT", "2012-12-24T09:30", 114.0]
["CDISCPILOT01", "LB", "01-703-1086", 16.0, "KETONES", "Ketones", "URINALYSIS", "0", "", "", "", "0", 0.0, "", null, null, "NORMAL", "Y", 1.0, "SCREENING 1", -7.0, "SCREENING", "2012-08-19T14:50", -14.0]
["CDISCPILOT01", "LB", "01-703-1086", 57.0, "KETONES", "Ketones", "URINALYSIS", "0", "", "", "", "0", 0.0, "", null, null, "NORMAL", "", 4.0, "WEEK 2", 14.0, "TREATMENT", "2012-09-16T11:10", 15.0]
["CDISCPILOT01", "LB", "01-703-1086", 182.0, "KETONES", "Ketones", "URINALYSIS", "0", "", "", "", "0", 0.0, "", null, null, "NORMAL", "", 9.0, "WEEK 12", 84.0, "TREATMENT", "2012-11-27T09:30", 87.0]
["CDISCPILOT01", "LB", "01-703-1086", 217.0, "KETONES", "Ketones", "URINALYSIS", "0", "", "", "", "0", 0.0, "", null, null, "NORMAL", "", 10.0, "WEEK 16", 112.0, "TREATMENT", "2012-12-24T09:30", 114.0]
["CDISCPILOT01", "LB", "01-703-1086", 18.0, "PH", "pH", "URINALYSIS", "6.0", "", "5", "8", "6", 6.0, "", 5.0, 8.0, "NORMAL", "Y", 1.0, "SCREENING 1", -7.0, "SCREENING", "2012-08-19T14:50", -14.0]
["CDISCPILOT01", "LB", "01-703-1086", 64.0, "PH", "pH", "URINALYSIS", "7.0", "", "5", "8", "7", 7.0, "", 5.0, 8.0, "NORMAL", "", 4.0, "WEEK 2", 14.0, "TREATMENT", "2012-09-16T11:10", 15.0]
["CDISCPILOT01", "LB", "01-703-1086", 189.0, "PH", "pH", "URINALYSIS", "6.0", "", "5", "8", "6", 6.0, "", 5.0, 8.0, "NORMAL", "", 9.0, "WEEK 12", 84.0, "TREATMENT", "2012-11-27T09:30", 87.0]
["CDISCPILOT01", "LB", "01-703-1086", 224.0, "PH", "pH", "URINALYSIS", "7.0", "", "5", "8", "7", 7.0, "", 5.0, 8.0, "NORMAL", "", 10.0, "WEEK 16", 112.0, "TREATMENT", "2012-12-24T09:30", 114.0]
["CDISCPILOT01", "LB", "01-703-1086", 21.0, "SPGRAV", "Specific Gravity", "URINALYSIS", "1.011", "", "1.006", "1.03", "1.011", 1.011, "", 1.006, 1.03, "NORMAL", "Y", 1.0, "SCREENING 1", -7.0, "SCREENING", "2012-08-19T14:50", -14.0]
["CDISCPILOT01", "LB", "01-703-1086", 69.0, "SPGRAV", "Specific Gravity", "URINALYSIS", "1.023", "", "1.006", "1.03", "1.023", 1.023, "", 1.006, 1.03, "NORMAL", "", 4.0, "WEEK 2", 14.0, "TREATMENT", "2012-09-16T11:10", 15.0]
["CDISCPILOT01", "LB", "01-703-1086", 194.0, "SPGRAV", "Specific Gravity", "URINALYSIS", "1.013", "", "1.006", "1.03", "1.013", 1.013, "", 1.006, 1.03, "NORMAL", "", 9.0, "WEEK 12", 84.0, "TREATMENT", "2012-11-27T09:30", 87.0]
["CDISCPILOT01", "LB", "01-703-1086", 229.0, "SPGRAV", "Specific Gravity", "URINALYSIS", "1.012", "", "1.006", "1.03", "1.012", 1.012, "", 1.006, 1.03, "NORMAL", "", 10.0, "WEEK 16", 112.0, "TREATMENT", "2012-12-24T09:30", 114.0]
["CDISCPILOT01", "LB", "01-703-1086", 22.0, "TSH", "Thyrotropin", "OTHER", "1.09", "mIU/L", "0.32", "5", "1.09", 1.09, "mU/L", 0.32, 5.0, "NORMAL", "Y", 1.0, "SCREENING 1", -7.0, "SCREENING", "2012-08-19T14:50", -14.0]
["CDISCPILOT01", "LB", "01-703-1086", 24.0, "UROBIL", "Urobilinogen", "URINALYSIS", "0", "", "", "", "0", 0.0, "", null, null, "NORMAL", "Y", 1.0, "SCREENING 1", -7.0, "SCREENING", "2012-08-19T14:50", -14.0]
["CDISCPILOT01", "LB", "01-703-1086", 71.0, "UROBIL", "Urobilinogen", "URINALYSIS", "0", "", "", "", "0", 0.0, "", null, null, "NORMAL", "", 4.0, "WEEK 2", 14.0, "TREATMENT", "2012-09-16T11:10", 15.0]
["CDISCPILOT01", "LB", "01-703-1086", 196.0, "UROBIL", "Urobilinogen", "URINALYSIS", "0", "", "", "", "0", 0.0, "", null, null, "NORMAL", "", 9.0, "WEEK 12", 84.0, "TREATMENT", "2012-11-27T09:30", 87.0]
["CDISCPILOT01", "LB", "01-703-1086", 231.0, "UROBIL", "Urobilinogen", "URINALYSIS", "0", "", "", "", "0", 0.0, "", null, null, "NORMAL", "", 10.0, "WEEK 16", 112.0, "TREATMENT", "2012-12-24T09:30", 114.0]
["CDISCPILOT01", "LB", "01-703-1086", 25.0, "VITB12", "Vitamin B12", "OTHER", "498", "ng/L", "200", "900", "367.4244", 367.4244, "pmol/L", 148.0, 664.0, "NORMAL", "Y", 1.0, "SCREENING 1", -7.0, "SCREENING", "2012-08-19T14:50", -14.0]
["CDISCPILOT01", "LB", "01-703-1096", 12.0, "COLOR", "Color", "URINALYSIS", "N", "", "", "", "N", null, "", null, null, "NORMAL", "Y", 1.0, "SCREENING 1", -7.0, "SCREENING", "2012-12-05T11:30", -51.0]
["CDISCPILOT01", "LB", "01-703-1096", 61.0, "COLOR", "Color", "URINALYSIS", "N", "", "", "", "N", null, "", null, null, "NORMAL", "", 1.3000000000000003, "UNSCHEDULED 1.3", null, "SCREENING", "2013-01-23T18:00", -2.0]
["CDISCPILOT01", "LB", "01-703-1096", 20.0, "KETONES", "Ketones", "URINALYSIS", "0", "", "", "", "0", 0.0, "", null, null, "NORMAL", "Y", 1.0, "SCREENING 1", -7.0, "SCREENING", "2012-12-05T11:30", -51.0]
["CDISCPILOT01", "LB", "01-703-1096", 69.0, "KETONES", "Ketones", "URINALYSIS", "0", "", "", "", "0", 0.0, "", null, null, "NORMAL", "", 1.3000000000000003, "UNSCHEDULED 1.3", null, "SCREENING", "2013-01-23T18:00", -2.0]
["CDISCPILOT01", "LB", "01-703-1096", 27.0, "PH", "pH", "URINALYSIS", "5.0", "", "5", "8", "5", 5.0, "", 5.0, 8.0, "NORMAL", "Y", 1.0, "SCREENING 1", -7.0, "SCREENING", "2012-12-05T11:30", -51.0]
["CDISCPILOT01", "LB", "01-703-1096", 76.0, "PH", "pH", "URINALYSIS", "5.0", "", "5", "8", "5", 5.0, "", 5.0, 8.0, "NORMAL", "", 1.3000000000000003, "UNSCHEDULED 1.3", null, "SCREENING", "2013-01-23T18:00", -2.0]
["CDISCPILOT01", "LB", "01-703-1096", 32.0, "SPGRAV", "Specific Gravity", "URINALYSIS", "1.021", "", "1.006", "1.03", "1.021", 1.021, "", 1.006, 1.03, "NORMAL", "Y", 1.0, "SCREENING 1", -7.0, "SCREENING", "2012-12-05T11:30", -51.0]
["CDISCPILOT01", "LB", "01-703-1096", 81.0, "SPGRAV", "Specific Gravity", "URINALYSIS", "1.027", "", "1.006", "1.03", "1.027", 1.027, "", 1.006, 1.03, "NORMAL", "", 1.3000000000000003, "UNSCHEDULED 1.3", null, "SCREENING", "2013-01-23T18:00", -2.0]
["CDISCPILOT01", "LB", "01-703-1096", 33.0, "TSH", "Thyrotropin", "OTHER", "0.79", "mIU/L", "0.32", "5", "0.79", 0.7899999999999999, "mU/L", 0.32, 5.0, "NORMAL", "Y", 1.0, "SCREENING 1", -7.0, "SCREENING", "2012-12-05T11:30", -51.0]
["CDISCPILOT01", "LB", "01-703-1096", 82.0, "TSH", "Thyrotropin", "OTHER", "0.86", "mIU/L", "0.32", "5", "0.86", 0.86, "mU/L", 0.32, 5.0, "NORMAL", "", 1.3000000000000003, "UNSCHEDULED 1.3", null, "SCREENING", "2013-01-23T18:00", -2.0]
["CDISCPILOT01", "LB", "01-703-1096", 35.0, "UROBIL", "Urobilinogen", "URINALYSIS", "0", "", "", "", "0", 0.0, "", null, null, "NORMAL", "Y", 1.0, "SCREENING 1", -7.0, "SCREENING", "2012-12-05T11:30", -51.0]
["CDISCPILOT01", "LB", "01-703-1096", 84.0, "UROBIL", "Urobilinogen", "URINALYSIS", "0", "", "", "", "0", 0.0, "", null, null, "NORMAL", "", 1.3000000000000003, "UNSCHEDULED 1.3", null, "SCREENING", "2013-01-23T18:00", -2.0]
["CDISCPILOT01", "LB", "01-703-1096", 49.0, "VITB12", "Vitamin B12", "OTHER", "203", "ng/L", "200", "900", "149.7734", 149.77339999999998, "pmol/L", 148.0, 664.0, "NORMAL", "", 1.2000000000000002, "UNSCHEDULED 1.2", null, "SCREENING", "2012-12-29T12:00", -27.0]
["CDISCPILOT01", "LB", "01-703-1096", 85.0, "VITB12", "Vitamin B12", "OTHER", "312", "ng/L", "200", "900", "230.1936", 230.19359999999998, "pmol/L", 148.0, 664.0, "NORMAL", "", 1.3000000000000003, "UNSCHEDULED 1.3", null, "SCREENING", "2013-01-23T18:00", -2.0]
["CDISCPILOT01", "LB", "01-703-1100", 11.0, "COLOR", "Color", "URINALYSIS", "N", "", "", "", "N", null, "", null, null, "NORMAL", "Y", 1.0, "SCREENING 1", -7.0, "SCREENING", "2012-12-13T17:30", -90.0]
["CDISCPILOT01", "LB", "01-703-1100", 50.0, "COLOR", "Color", "URINALYSIS", "N", "", "", "", "N", null, "", null, null, "NORMAL", "", 1.2000000000000002, "UNSCHEDULED 1.2", null, "SCREENING", "2013-02-28T15:30", -13.0]
["CDISCPILOT01", "LB", "01-703-1100", 87.0, "COLOR", "Color", "URINALYSIS", "N", "", "", "", "N", null, "", null, null, "NORMAL", "", 4.0, "WEEK 2", 14.0, "TREATMENT", "2013-03-29T10:30", 17.0]
["CDISCPILOT01", "LB", "01-703-1100", 212.0, "COLOR", "Color", "URINALYSIS", "N", "", "", "", "N", null, "", null, null, "NORMAL", "", 9.0, "WEEK 12", 84.0, "TREATMENT", "2013-06-05T15:05", 85.0]
["CDISCPILOT01", "LB", "01-703-1100", 307.0, "COLOR", "Color", "URINALYSIS", "N", "", "", "", "N", null, "", null, null, "NORMAL", "", 12.0, "WEEK 24", 168.0, "TREATMENT", "2013-08-28T10:15", 169.0]
["CDISCPILOT01", "LB", "01-703-1100", 16.0, "KETONES", "Ketones", "URINALYSIS", "0", "", "", "", "0", 0.0, "", null, null, "NORMAL", "Y", 1.0, "SCREENING 1", -7.0, "SCREENING", "2012-12-13T17:30", -90.0]
["CDISCPILOT01", "LB", "01-703-1100", 58.0, "KETONES", "Ketones", "URINALYSIS", "0", "", "", "", "0", 0.0, "", null, null, "NORMAL", "", 1.2000000000000002, "UNSCHEDULED 1.2", null, "SCREENING", "2013-02-28T15:30", -13.0]
["CDISCPILOT01", "LB", "01-703-1100", 95.0, "KETONES", "Ketones", "URINALYSIS", "0", "", "", "", "0", 0.0, "", null, null, "NORMAL", "", 4.0, "WEEK 2", 14.0, "TREATMENT", "2013-03-29T10:30", 17.0]
["CDISCPILOT01", "LB", "01-703-1100", 220.0, "KETONES", "Ketones", "URINALYSIS", "0", "", "", "", "0", 0.0, "", null, null, "NORMAL", "", 9.0, "WEEK 12", 84.0, "TREATMENT", "2013-06-05T15:05", 85.0]
["CDISCPILOT01", "LB", "01-703-1100", 315.0, "KETONES", "Ketones", "URINALYSIS", "0", "", "", "", "0", 0.0, "", null, null, "NORMAL", "", 12.0, "WEEK 24", 168.0, "TREATMENT", "2013-08-28T10:15", 169.0]
["CDISCPILOT01", "LB", "01-703-1100", 18.0, "PH", "pH", "URINALYSIS", "5.0", "", "5", "8", "5", 5.0, "", 5.0, 8.0, "NORMAL", "Y", 1.0, "SCREENING 1", -7.0, "SCREENING", "2012-12-13T17:30", -90.0]
["CDISCPILOT01", "LB", "01-703-1100", 65.0, "PH", "pH", "URINALYSIS", "5.0", "", "5", "8", "5", 5.0, "", 5.0, 8.0, "NORMAL", "", 1.2000000000000002, "UNSCHEDULED 1.2", null, "SCREENING", "2013-02-28T15:30", -13.0]
["CDISCPILOT01", "LB", "01-703-1100", 102.0, "PH", "pH", "URINALYSIS", "5.0", "", "5", "8", "5", 5.0, "", 5.0, 8.0, "NORMAL", "", 4.0, "WEEK 2", 14.0, "TREATMENT", "2013-03-29T10:30", 17.0]
["CDISCPILOT01", "LB", "01-703-1100", 227.0, "PH", "pH", "URINALYSIS", "5.0", "", "5", "8", "5", 5.0, "", 5.0, 8.0, "NORMAL", "", 9.0, "WEEK 12", 84.0, "TREATMENT", "2013-06-05T15:05", 85.0]
