{"datasetJSONCreationDateTime": "2025-10-13T16:15:17", "datasetJSONVersion": "1.1.0", "itemGroupOID": "{QSCO", "records": 12241, "name": "QSCO", "label": "QSCO", "columns": [{"itemOID": "IT.STUDYID", "name": "STUDYID", "label": "Study Identifier", "dataType": "string"}, {"itemOID": "IT.DOMAIN", "name": "DOMAIN", "label": "Domain Abbreviation", "dataType": "string"}, {"itemOID": "IT.USUBJID", "name": "USUBJID", "label": "Unique Subject Identifier", "dataType": "string"}, {"itemOID": "IT.QSSEQ", "name": "QSSEQ", "label": "Sequence Number", "dataType": "double"}, {"itemOID": "IT.QSTESTCD", "name": "QSTESTCD", "label": "Question Short Name", "dataType": "string"}, {"itemOID": "IT.QSTEST", "name": "QSTEST", "label": "Question Name", "dataType": "string"}, {"itemOID": "IT.QSCAT", "name": "QSCAT", "label": "Category of Question", "dataType": "string"}, {"itemOID": "IT.QSSCAT", "name": "QSSCAT", "label": "Subcategory for Question", "dataType": "string"}, {"itemOID": "IT.QSORRES", "name": "QSORRES", "label": "Finding in Original Units", "dataType": "string"}, {"itemOID": "IT.QSORRESU", "name": "QSORRESU", "label": "Original Units", "dataType": "string"}, {"itemOID": "IT.QSSTRESC", "name": "QSSTRESC", "label": "Result or Finding in Standard Format", "dataType": "string"}, {"itemOID": "IT.QSSTRESN", "name": "QSSTRESN", "label": "Numeric Finding in Standard Units", "dataType": "double"}, {"itemOID": "IT.QSSTRESU", "name": "QSSTRESU", "label": "Standard Units", "dataType": "string"}, {"itemOID": "IT.QSSTAT", "name": "QSSTAT", "label": "Completion Status", "dataType": "string"}, {"itemOID": "IT.QSREASND", "name": "QSREASND", "label": "Reason Not Performed", "dataType": "string"}, {"itemOID": "IT.QSBLFL", "name": "QSBLFL", "label": "Baseline Flag", "dataType": "string"}, {"itemOID": "IT.QSDRVFL", "name": "QSDRVFL", "label": "Derived Flag", "dataType": "string"}, {"itemOID": "IT.VISITNUM", "name": "VISITNUM", "label": "Visit Number", "dataType": "double"}, {"itemOID": "IT.VISIT", "name": "VISIT", "label": "Visit Name", "dataType": "string"}, {"itemOID": "IT.VISITDY", "name": "VISITDY", "label": "Planned Study Day of Visit", "dataType": "double"}, {"itemOID": "IT.EPOCH", "name": "EPOCH", "label": "Epoch", "dataType": "string"}, {"itemOID": "IT.QSDTC", "name": "QSDTC", "label": "Date/Time of Finding", "dataType": "string"}, {"itemOID": "IT.QSDY", "name": "QSDY", "label": "Study Day of Finding", "dataType": "double"}]}
["CDISCPILOT01", "QS", "01-701-1015", 5001.0, "ACITM01", "WORD RECALL TASK", "ADAS-COG", "", "3", "", "3", 3.0, "", "", "", "Y", "", 3.0, "BASELINE", 1.0, "TREATMENT", "2014-01-02", 1.0]
["CDISCPILOT01", "QS", "01-701-1015", 5016.0, "ACITM01", "WORD RECALL TASK", "ADAS-COG", "", "2", "", "2", 2.0, "", "", "", "", "", 8.0, "WEEK 8", 56.0, "TREATMENT", "2014-03-05", 63.0]
["CDISCPILOT01", "QS", "01-701-1015", 5031.0, "ACITM01", "WORD RECALL TASK", "ADAS-COG", "", "4", "", "4", 4.0, "", "", "", "", "", 10.0, "WEEK 16", 112.0, "TREATMENT", "2014-05-07", 126.0]
["CDISCPILOT01", "QS", "01-701-1015", 5046.0, "ACITM01", "WORD RECALL TASK", "ADAS-COG", "", "3", "", "3", 3.0, "", "", "", "", "", 12.0, "WEEK 24", 168.0, "TREATMENT", "2014-06-18", 168.0]
["CDISCPILOT01", "QS", "01-701-1015", 5002.0, "ACITM02", "NAMING OBJECTS AND FINGERS (REFER TO 5 C", "ADAS-COG", "", "1", "", "1", 1.0, "", "", "", "Y", "", 3.0, "BASELINE", 1.0, "TREATMENT", "2014-01-02", 1.0]
["CDISCPILOT01", "QS", "01-701-1015", 5017.0, "ACITM02", "NAMING OBJECTS AND FINGERS (REFER TO 5 C", "ADAS-COG", "", "0", "", "0", 0.0, "", "", "", "", "", 8.0, "WEEK 8", 56.0, "TREATMENT", "2014-03-05", 63.0]
["CDISCPILOT01", "QS", "01-701-1015", 5032.0, "ACITM02", "NAMING OBJECTS AND FINGERS (REFER TO 5 C", "ADAS-COG", "", "0", "", "0", 0.0, "", "", "", "", "", 10.0, "WEEK 16", 112.0, "TREATMENT", "2014-05-07", 126.0]
["CDISCPILOT01", "QS", "01-701-1015", 5047.0, "ACITM02", "NAMING OBJECTS AND FINGERS (REFER TO 5 C", "ADAS-COG", "", "0", "", "0", 0.0, "", "", "", "", "", 12.0, "WEEK 24", 168.0, "TREATMENT", "2014-06-18", 168.0]
["CDISCPILOT01", "QS", "01-701-1015", 5003.0, "ACITM03", "DELAYED WORD RECALL", "ADAS-COG", "", "3", "", "3", 3.0, "", "", "", "Y", "", 3.0, "BASELINE", 1.0, "TREATMENT", "2014-01-02", 1.0]
["CDISCPILOT01", "QS", "01-701-1015", 5018.0, "ACITM03", "DELAYED WORD RECALL", "ADAS-COG", "", "3", "", "3", 3.0, "", "", "", "", "", 8.0, "WEEK 8", 56.0, "TREATMENT", "2014-03-05", 63.0]
["CDISCPILOT01", "QS", "01-701-1015", 5033.0, "ACITM03", "DELAYED WORD RECALL", "ADAS-COG", "", "1", "", "1", 1.0, "", "", "", "", "", 10.0, "WEEK 16", 112.0, "TREATMENT", "2014-05-07", 126.0]
["CDISCPILOT01", "QS", "01-701-1015", 5048.0, "ACITM03", "DELAYED WORD RECALL", "ADAS-COG", "", "2", "", "2", 2.0, "", "", "", "", "", 12.0, "WEEK 24", 168.0, "TREATMENT", "2014-06-18", 168.0]
["CDISCPILOT01", "QS", "01-701-1015", 5004.0, "ACITM04", "COMMANDS", "ADAS-COG", "", "0", "", "0", 0.0, "", "", "", "Y", "", 3.0, "BASELINE", 1.0, "TREATMENT", "2014-01-02", 1.0]
["CDISCPILOT01", "QS", "01-701-1015", 5019.0, "ACITM04", "COMMANDS", "ADAS-COG", "", "0", "", "0", 0.0, "", "", "", "", "", 8.0, "WEEK 8", 56.0, "TREATMENT", "2014-03-05", 63.0]
["CDISCPILOT01", "QS", "01-701-1015", 5034.0, "ACITM04", "COMMANDS", "ADAS-COG", "", "0", "", "0", 0.0, "", "", "", "", "", 10.0, "WEEK 16", 112.0, "TREATMENT", "2014-05-07", 126.0]
["CDISCPILOT01", "QS", "01-701-1015", 5049.0, "ACITM04", "COMMANDS", "ADAS-COG", "", "0", "", "0", 0.0, "", "", "", "", "", 12.0, "WEEK 24", 168.0, "TREATMENT", "2014-06-18", 168.0]
["CDISCPILOT01", "QS", "01-701-1015", 5005.0, "ACITM05", "CONSTRUCTIONAL PRAXIS", "ADAS-COG", "", "3", "", "3", 3.0, "", "", "", "Y", "", 3.0, "BASELINE", 1.0, "TREATMENT", "2014-01-02", 1.0]
["CDISCPILOT01", "QS", "01-701-1015", 5020.0, "ACITM05", "CONSTRUCTIONAL PRAXIS", "ADAS-COG", "", "2", "", "2", 2.0, "", "", "", "", "", 8.0, "WEEK 8", 56.0, "TREATMENT", "2014-03-05", 63.0]
["CDISCPILOT01", "QS", "01-701-1015", 5035.0, "ACITM05", "CONSTRUCTIONAL PRAXIS", "ADAS-COG", "", "2", "", "2", 2.0, "", "", "", "", "", 10.0, "WEEK 16", 112.0, "TREATMENT", "2014-05-07", 126.0]
["CDISCPILOT01", "QS", "01-701-1015", 5050.0, "ACITM05", "CONSTRUCTIONAL PRAXIS", "ADAS-COG", "", "3", "", "3", 3.0, "", "", "", "", "", 12.0, "WEEK 24", 168.0, "TREATMENT", "2014-06-18", 168.0]
["CDISCPILOT01", "QS", "01-701-1015", 5006.0, "ACITM06", "IDEATIONAL PRAXIS", "ADAS-COG", "", "0", "", "0", 0.0, "", "", "", "Y", "", 3.0, "BASELINE", 1.0, "TREATMENT", "2014-01-02", 1.0]
["CDISCPILOT01", "QS", "01-701-1015", 5021.0, "ACITM06", "IDEATIONAL PRAXIS", "ADAS-COG", "", "0", "", "0", 0.0, "", "", "", "", "", 8.0, "WEEK 8", 56.0, "TREATMENT", "2014-03-05", 63.0]
["CDISCPILOT01", "QS", "01-701-1015", 5036.0, "ACITM06", "IDEATIONAL PRAXIS", "ADAS-COG", "", "0", "", "0", 0.0, "", "", "", "", "", 10.0, "WEEK 16", 112.0, "TREATMENT", "2014-05-07", 126.0]
["CDISCPILOT01", "QS", "01-701-1015", 5051.0, "ACITM06", "IDEATIONAL PRAXIS", "ADAS-COG", "", "0", "", "0", 0.0, "", "", "", "", "", 12.0, "WEEK 24", 168.0, "TREATMENT", "2014-06-18", 168.0]
["CDISCPILOT01", "QS", "01-701-1015", 5007.0, "ACITM07", "ORIENTATION", "ADAS-COG", "", "1", "", "1", 1.0, "", "", "", "Y", "", 3.0, "BASELINE", 1.0, "TREATMENT", "2014-01-02", 1.0]
["CDISCPILOT01", "QS", "01-701-1015", 5022.0, "ACITM07", "ORIENTATION", "ADAS-COG", "", "0", "", "0", 0.0, "", "", "", "", "", 8.0, "WEEK 8", 56.0, "TREATMENT", "2014-03-05", 63.0]
["CDISCPILOT01", "QS", "01-701-1015", 5037.0, "ACITM07", "ORIENTATION", "ADAS-COG", "", "0", "", "0", 0.0, "", "", "", "", "", 10.0, "WEEK 16", 112.0, "TREATMENT", "2014-05-07", 126.0]
["CDISCPILOT01", "QS", "01-701-1015", 5052.0, "ACITM07", "ORIENTATION", "ADAS-COG", "", "1", "", "1", 1.0, "", "", "", "", "", 12.0, "WEEK 24", 168.0, "TREATMENT", "2014-06-18", 168.0]
["CDISCPILOT01", "QS", "01-701-1015", 5008.0, "ACITM08", "WORD RECOGNITION", "ADAS-COG", "", "1", "", "1", 1.0, "", "", "", "Y", "", 3.0, "BASELINE", 1.0, "TREATMENT", "2014-01-02", 1.0]
["CDISCPILOT01", "QS", "01-701-1015", 5023.0, "ACITM08", "WORD RECOGNITION", "ADAS-COG", "", "0", "", "0", 0.0, "", "", "", "", "", 8.0, "WEEK 8", 56.0, "TREATMENT", "2014-03-05", 63.0]
["CDISCPILOT01", "QS", "01-701-1015", 5038.0, "ACITM08", "WORD RECOGNITION", "ADAS-COG", "", "1", "", "1", 1.0, "", "", "", "", "", 10.0, "WEEK 16", 112.0, "TREATMENT", "2014-05-07", 126.0]
["CDISCPILOT01", "QS", "01-701-1015", 5053.0, "ACITM08", "WORD RECOGNITION", "ADAS-COG", "", "1", "", "1", 1.0, "", "", "", "", "", 12.0, "WEEK 24", 168.0, "TREATMENT", "2014-06-18", 168.0]
["CDISCPILOT01", "QS", "01-701-1015", 5009.0, "ACITM09", "ATTENTION/VISUAL SEARCH TASK", "ADAS-COG", "", "23", "", "23", 23.0, "", "", "", "Y", "", 3.0, "BASELINE", 1.0, "TREATMENT", "2014-01-02", 1.0]
["CDISCPILOT01", "QS", "01-701-1015", 5024.0, "ACITM09", "ATTENTION/VISUAL SEARCH TASK", "ADAS-COG", "", "27", "", "27", 27.0, "", "", "", "", "", 8.0, "WEEK 8", 56.0, "TREATMENT", "2014-03-05", 63.0]
["CDISCPILOT01", "QS", "01-701-1015", 5039.0, "ACITM09", "ATTENTION/VISUAL SEARCH TASK", "ADAS-COG", "", "34", "", "34", 34.0, "", "", "", "", "", 10.0, "WEEK 16", 112.0, "TREATMENT", "2014-05-07", 126.0]
["CDISCPILOT01", "QS", "01-701-1015", 5054.0, "ACITM09", "ATTENTION/VISUAL SEARCH TASK", "ADAS-COG", "", "39", "", "39", 39.0, "", "", "", "", "", 12.0, "WEEK 24", 168.0, "TREATMENT", "2014-06-18", 168.0]
["CDISCPILOT01", "QS", "01-701-1015", 5010.0, "ACITM10", "MAZE SOLUTION", "ADAS-COG", "", "3", "sec", "3", 3.0, "sec", "", "", "Y", "", 3.0, "BASELINE", 1.0, "TREATMENT", "2014-01-02", 1.0]
["CDISCPILOT01", "QS", "01-701-1015", 5025.0, "ACITM10", "MAZE SOLUTION", "ADAS-COG", "", "4", "sec", "4", 4.0, "sec", "", "", "", "", 8.0, "WEEK 8", 56.0, "TREATMENT", "2014-03-05", 63.0]
["CDISCPILOT01", "QS", "01-701-1015", 5040.0, "ACITM10", "MAZE SOLUTION", "ADAS-COG", "", "4", "sec", "4", 4.0, "sec", "", "", "", "", 10.0, "WEEK 16", 112.0, "TREATMENT", "2014-05-07", 126.0]
["CDISCPILOT01", "QS", "01-701-1015", 5055.0, "ACITM10", "MAZE SOLUTION", "ADAS-COG", "", "3", "sec", "3", 3.0, "sec", "", "", "", "", 12.0, "WEEK 24", 168.0, "TREATMENT", "2014-06-18", 168.0]
["CDISCPILOT01", "QS", "01-701-1015", 5011.0, "ACITM11", "SPOKEN LANGUAGE ABILITY", "ADAS-COG", "", "1", "", "1", 1.0, "", "", "", "Y", "", 3.0, "BASELINE", 1.0, "TREATMENT", "2014-01-02", 1.0]
["CDISCPILOT01", "QS", "01-701-1015", 5026.0, "ACITM11", "SPOKEN LANGUAGE ABILITY", "ADAS-COG", "", "1", "", "1", 1.0, "", "", "", "", "", 8.0, "WEEK 8", 56.0, "TREATMENT", "2014-03-05", 63.0]
["CDISCPILOT01", "QS", "01-701-1015", 5041.0, "ACITM11", "SPOKEN LANGUAGE ABILITY", "ADAS-COG", "", "1", "", "1", 1.0, "", "", "", "", "", 10.0, "WEEK 16", 112.0, "TREATMENT", "2014-05-07", 126.0]
["CDISCPILOT01", "QS", "01-701-1015", 5056.0, "ACITM11", "SPOKEN LANGUAGE ABILITY", "ADAS-COG", "", "0", "", "0", 0.0, "", "", "", "", "", 12.0, "WEEK 24", 168.0, "TREATMENT", "2014-06-18", 168.0]
["CDISCPILOT01", "QS", "01-701-1015", 5012.0, "ACITM12", "COMPREHENSION OF SPOKEN LANGUAGE", "ADAS-COG", "", "1", "", "1", 1.0, "", "", "", "Y", "", 3.0, "BASELINE", 1.0, "TREATMENT", "2014-01-02", 1.0]
["CDISCPILOT01", "QS", "01-701-1015", 5027.0, "ACITM12", "COMPREHENSION OF SPOKEN LANGUAGE", "ADAS-COG", "", "1", "", "1", 1.0, "", "", "", "", "", 8.0, "WEEK 8", 56.0, "TREATMENT", "2014-03-05", 63.0]
["CDISCPILOT01", "QS", "01-701-1015", 5042.0, "ACITM12", "COMPREHENSION OF SPOKEN LANGUAGE", "ADAS-COG", "", "1", "", "1", 1.0, "", "", "", "", "", 10.0, "WEEK 16", 112.0, "TREATMENT", "2014-05-07", 126.0]
["CDISCPILOT01", "QS", "01-701-1015", 5057.0, "ACITM12", "COMPREHENSION OF SPOKEN LANGUAGE", "ADAS-COG", "", "0", "", "0", 0.0, "", "", "", "", "", 12.0, "WEEK 24", 168.0, "TREATMENT", "2014-06-18", 168.0]
["CDISCPILOT01", "QS", "01-701-1015", 5013.0, "ACITM13", "WORD FINDING DIFFICULTY IN SPONTANEOUS S", "ADAS-COG", "", "1", "", "1", 1.0, "", "", "", "Y", "", 3.0, "BASELINE", 1.0, "TREATMENT", "2014-01-02", 1.0]
["CDISCPILOT01", "QS", "01-701-1015", 5028.0, "ACITM13", "WORD FINDING DIFFICULTY IN SPONTANEOUS S", "ADAS-COG", "", "1", "", "1", 1.0, "", "", "", "", "", 8.0, "WEEK 8", 56.0, "TREATMENT", "2014-03-05", 63.0]
["CDISCPILOT01", "QS", "01-701-1015", 5043.0, "ACITM13", "WORD FINDING DIFFICULTY IN SPONTANEOUS S", "ADAS-COG", "", "1", "", "1", 1.0, "", "", "", "", "", 10.0, "WEEK 16", 112.0, "TREATMENT", "2014-05-07", 126.0]
["CDISCPILOT01", "QS", "01-701-1015", 5058.0, "ACITM13", "WORD FINDING DIFFICULTY IN SPONTANEOUS S", "ADAS-COG", "", "0", "", "0", 0.0, "", "", "", "", "", 12.0, "WEEK 24", 168.0, "TREATMENT", "2014-06-18", 168.0]
["CDISCPILOT01", "QS", "01-701-1015", 5014.0, "ACITM14", "RECALL OF TEST INSTRUCTIONS", "ADAS-COG", "", "1", "", "1", 1.0, "", "", "", "Y", "", 3.0, "BASELINE", 1.0, "TREATMENT", "2014-01-02", 1.0]
["CDISCPILOT01", "QS", "01-701-1015", 5029.0, "ACITM14", "RECALL OF TEST INSTRUCTIONS", "ADAS-COG", "", "1", "", "1", 1.0, "", "", "", "", "", 8.0, "WEEK 8", 56.0, "TREATMENT", "2014-03-05", 63.0]
["CDISCPILOT01", "QS", "01-701-1015", 5044.0, "ACITM14", "RECALL OF TEST INSTRUCTIONS", "ADAS-COG", "", "1", "", "1", 1.0, "", "", "", "", "", 10.0, "WEEK 16", 112.0, "TREATMENT", "2014-05-07", 126.0]
["CDISCPILOT01", "QS", "01-701-1015", 5059.0, "ACITM14", "RECALL OF TEST INSTRUCTIONS", "ADAS-COG", "", "0", "", "0", 0.0, "", "", "", "", "", 12.0, "WEEK 24", 168.0, "TREATMENT", "2014-06-18", 168.0]
["CDISCPILOT01", "QS", "01-701-1015", 5015.0, "ACTOT", "ADAS-COG(11) Subscore", "ADAS-COG", "", "", "", "13", 13.0, "", "", "", "Y", "Y", 3.0, "BASELINE", 1.0, "TREATMENT", "2014-01-02", 1.0]
["CDISCPILOT01", "QS", "01-701-1015", 5030.0, "ACTOT", "ADAS-COG(11) Subscore", "ADAS-COG", "", "", "", "8", 8.0, "", "", "", "", "Y", 8.0, "WEEK 8", 56.0, "TREATMENT", "2014-03-05", 63.0]
["CDISCPILOT01", "QS", "01-701-1015", 5045.0, "ACTOT", "ADAS-COG(11) Subscore", "ADAS-COG", "", "", "", "11", 11.0, "", "", "", "", "Y", 10.0, "WEEK 16", 112.0, "TREATMENT", "2014-05-07", 126.0]
["CDISCPILOT01", "QS", "01-701-1015", 5060.0, "ACTOT", "ADAS-COG(11) Subscore", "ADAS-COG", "", "", "", "8", 8.0, "", "", "", "", "Y", 12.0, "WEEK 24", 168.0, "TREATMENT", "2014-06-18", 168.0]
["CDISCPILOT01", "QS", "01-701-1023", 5001.0, "ACITM01", "WORD RECALL TASK", "ADAS-COG", "", "4", "", "4", 4.0, "", "", "", "Y", "", 3.0, "BASELINE", 1.0, "TREATMENT", "2012-08-05", 1.0]
["CDISCPILOT01", "QS", "01-701-1023", 5016.0, "ACITM01", "WORD RECALL TASK", "ADAS-COG", "", "2", "", "2", 2.0, "", "", "", "", "", 5.0, "WEEK 4", 28.0, "TREATMENT", "2012-09-02", 29.0]
["CDISCPILOT01", "QS", "01-701-1023", 5031.0, "ACITM01", "WORD RECALL TASK", "ADAS-COG", "", "3", "", "3", 3.0, "", "", "", "", "", 201.0, "RETRIEVAL", 168.0, "TREATMENT", "2013-02-18", 198.0]
["CDISCPILOT01", "QS", "01-701-1023", 5002.0, "ACITM02", "NAMING OBJECTS AND FINGERS (REFER TO 5 C", "ADAS-COG", "", "2", "", "2", 2.0, "", "", "", "Y", "", 3.0, "BASELINE", 1.0, "TREATMENT", "2012-08-05", 1.0]
["CDISCPILOT01", "QS", "01-701-1023", 5017.0, "ACITM02", "NAMING OBJECTS AND FINGERS (REFER TO 5 C", "ADAS-COG", "", "2", "", "2", 2.0, "", "", "", "", "", 5.0, "WEEK 4", 28.0, "TREATMENT", "2012-09-02", 29.0]
["CDISCPILOT01", "QS", "01-701-1023", 5032.0, "ACITM02", "NAMING OBJECTS AND FINGERS (REFER TO 5 C", "ADAS-COG", "", "0", "", "0", 0.0, "", "", "", "", "", 201.0, "RETRIEVAL", 168.0, "TREATMENT", "2013-02-18", 198.0]
["CDISCPILOT01", "QS", "01-701-1023", 5003.0, "ACITM03", "DELAYED WORD RECALL", "ADAS-COG", "", "2", "", "2", 2.0, "", "", "", "Y", "", 3.0, "BASELINE", 1.0, "TREATMENT", "2012-08-05", 1.0]
["CDISCPILOT01", "QS", "01-701-1023", 5018.0, "ACITM03", "DELAYED WORD RECALL", "ADAS-COG", "", "2", "", "2", 2.0, "", "", "", "", "", 5.0, "WEEK 4", 28.0, "TREATMENT", "2012-09-02", 29.0]
["CDISCPILOT01", "QS", "01-701-1023", 5033.0, "ACITM03", "DELAYED WORD RECALL", "ADAS-COG", "", "3", "", "3", 3.0, "", "", "", "", "", 201.0, "RETRIEVAL", 168.0, "TREATMENT", "2013-02-18", 198.0]
["CDISCPILOT01", "QS", "01-701-1023", 5004.0, "ACITM04", "COMMANDS", "ADAS-COG", "", "0", "", "0", 0.0, "", "", "", "Y", "", 3.0, "BASELINE", 1.0, "TREATMENT", "2012-08-05", 1.0]
["CDISCPILOT01", "QS", "01-701-1023", 5019.0, "ACITM04", "COMMANDS", "ADAS-COG", "", "0", "", "0", 0.0, "", "", "", "", "", 5.0, "WEEK 4", 28.0, "TREATMENT", "2012-09-02", 29.0]
["CDISCPILOT01", "QS", "01-701-1023", 5034.0, "ACITM04", "COMMANDS", "ADAS-COG", "", "0", "", "0", 0.0, "", "", "", "", "", 201.0, "RETRIEVAL", 168.0, "TREATMENT", "2013-02-18", 198.0]
["CDISCPILOT01", "QS", "01-701-1023", 5005.0, "ACITM05", "CONSTRUCTIONAL PRAXIS", "ADAS-COG", "", "3", "", "3", 3.0, "", "", "", "Y", "", 3.0, "BASELINE", 1.0, "TREATMENT", "2012-08-05", 1.0]
["CDISCPILOT01", "QS", "01-701-1023", 5020.0, "ACITM05", "CONSTRUCTIONAL PRAXIS", "ADAS-COG", "", "2", "", "2", 2.0, "", "", "", "", "", 5.0, "WEEK 4", 28.0, "TREATMENT", "2012-09-02", 29.0]
["CDISCPILOT01", "QS", "01-701-1023", 5035.0, "ACITM05", "CONSTRUCTIONAL PRAXIS", "ADAS-COG", "", "4", "", "4", 4.0, "", "", "", "", "", 201.0, "RETRIEVAL", 168.0, "TREATMENT", "2013-02-18", 198.0]
["CDISCPILOT01", "QS", "01-701-1023", 5006.0, "ACITM06", "IDEATIONAL PRAXIS", "ADAS-COG", "", "0", "", "0", 0.0, "", "", "", "Y", "", 3.0, "BASELINE", 1.0, "TREATMENT", "2012-08-05", 1.0]
["CDISCPILOT01", "QS", "01-701-1023", 5021.0, "ACITM06", "IDEATIONAL PRAXIS", "ADAS-COG", "", "0", "", "0", 0.0, "", "", "", "", "", 5.0, "WEEK 4", 28.0, "TREATMENT", "2012-09-02", 29.0]
["CDISCPILOT01", "QS", "01-701-1023", 5036.0, "ACITM06", "IDEATIONAL PRAXIS", "ADAS-COG", "", "0", "", "0", 0.0, "", "", "", "", "", 201.0, "RETRIEVAL", 168.0, "TREATMENT", "2013-02-18", 198.0]
["CDISCPILOT01", "QS", "01-701-1023", 5007.0, "ACITM07", "ORIENTATION", "ADAS-COG", "", "2", "", "2", 2.0, "", "", "", "Y", "", 3.0, "BASELINE", 1.0, "TREATMENT", "2012-08-05", 1.0]
["CDISCPILOT01", "QS", "01-701-1023", 5022.0, "ACITM07", "ORIENTATION", "ADAS-COG", "", "1", "", "1", 1.0, "", "", "", "", "", 5.0, "WEEK 4", 28.0, "TREATMENT", "2012-09-02", 29.0]
["CDISCPILOT01", "QS", "01-701-1023", 5037.0, "ACITM07", "ORIENTATION", "ADAS-COG", "", "0", "", "0", 0.0, "", "", "", "", "", 201.0, "RETRIEVAL", 168.0, "TREATMENT", "2013-02-18", 198.0]
["CDISCPILOT01", "QS", "01-701-1023", 5008.0, "ACITM08", "WORD RECOGNITION", "ADAS-COG", "", "2", "", "2", 2.0, "", "", "", "Y", "", 3.0, "BASELINE", 1.0, "TREATMENT", "2012-08-05", 1.0]
["CDISCPILOT01", "QS", "01-701-1023", 5023.0, "ACITM08", "WORD RECOGNITION", "ADAS-COG", "", "1", "", "1", 1.0, "", "", "", "", "", 5.0, "WEEK 4", 28.0, "TREATMENT", "2012-09-02", 29.0]
["CDISCPILOT01", "QS", "01-701-1023", 5038.0, "ACITM08", "WORD RECOGNITION", "ADAS-COG", "", "1", "", "1", 1.0, "", "", "", "", "", 201.0, "RETRIEVAL", 168.0, "TREATMENT", "2013-02-18", 198.0]
["CDISCPILOT01", "QS", "01-701-1023", 5009.0, "ACITM09", "ATTENTION/VISUAL SEARCH TASK", "ADAS-COG", "", "39", "", "39", 39.0, "", "", "", "Y", "", 3.0, "BASELINE", 1.0, "TREATMENT", "2012-08-05", 1.0]
["CDISCPILOT01", "QS", "01-701-1023", 5024.0, "ACITM09", "ATTENTION/VISUAL SEARCH TASK", "ADAS-COG", "", "40", "", "40", 40.0, "", "", "", "", "", 5.0, "WEEK 4", 28.0, "TREATMENT", "2012-09-02", 29.0]
["CDISCPILOT01", "QS", "01-701-1023", 5039.0, "ACITM09", "ATTENTION/VISUAL SEARCH TASK", "ADAS-COG", "", "37", "", "37", 37.0, "", "", "", "", "", 201.0, "RETRIEVAL", 168.0, "TREATMENT", "2013-02-18", 198.0]
["CDISCPILOT01", "QS", "01-701-1023", 5010.0, "ACITM10", "MAZE SOLUTION", "ADAS-COG", "", "5", "sec", "5", 5.0, "sec", "", "", "Y", "", 3.0, "BASELINE", 1.0, "TREATMENT", "2012-08-05", 1.0]
["CDISCPILOT01", "QS", "01-701-1023", 5025.0, "ACITM10", "MAZE SOLUTION", "ADAS-COG", "", "5", "sec", "5", 5.0, "sec", "", "", "", "", 5.0, "WEEK 4", 28.0, "TREATMENT", "2012-09-02", 29.0]
["CDISCPILOT01", "QS", "01-701-1023", 5040.0, "ACITM10", "MAZE SOLUTION", "ADAS-COG", "", "3", "sec", "3", 3.0, "sec", "", "", "", "", 201.0, "RETRIEVAL", 168.0, "TREATMENT", "2013-02-18", 198.0]
["CDISCPILOT01", "QS", "01-701-1023", 5011.0, "ACITM11", "SPOKEN LANGUAGE ABILITY", "ADAS-COG", "", "0", "", "0", 0.0, "", "", "", "Y", "", 3.0, "BASELINE", 1.0, "TREATMENT", "2012-08-05", 1.0]
["CDISCPILOT01", "QS", "01-701-1023", 5026.0, "ACITM11", "SPOKEN LANGUAGE ABILITY", "ADAS-COG", "", "0", "", "0", 0.0, "", "", "", "", "", 5.0, "WEEK 4", 28.0, "TREATMENT", "2012-09-02", 29.0]
["CDISCPILOT01", "QS", "01-701-1023", 5041.0, "ACITM11", "SPOKEN LANGUAGE ABILITY", "ADAS-COG", "", "1", "", "1", 1.0, "", "", "", "", "", 201.0, "RETRIEVAL", 168.0, "TREATMENT", "2013-02-18", 198.0]
["CDISCPILOT01", "QS", "01-701-1023", 5012.0, "ACITM12", "COMPREHENSION OF SPOKEN LANGUAGE", "ADAS-COG", "", "0", "", "0", 0.0, "", "", "", "Y", "", 3.0, "BASELINE", 1.0, "TREATMENT", "2012-08-05", 1.0]
["CDISCPILOT01", "QS", "01-701-1023", 5027.0, "ACITM12", "COMPREHENSION OF SPOKEN LANGUAGE", "ADAS-COG", "", "0", "", "0", 0.0, "", "", "", "", "", 5.0, "WEEK 4", 28.0, "TREATMENT", "2012-09-02", 29.0]
["CDISCPILOT01", "QS", "01-701-1023", 5042.0, "ACITM12", "COMPREHENSION OF SPOKEN LANGUAGE", "ADAS-COG", "", "1", "", "1", 1.0, "", "", "", "", "", 201.0, "RETRIEVAL", 168.0, "TREATMENT", "2013-02-18", 198.0]
["CDISCPILOT01", "QS", "01-701-1023", 5013.0, "ACITM13", "WORD FINDING DIFFICULTY IN SPONTANEOUS S", "ADAS-COG", "", "0", "", "0", 0.0, "", "", "", "Y", "", 3.0, "BASELINE", 1.0, "TREATMENT", "2012-08-05", 1.0]
["CDISCPILOT01", "QS", "01-701-1023", 5028.0, "ACITM13", "WORD FINDING DIFFICULTY IN SPONTANEOUS S", "ADAS-COG", "", "0", "", "0", 0.0, "", "", "", "", "", 5.0, "WEEK 4", 28.0, "TREATMENT", "2012-09-02", 29.0]
["CDISCPILOT01", "QS", "01-701-1023", 5043.0, "ACITM13", "WORD FINDING DIFFICULTY IN SPONTANEOUS S", "ADAS-COG", "", "1", "", "1", 1.0, "", "", "", "", "", 201.0, "RETRIEVAL", 168.0, "TREATMENT", "2013-02-18", 198.0]
["CDISCPILOT01", "QS", "01-701-1023", 5014.0, "ACITM14", "RECALL OF TEST INSTRUCTIONS", "ADAS-COG", "", "0", "", "0", 0.0, "", "", "", "Y", "", 3.0, "BASELINE", 1.0, "TREATMENT", "2012-08-05", 1.0]
["CDISCPILOT01", "QS", "01-701-1023", 5029.0, "ACITM14", "RECALL OF TEST INSTRUCTIONS", "ADAS-COG", "", "0", "", "0", 0.0, "", "", "", "", "", 5.0, "WEEK 4", 28.0, "TREATMENT", "2012-09-02", 29.0]
["CDISCPILOT01", "QS", "01-701-1023", 5044.0, "ACITM14", "RECALL OF TEST INSTRUCTIONS", "ADAS-COG", "", "1", "", "1", 1.0, "", "", "", "", "", 201.0, "RETRIEVAL", 168.0, "TREATMENT", "2013-02-18", 198.0]
["CDISCPILOT01", "QS", "01-701-1023", 5015.0, "ACTOT", "ADAS-COG(11) Subscore", "ADAS-COG", "", "", "", "13", 13.0, "", "", "", "Y", "Y", 3.0, "BASELINE", 1.0, "TREATMENT", "2012-08-05", 1.0]
["CDISCPILOT01", "QS", "01-701-1023", 5030.0, "ACTOT", "ADAS-COG(11) Subscore", "ADAS-COG", "", "", "", "8", 8.0, "", "", "", "", "Y", 5.0, "WEEK 4", 28.0, "TREATMENT", "2012-09-02", 29.0]
["CDISCPILOT01", "QS", "01-701-1023", 5045.0, "ACTOT", "ADAS-COG(11) Subscore", "ADAS-COG", "", "", "", "12", 12.0, "", "", "", "", "Y", 201.0, "RETRIEVAL", 168.0, "TREATMENT", "2013-02-18", 198.0]
["CDISCPILOT01", "QS", "01-701-1028", 5001.0, "ACITM01", "WORD RECALL TASK", "ADAS-COG", "", "1", "", "1", 1.0, "", "", "", "Y", "", 3.0, "BASELINE", 1.0, "TREATMENT", "2013-07-19", 1.0]
["CDISCPILOT01", "QS", "01-701-1028", 5016.0, "ACITM01", "WORD RECALL TASK", "ADAS-COG", "", "1", "", "1", 1.0, "", "", "", "", "", 8.0, "WEEK 8", 56.0, "TREATMENT", "2013-09-10", 54.0]
["CDISCPILOT01", "QS", "01-701-1028", 5031.0, "ACITM01", "WORD RECALL TASK", "ADAS-COG", "", "3", "", "3", 3.0, "", "", "", "", "", 10.0, "WEEK 16", 112.0, "TREATMENT", "2013-11-06", 111.0]
["CDISCPILOT01", "QS", "01-701-1028", 5046.0, "ACITM01", "WORD RECALL TASK", "ADAS-COG", "", "2", "", "2", 2.0, "", "", "", "", "", 12.0, "WEEK 24", 168.0, "TREATMENT", "2014-01-06", 172.0]
["CDISCPILOT01", "QS", "01-701-1028", 5002.0, "ACITM02", "NAMING OBJECTS AND FINGERS (REFER TO 5 C", "ADAS-COG", "", "0", "", "0", 0.0, "", "", "", "Y", "", 3.0, "BASELINE", 1.0, "TREATMENT", "2013-07-19", 1.0]
["CDISCPILOT01", "QS", "01-701-1028", 5017.0, "ACITM02", "NAMING OBJECTS AND FINGERS (REFER TO 5 C", "ADAS-COG", "", "0", "", "0", 0.0, "", "", "", "", "", 8.0, "WEEK 8", 56.0, "TREATMENT", "2013-09-10", 54.0]
["CDISCPILOT01", "QS", "01-701-1028", 5032.0, "ACITM02", "NAMING OBJECTS AND FINGERS (REFER TO 5 C", "ADAS-COG", "", "0", "", "0", 0.0, "", "", "", "", "", 10.0, "WEEK 16", 112.0, "TREATMENT", "2013-11-06", 111.0]
["CDISCPILOT01", "QS", "01-701-1028", 5047.0, "ACITM02", "NAMING OBJECTS AND FINGERS (REFER TO 5 C", "ADAS-COG", "", "0", "", "0", 0.0, "", "", "", "", "", 12.0, "WEEK 24", 168.0, "TREATMENT", "2014-01-06", 172.0]
["CDISCPILOT01", "QS", "01-701-1028", 5003.0, "ACITM03", "DELAYED WORD RECALL", "ADAS-COG", "", "1", "", "1", 1.0, "", "", "", "Y", "", 3.0, "BASELINE", 1.0, "TREATMENT", "2013-07-19", 1.0]
["CDISCPILOT01", "QS", "01-701-1028", 5018.0, "ACITM03", "DELAYED WORD RECALL", "ADAS-COG", "", "0", "", "0", 0.0, "", "", "", "", "", 8.0, "WEEK 8", 56.0, "TREATMENT", "2013-09-10", 54.0]
["CDISCPILOT01", "QS", "01-701-1028", 5033.0, "ACITM03", "DELAYED WORD RECALL", "ADAS-COG", "", "4", "", "4", 4.0, "", "", "", "", "", 10.0, "WEEK 16", 112.0, "TREATMENT", "2013-11-06", 111.0]
["CDISCPILOT01", "QS", "01-701-1028", 5048.0, "ACITM03", "DELAYED WORD RECALL", "ADAS-COG", "", "1", "", "1", 1.0, "", "", "", "", "", 12.0, "WEEK 24", 168.0, "TREATMENT", "2014-01-06", 172.0]
["CDISCPILOT01", "QS", "01-701-1028", 5004.0, "ACITM04", "COMMANDS", "ADAS-COG", "", "0", "", "0", 0.0, "", "", "", "Y", "", 3.0, "BASELINE", 1.0, "TREATMENT", "2013-07-19", 1.0]
["CDISCPILOT01", "QS", "01-701-1028", 5019.0, "ACITM04", "COMMANDS", "ADAS-COG", "", "0", "", "0", 0.0, "", "", "", "", "", 8.0, "WEEK 8", 56.0, "TREATMENT", "2013-09-10", 54.0]
["CDISCPILOT01", "QS", "01-701-1028", 5034.0, "ACITM04", "COMMANDS", "ADAS-COG", "", "0", "", "0", 0.0, "", "", "", "", "", 10.0, "WEEK 16", 112.0, "TREATMENT", "2013-11-06", 111.0]
["CDISCPILOT01", "QS", "01-701-1028", 5049.0, "ACITM04", "COMMANDS", "ADAS-COG", "", "0", "", "0", 0.0, "", "", "", "", "", 12.0, "WEEK 24", 168.0, "TREATMENT", "2014-01-06", 172.0]
["CDISCPILOT01", "QS", "01-701-1028", 5005.0, "ACITM05", "CONSTRUCTIONAL PRAXIS", "ADAS-COG", "", "0", "", "0", 0.0, "", "", "", "Y", "", 3.0, "BASELINE", 1.0, "TREATMENT", "2013-07-19", 1.0]
["CDISCPILOT01", "QS", "01-701-1028", 5020.0, "ACITM05", "CONSTRUCTIONAL PRAXIS", "ADAS-COG", "", "0", "", "0", 0.0, "", "", "", "", "", 8.0, "WEEK 8", 56.0, "TREATMENT", "2013-09-10", 54.0]
["CDISCPILOT01", "QS", "01-701-1028", 5035.0, "ACITM05", "CONSTRUCTIONAL PRAXIS", "ADAS-COG", "", "0", "", "0", 0.0, "", "", "", "", "", 10.0, "WEEK 16", 112.0, "TREATMENT", "2013-11-06", 111.0]
["CDISCPILOT01", "QS", "01-701-1028", 5050.0, "ACITM05", "CONSTRUCTIONAL PRAXIS", "ADAS-COG", "", "0", "", "0", 0.0, "", "", "", "", "", 12.0, "WEEK 24", 168.0, "TREATMENT", "2014-01-06", 172.0]
["CDISCPILOT01", "QS", "01-701-1028", 5006.0, "ACITM06", "IDEATIONAL PRAXIS", "ADAS-COG", "", "0", "", "0", 0.0, "", "", "", "Y", "", 3.0, "BASELINE", 1.0, "TREATMENT", "2013-07-19", 1.0]
["CDISCPILOT01", "QS", "01-701-1028", 5021.0, "ACITM06", "IDEATIONAL PRAXIS", "ADAS-COG", "", "0", "", "0", 0.0, "", "", "", "", "", 8.0, "WEEK 8", 56.0, "TREATMENT", "2013-09-10", 54.0]
["CDISCPILOT01", "QS", "01-701-1028", 5036.0, "ACITM06", "IDEATIONAL PRAXIS", "ADAS-COG", "", "0", "", "0", 0.0, "", "", "", "", "", 10.0, "WEEK 16", 112.0, "TREATMENT", "2013-11-06", 111.0]
["CDISCPILOT01", "QS", "01-701-1028", 5051.0, "ACITM06", "IDEATIONAL PRAXIS", "ADAS-COG", "", "0", "", "0", 0.0, "", "", "", "", "", 12.0, "WEEK 24", 168.0, "TREATMENT", "2014-01-06", 172.0]
["CDISCPILOT01", "QS", "01-701-1028", 5007.0, "ACITM07", "ORIENTATION", "ADAS-COG", "", "0", "", "0", 0.0, "", "", "", "Y", "", 3.0, "BASELINE", 1.0, "TREATMENT", "2013-07-19", 1.0]
["CDISCPILOT01", "QS", "01-701-1028", 5022.0, "ACITM07", "ORIENTATION", "ADAS-COG", "", "0", "", "0", 0.0, "", "", "", "", "", 8.0, "WEEK 8", 56.0, "TREATMENT", "2013-09-10", 54.0]
["CDISCPILOT01", "QS", "01-701-1028", 5037.0, "ACITM07", "ORIENTATION", "ADAS-COG", "", "0", "", "0", 0.0, "", "", "", "", "", 10.0, "WEEK 16", 112.0, "TREATMENT", "2013-11-06", 111.0]
["CDISCPILOT01", "QS", "01-701-1028", 5052.0, "ACITM07", "ORIENTATION", "ADAS-COG", "", "0", "", "0", 0.0, "", "", "", "", "", 12.0, "WEEK 24", 168.0, "TREATMENT", "2014-01-06", 172.0]
["CDISCPILOT01", "QS", "01-701-1028", 5008.0, "ACITM08", "WORD RECOGNITION", "ADAS-COG", "", "2", "", "2", 2.0, "", "", "", "Y", "", 3.0, "BASELINE", 1.0, "TREATMENT", "2013-07-19", 1.0]
["CDISCPILOT01", "QS", "01-701-1028", 5023.0, "ACITM08", "WORD RECOGNITION", "ADAS-COG", "", "1", "", "1", 1.0, "", "", "", "", "", 8.0, "WEEK 8", 56.0, "TREATMENT", "2013-09-10", 54.0]
["CDISCPILOT01", "QS", "01-701-1028", 5038.0, "ACITM08", "WORD RECOGNITION", "ADAS-COG", "", "1", "", "1", 1.0, "", "", "", "", "", 10.0, "WEEK 16", 112.0, "TREATMENT", "2013-11-06", 111.0]
["CDISCPILOT01", "QS", "01-701-1028", 5053.0, "ACITM08", "WORD RECOGNITION", "ADAS-COG", "", "1", "", "1", 1.0, "", "", "", "", "", 12.0, "WEEK 24", 168.0, "TREATMENT", "2014-01-06", 172.0]
["CDISCPILOT01", "QS", "01-701-1028", 5009.0, "ACITM09", "ATTENTION/VISUAL SEARCH TASK", "ADAS-COG", "", "24", "", "24", 24.0, "", "", "", "Y", "", 3.0, "BASELINE", 1.0, "TREATMENT", "2013-07-19", 1.0]
["CDISCPILOT01", "QS", "01-701-1028", 5024.0, "ACITM09", "ATTENTION/VISUAL SEARCH TASK", "ADAS-COG", "", "25", "", "25", 25.0, "", "", "", "", "", 8.0, "WEEK 8", 56.0, "TREATMENT", "2013-09-10", 54.0]
["CDISCPILOT01", "QS", "01-701-1028", 5039.0, "ACITM09", "ATTENTION/VISUAL SEARCH TASK", "ADAS-COG", "", "34", "", "34", 34.0, "", "", "", "", "", 10.0, "WEEK 16", 112.0, "TREATMENT", "2013-11-06", 111.0]
["CDISCPILOT01", "QS", "01-701-1028", 5054.0, "ACITM09", "ATTENTION/VISUAL SEARCH TASK", "ADAS-COG", "", "26", "", "26", 26.0, "", "", "", "", "", 12.0, "WEEK 24", 168.0, "TREATMENT", "2014-01-06", 172.0]
["CDISCPILOT01", "QS", "01-701-1028", 5010.0, "ACITM10", "MAZE SOLUTION", "ADAS-COG", "", "4", "sec", "4", 4.0, "sec", "", "", "Y", "", 3.0, "BASELINE", 1.0, "TREATMENT", "2013-07-19", 1.0]
["CDISCPILOT01", "QS", "01-701-1028", 5025.0, "ACITM10", "MAZE SOLUTION", "ADAS-COG", "", "5", "sec", "5", 5.0, "sec", "", "", "", "", 8.0, "WEEK 8", 56.0, "TREATMENT", "2013-09-10", 54.0]
["CDISCPILOT01", "QS", "01-701-1028", 5040.0, "ACITM10", "MAZE SOLUTION", "ADAS-COG", "", "5", "sec", "5", 5.0, "sec", "", "", "", "", 10.0, "WEEK 16", 112.0, "TREATMENT", "2013-11-06", 111.0]
["CDISCPILOT01", "QS", "01-701-1028", 5055.0, "ACITM10", "MAZE SOLUTION", "ADAS-COG", "", "5", "sec", "5", 5.0, "sec", "", "", "", "", 12.0, "WEEK 24", 168.0, "TREATMENT", "2014-01-06", 172.0]
["CDISCPILOT01", "QS", "01-701-1028", 5011.0, "ACITM11", "SPOKEN LANGUAGE ABILITY", "ADAS-COG", "", "0", "", "0", 0.0, "", "", "", "Y", "", 3.0, "BASELINE", 1.0, "TREATMENT", "2013-07-19", 1.0]
["CDISCPILOT01", "QS", "01-701-1028", 5026.0, "ACITM11", "SPOKEN LANGUAGE ABILITY", "ADAS-COG", "", "0", "", "0", 0.0, "", "", "", "", "", 8.0, "WEEK 8", 56.0, "TREATMENT", "2013-09-10", 54.0]
["CDISCPILOT01", "QS", "01-701-1028", 5041.0, "ACITM11", "SPOKEN LANGUAGE ABILITY", "ADAS-COG", "", "0", "", "0", 0.0, "", "", "", "", "", 10.0, "WEEK 16", 112.0, "TREATMENT", "2013-11-06", 111.0]
["CDISCPILOT01", "QS", "01-701-1028", 5056.0, "ACITM11", "SPOKEN LANGUAGE ABILITY", "ADAS-COG", "", "0", "", "0", 0.0, "", "", "", "", "", 12.0, "WEEK 24", 168.0, "TREATMENT", "2014-01-06", 172.0]
["CDISCPILOT01", "QS", "01-701-1028", 5012.0, "ACITM12", "COMPREHENSION OF SPOKEN LANGUAGE", "ADAS-COG", "", "0", "", "0", 0.0, "", "", "", "Y", "", 3.0, "BASELINE", 1.0, "TREATMENT", "2013-07-19", 1.0]
["CDISCPILOT01", "QS", "01-701-1028", 5027.0, "ACITM12", "COMPREHENSION OF SPOKEN LANGUAGE", "ADAS-COG", "", "0", "", "0", 0.0, "", "", "", "", "", 8.0, "WEEK 8", 56.0, "TREATMENT", "2013-09-10", 54.0]
["CDISCPILOT01", "QS", "01-701-1028", 5042.0, "ACITM12", "COMPREHENSION OF SPOKEN LANGUAGE", "ADAS-COG", "", "0", "", "0", 0.0, "", "", "", "", "", 10.0, "WEEK 16", 112.0, "TREATMENT", "2013-11-06", 111.0]
["CDISCPILOT01", "QS", "01-701-1028", 5057.0, "ACITM12", "COMPREHENSION OF SPOKEN LANGUAGE", "ADAS-COG", "", "0", "", "0", 0.0, "", "", "", "", "", 12.0, "WEEK 24", 168.0, "TREATMENT", "2014-01-06", 172.0]
["CDISCPILOT01", "QS", "01-701-1028", 5013.0, "ACITM13", "WORD FINDING DIFFICULTY IN SPONTANEOUS S", "ADAS-COG", "", "0", "", "0", 0.0, "", "", "", "Y", "", 3.0, "BASELINE", 1.0, "TREATMENT", "2013-07-19", 1.0]
["CDISCPILOT01", "QS", "01-701-1028", 5028.0, "ACITM13", "WORD FINDING DIFFICULTY IN SPONTANEOUS S", "ADAS-COG", "", "0", "", "0", 0.0, "", "", "", "", "", 8.0, "WEEK 8", 56.0, "TREATMENT", "2013-09-10", 54.0]
["CDISCPILOT01", "QS", "01-701-1028", 5043.0, "ACITM13", "WORD FINDING DIFFICULTY IN SPONTANEOUS S", "ADAS-COG", "", "0", "", "0", 0.0, "", "", "", "", "", 10.0, "WEEK 16", 112.0, "TREATMENT", "2013-11-06", 111.0]
["CDISCPILOT01", "QS", "01-701-1028", 5058.0, "ACITM13", "WORD FINDING DIFFICULTY IN SPONTANEOUS S", "ADAS-COG", "", "0", "", "0", 0.0, "", "", "", "", "", 12.0, "WEEK 24", 168.0, "TREATMENT", "2014-01-06", 172.0]
["CDISCPILOT01", "QS", "01-701-1028", 5014.0, "ACITM14", "RECALL OF TEST INSTRUCTIONS", "ADAS-COG", "", "0", "", "0", 0.0, "", "", "", "Y", "", 3.0, "BASELINE", 1.0, "TREATMENT", "2013-07-19", 1.0]
["CDISCPILOT01", "QS", "01-701-1028", 5029.0, "ACITM14", "RECALL OF TEST INSTRUCTIONS", "ADAS-COG", "", "0", "", "0", 0.0, "", "", "", "", "", 8.0, "WEEK 8", 56.0, "TREATMENT", "2013-09-10", 54.0]
["CDISCPILOT01", "QS", "01-701-1028", 5044.0, "ACITM14", "RECALL OF TEST INSTRUCTIONS", "ADAS-COG", "", "0", "", "0", 0.0, "", "", "", "", "", 10.0, "WEEK 16", 112.0, "TREATMENT", "2013-11-06", 111.0]
["CDISCPILOT01", "QS", "01-701-1028", 5059.0, "ACITM14", "RECALL OF TEST INSTRUCTIONS", "ADAS-COG", "", "0", "", "0", 0.0, "", "", "", "", "", 12.0, "WEEK 24", 168.0, "TREATMENT", "2014-01-06", 172.0]
["CDISCPILOT01", "QS", "01-701-1028", 5015.0, "ACTOT", "ADAS-COG(11) Subscore", "ADAS-COG", "", "", "", "3", 3.0, "", "", "", "Y", "Y", 3.0, "BASELINE", 1.0, "TREATMENT", "2013-07-19", 1.0]
["CDISCPILOT01", "QS", "01-701-1028", 5030.0, "ACTOT", "ADAS-COG(11) Subscore", "ADAS-COG", "", "", "", "2", 2.0, "", "", "", "", "Y", 8.0, "WEEK 8", 56.0, "TREATMENT", "2013-09-10", 54.0]
["CDISCPILOT01", "QS", "01-701-1028", 5045.0, "ACTOT", "ADAS-COG(11) Subscore", "ADAS-COG", "", "", "", "4", 4.0, "", "", "", "", "Y", 10.0, "WEEK 16", 112.0, "TREATMENT", "2013-11-06", 111.0]
["CDISCPILOT01", "QS", "01-701-1028", 5060.0, "ACTOT", "ADAS-COG(11) Subscore", "ADAS-COG", "", "", "", "3", 3.0, "", "", "", "", "Y", 12.0, "WEEK 24", 168.0, "TREATMENT", "2014-01-06", 172.0]
["CDISCPILOT01", "QS", "01-701-1033", 5001.0, "ACITM01", "WORD RECALL TASK", "ADAS-COG", "", "5", "", "5", 5.0, "", "", "", "Y", "", 3.0, "BASELINE", 1.0, "TREATMENT", "2014-03-18", 1.0]
["CDISCPILOT01", "QS", "01-701-1033", 5016.0, "ACITM01", "WORD RECALL TASK", "ADAS-COG", "", "5", "", "5", 5.0, "", "", "", "", "", 5.0, "WEEK 4", 28.0, "TREATMENT", "2014-04-14", 28.0]
["CDISCPILOT01", "QS", "01-701-1033", 5031.0, "ACITM01", "WORD RECALL TASK", "ADAS-COG", "", "6", "", "6", 6.0, "", "", "", "", "", 201.0, "RETRIEVAL", 168.0, "TREATMENT", "2014-09-15", 182.0]
["CDISCPILOT01", "QS", "01-701-1033", 5002.0, "ACITM02", "NAMING OBJECTS AND FINGERS (REFER TO 5 C", "ADAS-COG", "", "0", "", "0", 0.0, "", "", "", "Y", "", 3.0, "BASELINE", 1.0, "TREATMENT", "2014-03-18", 1.0]
["CDISCPILOT01", "QS", "01-701-1033", 5017.0, "ACITM02", "NAMING OBJECTS AND FINGERS (REFER TO 5 C", "ADAS-COG", "", "0", "", "0", 0.0, "", "", "", "", "", 5.0, "WEEK 4", 28.0, "TREATMENT", "2014-04-14", 28.0]
["CDISCPILOT01", "QS", "01-701-1033", 5032.0, "ACITM02", "NAMING OBJECTS AND FINGERS (REFER TO 5 C", "ADAS-COG", "", "0", "", "0", 0.0, "", "", "", "", "", 201.0, "RETRIEVAL", 168.0, "TREATMENT", "2014-09-15", 182.0]
["CDISCPILOT01", "QS", "01-701-1033", 5003.0, "ACITM03", "DELAYED WORD RECALL", "ADAS-COG", "", "6", "", "6", 6.0, "", "", "", "Y", "", 3.0, "BASELINE", 1.0, "TREATMENT", "2014-03-18", 1.0]
["CDISCPILOT01", "QS", "01-701-1033", 5018.0, "ACITM03", "DELAYED WORD RECALL", "ADAS-COG", "", "3", "", "3", 3.0, "", "", "", "", "", 5.0, "WEEK 4", 28.0, "TREATMENT", "2014-04-14", 28.0]
["CDISCPILOT01", "QS", "01-701-1033", 5033.0, "ACITM03", "DELAYED WORD RECALL", "ADAS-COG", "", "6", "", "6", 6.0, "", "", "", "", "", 201.0, "RETRIEVAL", 168.0, "TREATMENT", "2014-09-15", 182.0]
["CDISCPILOT01", "QS", "01-701-1033", 5004.0, "ACITM04", "COMMANDS", "ADAS-COG", "", "0", "", "0", 0.0, "", "", "", "Y", "", 3.0, "BASELINE", 1.0, "TREATMENT", "2014-03-18", 1.0]
["CDISCPILOT01", "QS", "01-701-1033", 5019.0, "ACITM04", "COMMANDS", "ADAS-COG", "", "0", "", "0", 0.0, "", "", "", "", "", 5.0, "WEEK 4", 28.0, "TREATMENT", "2014-04-14", 28.0]
["CDISCPILOT01", "QS", "01-701-1033", 5034.0, "ACITM04", "COMMANDS", "ADAS-COG", "", "0", "", "0", 0.0, "", "", "", "", "", 201.0, "RETRIEVAL", 168.0, "TREATMENT", "2014-09-15", 182.0]
["CDISCPILOT01", "QS", "01-701-1033", 5005.0, "ACITM05", "CONSTRUCTIONAL PRAXIS", "ADAS-COG", "", "1", "", "1", 1.0, "", "", "", "Y", "", 3.0, "BASELINE", 1.0, "TREATMENT", "2014-03-18", 1.0]
["CDISCPILOT01", "QS", "01-701-1033", 5020.0, "ACITM05", "CONSTRUCTIONAL PRAXIS", "ADAS-COG", "", "1", "", "1", 1.0, "", "", "", "", "", 5.0, "WEEK 4", 28.0, "TREATMENT", "2014-04-14", 28.0]
["CDISCPILOT01", "QS", "01-701-1033", 5035.0, "ACITM05", "CONSTRUCTIONAL PRAXIS", "ADAS-COG", "", "0", "", "0", 0.0, "", "", "", "", "", 201.0, "RETRIEVAL", 168.0, "TREATMENT", "2014-09-15", 182.0]
["CDISCPILOT01", "QS", "01-701-1033", 5006.0, "ACITM06", "IDEATIONAL PRAXIS", "ADAS-COG", "", "0", "", "0", 0.0, "", "", "", "Y", "", 3.0, "BASELINE", 1.0, "TREATMENT", "2014-03-18", 1.0]
["CDISCPILOT01", "QS", "01-701-1033", 5021.0, "ACITM06", "IDEATIONAL PRAXIS", "ADAS-COG", "", "0", "", "0", 0.0, "", "", "", "", "", 5.0, "WEEK 4", 28.0, "TREATMENT", "2014-04-14", 28.0]
["CDISCPILOT01", "QS", "01-701-1033", 5036.0, "ACITM06", "IDEATIONAL PRAXIS", "ADAS-COG", "", "0", "", "0", 0.0, "", "", "", "", "", 201.0, "RETRIEVAL", 168.0, "TREATMENT", "2014-09-15", 182.0]
["CDISCPILOT01", "QS", "01-701-1033", 5007.0, "ACITM07", "ORIENTATION", "ADAS-COG", "", "0", "", "0", 0.0, "", "", "", "Y", "", 3.0, "BASELINE", 1.0, "TREATMENT", "2014-03-18", 1.0]
["CDISCPILOT01", "QS", "01-701-1033", 5022.0, "ACITM07", "ORIENTATION", "ADAS-COG", "", "0", "", "0", 0.0, "", "", "", "", "", 5.0, "WEEK 4", 28.0, "TREATMENT", "2014-04-14", 28.0]
["CDISCPILOT01", "QS", "01-701-1033", 5037.0, "ACITM07", "ORIENTATION", "ADAS-COG", "", "0", "", "0", 0.0, "", "", "", "", "", 201.0, "RETRIEVAL", 168.0, "TREATMENT", "2014-09-15", 182.0]
["CDISCPILOT01", "QS", "01-701-1033", 5008.0, "ACITM08", "WORD RECOGNITION", "ADAS-COG", "", "1", "", "1", 1.0, "", "", "", "Y", "", 3.0, "BASELINE", 1.0, "TREATMENT", "2014-03-18", 1.0]
["CDISCPILOT01", "QS", "01-701-1033", 5023.0, "ACITM08", "WORD RECOGNITION", "ADAS-COG", "", "2", "", "2", 2.0, "", "", "", "", "", 5.0, "WEEK 4", 28.0, "TREATMENT", "2014-04-14", 28.0]
["CDISCPILOT01", "QS", "01-701-1033", 5038.0, "ACITM08", "WORD RECOGNITION", "ADAS-COG", "", "1", "", "1", 1.0, "", "", "", "", "", 201.0, "RETRIEVAL", 168.0, "TREATMENT", "2014-09-15", 182.0]
["CDISCPILOT01", "QS", "01-701-1033", 5009.0, "ACITM09", "ATTENTION/VISUAL SEARCH TASK", "ADAS-COG", "", "30", "", "30", 30.0, "", "", "", "Y", "", 3.0, "BASELINE", 1.0, "TREATMENT", "2014-03-18", 1.0]
["CDISCPILOT01", "QS", "01-701-1033", 5024.0, "ACITM09", "ATTENTION/VISUAL SEARCH TASK", "ADAS-COG", "", "24", "", "24", 24.0, "", "", "", "", "", 5.0, "WEEK 4", 28.0, "TREATMENT", "2014-04-14", 28.0]
["CDISCPILOT01", "QS", "01-701-1033", 5039.0, "ACITM09", "ATTENTION/VISUAL SEARCH TASK", "ADAS-COG", "", "27", "", "27", 27.0, "", "", "", "", "", 201.0, "RETRIEVAL", 168.0, "TREATMENT", "2014-09-15", 182.0]
["CDISCPILOT01", "QS", "01-701-1033", 5010.0, "ACITM10", "MAZE SOLUTION", "ADAS-COG", "", "7", "sec", "7", 7.0, "sec", "", "", "Y", "", 3.0, "BASELINE", 1.0, "TREATMENT", "2014-03-18", 1.0]
["CDISCPILOT01", "QS", "01-701-1033", 5025.0, "ACITM10", "MAZE SOLUTION", "ADAS-COG", "", "6", "sec", "6", 6.0, "sec", "", "", "", "", 5.0, "WEEK 4", 28.0, "TREATMENT", "2014-04-14", 28.0]
["CDISCPILOT01", "QS", "01-701-1033", 5040.0, "ACITM10", "MAZE SOLUTION", "ADAS-COG", "", "4", "sec", "4", 4.0, "sec", "", "", "", "", 201.0, "RETRIEVAL", 168.0, "TREATMENT", "2014-09-15", 182.0]
["CDISCPILOT01", "QS", "01-701-1033", 5011.0, "ACITM11", "SPOKEN LANGUAGE ABILITY", "ADAS-COG", "", "0", "", "0", 0.0, "", "", "", "Y", "", 3.0, "BASELINE", 1.0, "TREATMENT", "2014-03-18", 1.0]
["CDISCPILOT01", "QS", "01-701-1033", 5026.0, "ACITM11", "SPOKEN LANGUAGE ABILITY", "ADAS-COG", "", "0", "", "0", 0.0, "", "", "", "", "", 5.0, "WEEK 4", 28.0, "TREATMENT", "2014-04-14", 28.0]
["CDISCPILOT01", "QS", "01-701-1033", 5041.0, "ACITM11", "SPOKEN LANGUAGE ABILITY", "ADAS-COG", "", "0", "", "0", 0.0, "", "", "", "", "", 201.0, "RETRIEVAL", 168.0, "TREATMENT", "2014-09-15", 182.0]
["CDISCPILOT01", "QS", "01-701-1033", 5012.0, "ACITM12", "COMPREHENSION OF SPOKEN LANGUAGE", "ADAS-COG", "", "0", "", "0", 0.0, "", "", "", "Y", "", 3.0, "BASELINE", 1.0, "TREATMENT", "2014-03-18", 1.0]
["CDISCPILOT01", "QS", "01-701-1033", 5027.0, "ACITM12", "COMPREHENSION OF SPOKEN LANGUAGE", "ADAS-COG", "", "0", "", "0", 0.0, "", "", "", "", "", 5.0, "WEEK 4", 28.0, "TREATMENT", "2014-04-14", 28.0]
["CDISCPILOT01", "QS", "01-701-1033", 5042.0, "ACITM12", "COMPREHENSION OF SPOKEN LANGUAGE", "ADAS-COG", "", "0", "", "0", 0.0, "", "", "", "", "", 201.0, "RETRIEVAL", 168.0, "TREATMENT", "2014-09-15", 182.0]
["CDISCPILOT01", "QS", "01-701-1033", 5013.0, "ACITM13", "WORD FINDING DIFFICULTY IN SPONTANEOUS S", "ADAS-COG", "", "0", "", "0", 0.0, "", "", "", "Y", "", 3.0, "BASELINE", 1.0, "TREATMENT", "2014-03-18", 1.0]
["CDISCPILOT01", "QS", "01-701-1033", 5028.0, "ACITM13", "WORD FINDING DIFFICULTY IN SPONTANEOUS S", "ADAS-COG", "", "0", "", "0", 0.0, "", "", "", "", "", 5.0, "WEEK 4", 28.0, "TREATMENT", "2014-04-14", 28.0]
["CDISCPILOT01", "QS", "01-701-1033", 5043.0, "ACITM13", "WORD FINDING DIFFICULTY IN SPONTANEOUS S", "ADAS-COG", "", "0", "", "0", 0.0, "", "", "", "", "", 201.0, "RETRIEVAL", 168.0, "TREATMENT", "2014-09-15", 182.0]
["CDISCPILOT01", "QS", "01-701-1033", 5014.0, "ACITM14", "RECALL OF TEST INSTRUCTIONS", "ADAS-COG", "", "0", "", "0", 0.0, "", "", "", "Y", "", 3.0, "BASELINE", 1.0, "TREATMENT", "2014-03-18", 1.0]
["CDISCPILOT01", "QS", "01-701-1033", 5029.0, "ACITM14", "RECALL OF TEST INSTRUCTIONS", "ADAS-COG", "", "0", "", "0", 0.0, "", "", "", "", "", 5.0, "WEEK 4", 28.0, "TREATMENT", "2014-04-14", 28.0]
["CDISCPILOT01", "QS", "01-701-1033", 5044.0, "ACITM14", "RECALL OF TEST INSTRUCTIONS", "ADAS-COG", "", "0", "", "0", 0.0, "", "", "", "", "", 201.0, "RETRIEVAL", 168.0, "TREATMENT", "2014-09-15", 182.0]
["CDISCPILOT01", "QS", "01-701-1033", 5015.0, "ACTOT", "ADAS-COG(11) Subscore", "ADAS-COG", "", "", "", "7", 7.0, "", "", "", "Y", "Y", 3.0, "BASELINE", 1.0, "TREATMENT", "2014-03-18", 1.0]
["CDISCPILOT01", "QS", "01-701-1033", 5030.0, "ACTOT", "ADAS-COG(11) Subscore", "ADAS-COG", "", "", "", "8", 8.0, "", "", "", "", "Y", 5.0, "WEEK 4", 28.0, "TREATMENT", "2014-04-14", 28.0]
["CDISCPILOT01", "QS", "01-701-1033", 5045.0, "ACTOT", "ADAS-COG(11) Subscore", "ADAS-COG", "", "", "", "7", 7.0, "", "", "", "", "Y", 201.0, "RETRIEVAL", 168.0, "TREATMENT", "2014-09-15", 182.0]
["CDISCPILOT01", "QS", "01-701-1034", 5001.0, "ACITM01", "WORD RECALL TASK", "ADAS-COG", "", "5", "", "5", 5.0, "", "", "", "Y", "", 3.0, "BASELINE", 1.0, "TREATMENT", "2014-07-01", 1.0]
["CDISCPILOT01", "QS", "01-701-1034", 5016.0, "ACITM01", "WORD RECALL TASK", "ADAS-COG", "", "5", "", "5", 5.0, "", "", "", "", "", 8.0, "WEEK 8", 56.0, "TREATMENT", "2014-08-26", 57.0]
["CDISCPILOT01", "QS", "01-701-1034", 5031.0, "ACITM01", "WORD RECALL TASK", "ADAS-COG", "", "6", "", "6", 6.0, "", "", "", "", "", 10.0, "WEEK 16", 112.0, "TREATMENT", "2014-10-21", 113.0]
["CDISCPILOT01", "QS", "01-701-1034", 5046.0, "ACITM01", "WORD RECALL TASK", "ADAS-COG", "", "6", "", "6", 6.0, "", "", "", "", "", 12.0, "WEEK 24", 168.0, "TREATMENT", "2014-12-17", 170.0]
["CDISCPILOT01", "QS", "01-701-1034", 5002.0, "ACITM02", "NAMING OBJECTS AND FINGERS (REFER TO 5 C", "ADAS-COG", "", "0", "", "0", 0.0, "", "", "", "Y", "", 3.0, "BASELINE", 1.0, "TREATMENT", "2014-07-01", 1.0]
["CDISCPILOT01", "QS", "01-701-1034", 5017.0, "ACITM02", "NAMING OBJECTS AND FINGERS (REFER TO 5 C", "ADAS-COG", "", "1", "", "1", 1.0, "", "", "", "", "", 8.0, "WEEK 8", 56.0, "TREATMENT", "2014-08-26", 57.0]
["CDISCPILOT01", "QS", "01-701-1034", 5032.0, "ACITM02", "NAMING OBJECTS AND FINGERS (REFER TO 5 C", "ADAS-COG", "", "1", "", "1", 1.0, "", "", "", "", "", 10.0, "WEEK 16", 112.0, "TREATMENT", "2014-10-21", 113.0]
["CDISCPILOT01", "QS", "01-701-1034", 5047.0, "ACITM02", "NAMING OBJECTS AND FINGERS (REFER TO 5 C", "ADAS-COG", "", "1", "", "1", 1.0, "", "", "", "", "", 12.0, "WEEK 24", 168.0, "TREATMENT", "2014-12-17", 170.0]
["CDISCPILOT01", "QS", "01-701-1034", 5003.0, "ACITM03", "DELAYED WORD RECALL", "ADAS-COG", "", "9", "", "9", 9.0, "", "", "", "Y", "", 3.0, "BASELINE", 1.0, "TREATMENT", "2014-07-01", 1.0]
["CDISCPILOT01", "QS", "01-701-1034", 5018.0, "ACITM03", "DELAYED WORD RECALL", "ADAS-COG", "", "7", "", "7", 7.0, "", "", "", "", "", 8.0, "WEEK 8", 56.0, "TREATMENT", "2014-08-26", 57.0]
["CDISCPILOT01", "QS", "01-701-1034", 5033.0, "ACITM03", "DELAYED WORD RECALL", "ADAS-COG", "", "10", "", "10", 10.0, "", "", "", "", "", 10.0, "WEEK 16", 112.0, "TREATMENT", "2014-10-21", 113.0]
["CDISCPILOT01", "QS", "01-701-1034", 5048.0, "ACITM03", "DELAYED WORD RECALL", "ADAS-COG", "", "10", "", "10", 10.0, "", "", "", "", "", 12.0, "WEEK 24", 168.0, "TREATMENT", "2014-12-17", 170.0]
["CDISCPILOT01", "QS", "01-701-1034", 5004.0, "ACITM04", "COMMANDS", "ADAS-COG", "", "0", "", "0", 0.0, "", "", "", "Y", "", 3.0, "BASELINE", 1.0, "TREATMENT", "2014-07-01", 1.0]
["CDISCPILOT01", "QS", "01-701-1034", 5019.0, "ACITM04", "COMMANDS", "ADAS-COG", "", "0", "", "0", 0.0, "", "", "", "", "", 8.0, "WEEK 8", 56.0, "TREATMENT", "2014-08-26", 57.0]
["CDISCPILOT01", "QS", "01-701-1034", 5034.0, "ACITM04", "COMMANDS", "ADAS-COG", "", "0", "", "0", 0.0, "", "", "", "", "", 10.0, "WEEK 16", 112.0, "TREATMENT", "2014-10-21", 113.0]
["CDISCPILOT01", "QS", "01-701-1034", 5049.0, "ACITM04", "COMMANDS", "ADAS-COG", "", "0", "", "0", 0.0, "", "", "", "", "", 12.0, "WEEK 24", 168.0, "TREATMENT", "2014-12-17", 170.0]
["CDISCPILOT01", "QS", "01-701-1034", 5005.0, "ACITM05", "CONSTRUCTIONAL PRAXIS", "ADAS-COG", "", "2", "", "2", 2.0, "", "", "", "Y", "", 3.0, "BASELINE", 1.0, "TREATMENT", "2014-07-01", 1.0]
["CDISCPILOT01", "QS", "01-701-1034", 5020.0, "ACITM05", "CONSTRUCTIONAL PRAXIS", "ADAS-COG", "", "1", "", "1", 1.0, "", "", "", "", "", 8.0, "WEEK 8", 56.0, "TREATMENT", "2014-08-26", 57.0]
["CDISCPILOT01", "QS", "01-701-1034", 5035.0, "ACITM05", "CONSTRUCTIONAL PRAXIS", "ADAS-COG", "", "3", "", "3", 3.0, "", "", "", "", "", 10.0, "WEEK 16", 112.0, "TREATMENT", "2014-10-21", 113.0]
["CDISCPILOT01", "QS", "01-701-1034", 5050.0, "ACITM05", "CONSTRUCTIONAL PRAXIS", "ADAS-COG", "", "2", "", "2", 2.0, "", "", "", "", "", 12.0, "WEEK 24", 168.0, "TREATMENT", "2014-12-17", 170.0]
["CDISCPILOT01", "QS", "01-701-1034", 5006.0, "ACITM06", "IDEATIONAL PRAXIS", "ADAS-COG", "", "1", "", "1", 1.0, "", "", "", "Y", "", 3.0, "BASELINE", 1.0, "TREATMENT", "2014-07-01", 1.0]
["CDISCPILOT01", "QS", "01-701-1034", 5021.0, "ACITM06", "IDEATIONAL PRAXIS", "ADAS-COG", "", "0", "", "0", 0.0, "", "", "", "", "", 8.0, "WEEK 8", 56.0, "TREATMENT", "2014-08-26", 57.0]
["CDISCPILOT01", "QS", "01-701-1034", 5036.0, "ACITM06", "IDEATIONAL PRAXIS", "ADAS-COG", "", "0", "", "0", 0.0, "", "", "", "", "", 10.0, "WEEK 16", 112.0, "TREATMENT", "2014-10-21", 113.0]
["CDISCPILOT01", "QS", "01-701-1034", 5051.0, "ACITM06", "IDEATIONAL PRAXIS", "ADAS-COG", "", "0", "", "0", 0.0, "", "", "", "", "", 12.0, "WEEK 24", 168.0, "TREATMENT", "2014-12-17", 170.0]
["CDISCPILOT01", "QS", "01-701-1034", 5007.0, "ACITM07", "ORIENTATION", "ADAS-COG", "", "0", "", "0", 0.0, "", "", "", "Y", "", 3.0, "BASELINE", 1.0, "TREATMENT", "2014-07-01", 1.0]
["CDISCPILOT01", "QS", "01-701-1034", 5022.0, "ACITM07", "ORIENTATION", "ADAS-COG", "", "0", "", "0", 0.0, "", "", "", "", "", 8.0, "WEEK 8", 56.0, "TREATMENT", "2014-08-26", 57.0]
["CDISCPILOT01", "QS", "01-701-1034", 5037.0, "ACITM07", "ORIENTATION", "ADAS-COG", "", "0", "", "0", 0.0, "", "", "", "", "", 10.0, "WEEK 16", 112.0, "TREATMENT", "2014-10-21", 113.0]
["CDISCPILOT01", "QS", "01-701-1034", 5052.0, "ACITM07", "ORIENTATION", "ADAS-COG", "", "0", "", "0", 0.0, "", "", "", "", "", 12.0, "WEEK 24", 168.0, "TREATMENT", "2014-12-17", 170.0]
["CDISCPILOT01", "QS", "01-701-1034", 5008.0, "ACITM08", "WORD RECOGNITION", "ADAS-COG", "", "3", "", "3", 3.0, "", "", "", "Y", "", 3.0, "BASELINE", 1.0, "TREATMENT", "2014-07-01", 1.0]
["CDISCPILOT01", "QS", "01-701-1034", 5023.0, "ACITM08", "WORD RECOGNITION", "ADAS-COG", "", "4", "", "4", 4.0, "", "", "", "", "", 8.0, "WEEK 8", 56.0, "TREATMENT", "2014-08-26", 57.0]
["CDISCPILOT01", "QS", "01-701-1034", 5038.0, "ACITM08", "WORD RECOGNITION", "ADAS-COG", "", "4", "", "4", 4.0, "", "", "", "", "", 10.0, "WEEK 16", 112.0, "TREATMENT", "2014-10-21", 113.0]
["CDISCPILOT01", "QS", "01-701-1034", 5053.0, "ACITM08", "WORD RECOGNITION", "ADAS-COG", "", "2", "", "2", 2.0, "", "", "", "", "", 12.0, "WEEK 24", 168.0, "TREATMENT", "2014-12-17", 170.0]
["CDISCPILOT01", "QS", "01-701-1034", 5009.0, "ACITM09", "ATTENTION/VISUAL SEARCH TASK", "ADAS-COG", "", "20", "", "20", 20.0, "", "", "", "Y", "", 3.0, "BASELINE", 1.0, "TREATMENT", "2014-07-01", 1.0]
["CDISCPILOT01", "QS", "01-701-1034", 5024.0, "ACITM09", "ATTENTION/VISUAL SEARCH TASK", "ADAS-COG", "", "20", "", "20", 20.0, "", "", "", "", "", 8.0, "WEEK 8", 56.0, "TREATMENT", "2014-08-26", 57.0]
["CDISCPILOT01", "QS", "01-701-1034", 5039.0, "ACITM09", "ATTENTION/VISUAL SEARCH TASK", "ADAS-COG", "", "27", "", "27", 27.0, "", "", "", "", "", 10.0, "WEEK 16", 112.0, "TREATMENT", "2014-10-21", 113.0]
["CDISCPILOT01", "QS", "01-701-1034", 5054.0, "ACITM09", "ATTENTION/VISUAL SEARCH TASK", "ADAS-COG", "", "31", "", "31", 31.0, "", "", "", "", "", 12.0, "WEEK 24", 168.0, "TREATMENT", "2014-12-17", 170.0]
["CDISCPILOT01", "QS", "01-701-1034", 5010.0, "ACITM10", "MAZE SOLUTION", "ADAS-COG", "", "5", "sec", "5", 5.0, "sec", "", "", "Y", "", 3.0, "BASELINE", 1.0, "TREATMENT", "2014-07-01", 1.0]
["CDISCPILOT01", "QS", "01-701-1034", 5025.0, "ACITM10", "MAZE SOLUTION", "ADAS-COG", "", "4", "sec", "4", 4.0, "sec", "", "", "", "", 8.0, "WEEK 8", 56.0, "TREATMENT", "2014-08-26", 57.0]
["CDISCPILOT01", "QS", "01-701-1034", 5040.0, "ACITM10", "MAZE SOLUTION", "ADAS-COG", "", "5", "sec", "5", 5.0, "sec", "", "", "", "", 10.0, "WEEK 16", 112.0, "TREATMENT", "2014-10-21", 113.0]
["CDISCPILOT01", "QS", "01-701-1034", 5055.0, "ACITM10", "MAZE SOLUTION", "ADAS-COG", "", "7", "sec", "7", 7.0, "sec", "", "", "", "", 12.0, "WEEK 24", 168.0, "TREATMENT", "2014-12-17", 170.0]
["CDISCPILOT01", "QS", "01-701-1034", 5011.0, "ACITM11", "SPOKEN LANGUAGE ABILITY", "ADAS-COG", "", "0", "", "0", 0.0, "", "", "", "Y", "", 3.0, "BASELINE", 1.0, "TREATMENT", "2014-07-01", 1.0]
["CDISCPILOT01", "QS", "01-701-1034", 5026.0, "ACITM11", "SPOKEN LANGUAGE ABILITY", "ADAS-COG", "", "0", "", "0", 0.0, "", "", "", "", "", 8.0, "WEEK 8", 56.0, "TREATMENT", "2014-08-26", 57.0]
["CDISCPILOT01", "QS", "01-701-1034", 5041.0, "ACITM11", "SPOKEN LANGUAGE ABILITY", "ADAS-COG", "", "0", "", "0", 0.0, "", "", "", "", "", 10.0, "WEEK 16", 112.0, "TREATMENT", "2014-10-21", 113.0]
["CDISCPILOT01", "QS", "01-701-1034", 5056.0, "ACITM11", "SPOKEN LANGUAGE ABILITY", "ADAS-COG", "", "0", "", "0", 0.0, "", "", "", "", "", 12.0, "WEEK 24", 168.0, "TREATMENT", "2014-12-17", 170.0]
["CDISCPILOT01", "QS", "01-701-1034", 5012.0, "ACITM12", "COMPREHENSION OF SPOKEN LANGUAGE", "ADAS-COG", "", "0", "", "0", 0.0, "", "", "", "Y", "", 3.0, "BASELINE", 1.0, "TREATMENT", "2014-07-01", 1.0]
["CDISCPILOT01", "QS", "01-701-1034", 5027.0, "ACITM12", "COMPREHENSION OF SPOKEN LANGUAGE", "ADAS-COG", "", "0", "", "0", 0.0, "", "", "", "", "", 8.0, "WEEK 8", 56.0, "TREATMENT", "2014-08-26", 57.0]
["CDISCPILOT01", "QS", "01-701-1034", 5042.0, "ACITM12", "COMPREHENSION OF SPOKEN LANGUAGE", "ADAS-COG", "", "0", "", "0", 0.0, "", "", "", "", "", 10.0, "WEEK 16", 112.0, "TREATMENT", "2014-10-21", 113.0]
["CDISCPILOT01", "QS", "01-701-1034", 5057.0, "ACITM12", "COMPREHENSION OF SPOKEN LANGUAGE", "ADAS-COG", "", "0", "", "0", 0.0, "", "", "", "", "", 12.0, "WEEK 24", 168.0, "TREATMENT", "2014-12-17", 170.0]
["CDISCPILOT01", "QS", "01-701-1034", 5013.0, "ACITM13", "WORD FINDING DIFFICULTY IN SPONTANEOUS S", "ADAS-COG", "", "0", "", "0", 0.0, "", "", "", "Y", "", 3.0, "BASELINE", 1.0, "TREATMENT", "2014-07-01", 1.0]
["CDISCPILOT01", "QS", "01-701-1034", 5028.0, "ACITM13", "WORD FINDING DIFFICULTY IN SPONTANEOUS S", "ADAS-COG", "", "1", "", "1", 1.0, "", "", "", "", "", 8.0, "WEEK 8", 56.0, "TREATMENT", "2014-08-26", 57.0]
["CDISCPILOT01", "QS", "01-701-1034", 5043.0, "ACITM13", "WORD FINDING DIFFICULTY IN SPONTANEOUS S", "ADAS-COG", "", "0", "", "0", 0.0, "", "", "", "", "", 10.0, "WEEK 16", 112.0, "TREATMENT", "2014-10-21", 113.0]
["CDISCPILOT01", "QS", "01-701-1034", 5058.0, "ACITM13", "WORD FINDING DIFFICULTY IN SPONTANEOUS S", "ADAS-COG", "", "0", "", "0", 0.0, "", "", "", "", "", 12.0, "WEEK 24", 168.0, "TREATMENT", "2014-12-17", 170.0]
["CDISCPILOT01", "QS", "01-701-1034", 5014.0, "ACITM14", "RECALL OF TEST INSTRUCTIONS", "ADAS-COG", "", "0", "", "0", 0.0, "", "", "", "Y", "", 3.0, "BASELINE", 1.0, "TREATMENT", "2014-07-01", 1.0]
["CDISCPILOT01", "QS", "01-701-1034", 5029.0, "ACITM14", "RECALL OF TEST INSTRUCTIONS", "ADAS-COG", "", "0", "", "0", 0.0, "", "", "", "", "", 8.0, "WEEK 8", 56.0, "TREATMENT", "2014-08-26", 57.0]
["CDISCPILOT01", "QS", "01-701-1034", 5044.0, "ACITM14", "RECALL OF TEST INSTRUCTIONS", "ADAS-COG", "", "0", "", "0", 0.0, "", "", "", "", "", 10.0, "WEEK 16", 112.0, "TREATMENT", "2014-10-21", 113.0]
["CDISCPILOT01", "QS", "01-701-1034", 5059.0, "ACITM14", "RECALL OF TEST INSTRUCTIONS", "ADAS-COG", "", "0", "", "0", 0.0, "", "", "", "", "", 12.0, "WEEK 24", 168.0, "TREATMENT", "2014-12-17", 170.0]
["CDISCPILOT01", "QS", "01-701-1034", 5015.0, "ACTOT", "ADAS-COG(11) Subscore", "ADAS-COG", "", "", "", "11", 11.0, "", "", "", "Y", "Y", 3.0, "BASELINE", 1.0, "TREATMENT", "2014-07-01", 1.0]
["CDISCPILOT01", "QS", "01-701-1034", 5030.0, "ACTOT", "ADAS-COG(11) Subscore", "ADAS-COG", "", "", "", "12", 12.0, "", "", "", "", "Y", 8.0, "WEEK 8", 56.0, "TREATMENT", "2014-08-26", 57.0]
["CDISCPILOT01", "QS", "01-701-1034", 5045.0, "ACTOT", "ADAS-COG(11) Subscore", "ADAS-COG", "", "", "", "14", 14.0, "", "", "", "", "Y", 10.0, "WEEK 16", 112.0, "TREATMENT", "2014-10-21", 113.0]
["CDISCPILOT01", "QS", "01-701-1034", 5060.0, "ACTOT", "ADAS-COG(11) Subscore", "ADAS-COG", "", "", "", "11", 11.0, "", "", "", "", "Y", 12.0, "WEEK 24", 168.0, "TREATMENT", "2014-12-17", 170.0]
["CDISCPILOT01", "QS", "01-701-1047", 5001.0, "ACITM01", "WORD RECALL TASK", "ADAS-COG", "", "6", "", "6", 6.0, "", "", "", "Y", "", 3.0, "BASELINE", 1.0, "TREATMENT", "2013-02-12", 1.0]
["CDISCPILOT01", "QS", "01-701-1047", 5016.0, "ACITM01", "WORD RECALL TASK", "ADAS-COG", "", "7", "", "7", 7.0, "", "", "", "", "", 6.0, "AMBUL ECG REMOVAL", 30.0, "TREATMENT", "2013-03-29", 46.0]
["CDISCPILOT01", "QS", "01-701-1047", 5031.0, "ACITM01", "WORD RECALL TASK", "ADAS-COG", "", "7", "", "7", 7.0, "", "", "", "", "", 201.0, "RETRIEVAL", 168.0, "TREATMENT", "2013-07-28", 167.0]
["CDISCPILOT01", "QS", "01-701-1047", 5002.0, "ACITM02", "NAMING OBJECTS AND FINGERS (REFER TO 5 C", "ADAS-COG", "", "0", "", "0", 0.0, "", "", "", "Y", "", 3.0, "BASELINE", 1.0, "TREATMENT", "2013-02-12", 1.0]
["CDISCPILOT01", "QS", "01-701-1047", 5017.0, "ACITM02", "NAMING OBJECTS AND FINGERS (REFER TO 5 C", "ADAS-COG", "", "0", "", "0", 0.0, "", "", "", "", "", 6.0, "AMBUL ECG REMOVAL", 30.0, "TREATMENT", "2013-03-29", 46.0]
["CDISCPILOT01", "QS", "01-701-1047", 5032.0, "ACITM02", "NAMING OBJECTS AND FINGERS (REFER TO 5 C", "ADAS-COG", "", "0", "", "0", 0.0, "", "", "", "", "", 201.0, "RETRIEVAL", 168.0, "TREATMENT", "2013-07-28", 167.0]
["CDISCPILOT01", "QS", "01-701-1047", 5003.0, "ACITM03", "DELAYED WORD RECALL", "ADAS-COG", "", "10", "", "10", 10.0, "", "", "", "Y", "", 3.0, "BASELINE", 1.0, "TREATMENT", "2013-02-12", 1.0]
["CDISCPILOT01", "QS", "01-701-1047", 5018.0, "ACITM03", "DELAYED WORD RECALL", "ADAS-COG", "", "10", "", "10", 10.0, "", "", "", "", "", 6.0, "AMBUL ECG REMOVAL", 30.0, "TREATMENT", "2013-03-29", 46.0]
["CDISCPILOT01", "QS", "01-701-1047", 5033.0, "ACITM03", "DELAYED WORD RECALL", "ADAS-COG", "", "10", "", "10", 10.0, "", "", "", "", "", 201.0, "RETRIEVAL", 168.0, "TREATMENT", "2013-07-28", 167.0]
["CDISCPILOT01", "QS", "01-701-1047", 5004.0, "ACITM04", "COMMANDS", "ADAS-COG", "", "0", "", "0", 0.0, "", "", "", "Y", "", 3.0, "BASELINE", 1.0, "TREATMENT", "2013-02-12", 1.0]
["CDISCPILOT01", "QS", "01-701-1047", 5019.0, "ACITM04", "COMMANDS", "ADAS-COG", "", "0", "", "0", 0.0, "", "", "", "", "", 6.0, "AMBUL ECG REMOVAL", 30.0, "TREATMENT", "2013-03-29", 46.0]
["CDISCPILOT01", "QS", "01-701-1047", 5034.0, "ACITM04", "COMMANDS", "ADAS-COG", "", "0", "", "0", 0.0, "", "", "", "", "", 201.0, "RETRIEVAL", 168.0, "TREATMENT", "2013-07-28", 167.0]
["CDISCPILOT01", "QS", "01-701-1047", 5005.0, "ACITM05", "CONSTRUCTIONAL PRAXIS", "ADAS-COG", "", "1", "", "1", 1.0, "", "", "", "Y", "", 3.0, "BASELINE", 1.0, "TREATMENT", "2013-02-12", 1.0]
["CDISCPILOT01", "QS", "01-701-1047", 5020.0, "ACITM05", "CONSTRUCTIONAL PRAXIS", "ADAS-COG", "", "0", "", "0", 0.0, "", "", "", "", "", 6.0, "AMBUL ECG REMOVAL", 30.0, "TREATMENT", "2013-03-29", 46.0]
["CDISCPILOT01", "QS", "01-701-1047", 5035.0, "ACITM05", "CONSTRUCTIONAL PRAXIS", "ADAS-COG", "", "1", "", "1", 1.0, "", "", "", "", "", 201.0, "RETRIEVAL", 168.0, "TREATMENT", "2013-07-28", 167.0]
["CDISCPILOT01", "QS", "01-701-1047", 5006.0, "ACITM06", "IDEATIONAL PRAXIS", "ADAS-COG", "", "0", "", "0", 0.0, "", "", "", "Y", "", 3.0, "BASELINE", 1.0, "TREATMENT", "2013-02-12", 1.0]
["CDISCPILOT01", "QS", "01-701-1047", 5021.0, "ACITM06", "IDEATIONAL PRAXIS", "ADAS-COG", "", "1", "", "1", 1.0, "", "", "", "", "", 6.0, "AMBUL ECG REMOVAL", 30.0, "TREATMENT", "2013-03-29", 46.0]
["CDISCPILOT01", "QS", "01-701-1047", 5036.0, "ACITM06", "IDEATIONAL PRAXIS", "ADAS-COG", "", "0", "", "0", 0.0, "", "", "", "", "", 201.0, "RETRIEVAL", 168.0, "TREATMENT", "2013-07-28", 167.0]
["CDISCPILOT01", "QS", "01-701-1047", 5007.0, "ACITM07", "ORIENTATION", "ADAS-COG", "", "0", "", "0", 0.0, "", "", "", "Y", "", 3.0, "BASELINE", 1.0, "TREATMENT", "2013-02-12", 1.0]
["CDISCPILOT01", "QS", "01-701-1047", 5022.0, "ACITM07", "ORIENTATION", "ADAS-COG", "", "1", "", "1", 1.0, "", "", "", "", "", 6.0, "AMBUL ECG REMOVAL", 30.0, "TREATMENT", "2013-03-29", 46.0]
["CDISCPILOT01", "QS", "01-701-1047", 5037.0, "ACITM07", "ORIENTATION", "ADAS-COG", "", "2", "", "2", 2.0, "", "", "", "", "", 201.0, "RETRIEVAL", 168.0, "TREATMENT", "2013-07-28", 167.0]
["CDISCPILOT01", "QS", "01-701-1047", 5008.0, "ACITM08", "WORD RECOGNITION", "ADAS-COG", "", "3", "", "3", 3.0, "", "", "", "Y", "", 3.0, "BASELINE", 1.0, "TREATMENT", "2013-02-12", 1.0]
["CDISCPILOT01", "QS", "01-701-1047", 5023.0, "ACITM08", "WORD RECOGNITION", "ADAS-COG", "", "5", "", "5", 5.0, "", "", "", "", "", 6.0, "AMBUL ECG REMOVAL", 30.0, "TREATMENT", "2013-03-29", 46.0]
["CDISCPILOT01", "QS", "01-701-1047", 5038.0, "ACITM08", "WORD RECOGNITION", "ADAS-COG", "", "3", "", "3", 3.0, "", "", "", "", "", 201.0, "RETRIEVAL", 168.0, "TREATMENT", "2013-07-28", 167.0]
["CDISCPILOT01", "QS", "01-701-1047", 5009.0, "ACITM09", "ATTENTION/VISUAL SEARCH TASK", "ADAS-COG", "", "26", "", "26", 26.0, "", "", "", "Y", "", 3.0, "BASELINE", 1.0, "TREATMENT", "2013-02-12", 1.0]
["CDISCPILOT01", "QS", "01-701-1047", 5024.0, "ACITM09", "ATTENTION/VISUAL SEARCH TASK", "ADAS-COG", "", "37", "", "37", 37.0, "", "", "", "", "", 6.0, "AMBUL ECG REMOVAL", 30.0, "TREATMENT", "2013-03-29", 46.0]
["CDISCPILOT01", "QS", "01-701-1047", 5039.0, "ACITM09", "ATTENTION/VISUAL SEARCH TASK", "ADAS-COG", "", "33", "", "33", 33.0, "", "", "", "", "", 201.0, "RETRIEVAL", 168.0, "TREATMENT", "2013-07-28", 167.0]
["CDISCPILOT01", "QS", "01-701-1047", 5010.0, "ACITM10", "MAZE SOLUTION", "ADAS-COG", "", "7", "sec", "7", 7.0, "sec", "", "", "Y", "", 3.0, "BASELINE", 1.0, "TREATMENT", "2013-02-12", 1.0]
["CDISCPILOT01", "QS", "01-701-1047", 5025.0, "ACITM10", "MAZE SOLUTION", "ADAS-COG", "", "5", "sec", "5", 5.0, "sec", "", "", "", "", 6.0, "AMBUL ECG REMOVAL", 30.0, "TREATMENT", "2013-03-29", 46.0]
["CDISCPILOT01", "QS", "01-701-1047", 5040.0, "ACITM10", "MAZE SOLUTION", "ADAS-COG", "", "5", "sec", "5", 5.0, "sec", "", "", "", "", 201.0, "RETRIEVAL", 168.0, "TREATMENT", "2013-07-28", 167.0]
["CDISCPILOT01", "QS", "01-701-1047", 5011.0, "ACITM11", "SPOKEN LANGUAGE ABILITY", "ADAS-COG", "", "0", "", "0", 0.0, "", "", "", "Y", "", 3.0, "BASELINE", 1.0, "TREATMENT", "2013-02-12", 1.0]
["CDISCPILOT01", "QS", "01-701-1047", 5026.0, "ACITM11", "SPOKEN LANGUAGE ABILITY", "ADAS-COG", "", "0", "", "0", 0.0, "", "", "", "", "", 6.0, "AMBUL ECG REMOVAL", 30.0, "TREATMENT", "2013-03-29", 46.0]
["CDISCPILOT01", "QS", "01-701-1047", 5041.0, "ACITM11", "SPOKEN LANGUAGE ABILITY", "ADAS-COG", "", "1", "", "1", 1.0, "", "", "", "", "", 201.0, "RETRIEVAL", 168.0, "TREATMENT", "2013-07-28", 167.0]
["CDISCPILOT01", "QS", "01-701-1047", 5012.0, "ACITM12", "COMPREHENSION OF SPOKEN LANGUAGE", "ADAS-COG", "", "0", "", "0", 0.0, "", "", "", "Y", "", 3.0, "BASELINE", 1.0, "TREATMENT", "2013-02-12", 1.0]
["CDISCPILOT01", "QS", "01-701-1047", 5027.0, "ACITM12", "COMPREHENSION OF SPOKEN LANGUAGE", "ADAS-COG", "", "0", "", "0", 0.0, "", "", "", "", "", 6.0, "AMBUL ECG REMOVAL", 30.0, "TREATMENT", "2013-03-29", 46.0]
["CDISCPILOT01", "QS", "01-701-1047", 5042.0, "ACITM12", "COMPREHENSION OF SPOKEN LANGUAGE", "ADAS-COG", "", "2", "", "2", 2.0, "", "", "", "", "", 201.0, "RETRIEVAL", 168.0, "TREATMENT", "2013-07-28", 167.0]
["CDISCPILOT01", "QS", "01-701-1047", 5013.0, "ACITM13", "WORD FINDING DIFFICULTY IN SPONTANEOUS S", "ADAS-COG", "", "0", "", "0", 0.0, "", "", "", "Y", "", 3.0, "BASELINE", 1.0, "TREATMENT", "2013-02-12", 1.0]
["CDISCPILOT01", "QS", "01-701-1047", 5028.0, "ACITM13", "WORD FINDING DIFFICULTY IN SPONTANEOUS S", "ADAS-COG", "", "0", "", "0", 0.0, "", "", "", "", "", 6.0, "AMBUL ECG REMOVAL", 30.0, "TREATMENT", "2013-03-29", 46.0]
["CDISCPILOT01", "QS", "01-701-1047", 5043.0, "ACITM13", "WORD FINDING DIFFICULTY IN SPONTANEOUS S", "ADAS-COG", "", "1", "", "1", 1.0, "", "", "", "", "", 201.0, "RETRIEVAL", 168.0, "TREATMENT", "2013-07-28", 167.0]
["CDISCPILOT01", "QS", "01-701-1047", 5014.0, "ACITM14", "RECALL OF TEST INSTRUCTIONS", "ADAS-COG", "", "0", "", "0", 0.0, "", "", "", "Y", "", 3.0, "BASELINE", 1.0, "TREATMENT", "2013-02-12", 1.0]
["CDISCPILOT01", "QS", "01-701-1047", 5029.0, "ACITM14", "RECALL OF TEST INSTRUCTIONS", "ADAS-COG", "", "0", "", "0", 0.0, "", "", "", "", "", 6.0, "AMBUL ECG REMOVAL", 30.0, "TREATMENT", "2013-03-29", 46.0]
["CDISCPILOT01", "QS", "01-701-1047", 5044.0, "ACITM14", "RECALL OF TEST INSTRUCTIONS", "ADAS-COG", "", "2", "", "2", 2.0, "", "", "", "", "", 201.0, "RETRIEVAL", 168.0, "TREATMENT", "2013-07-28", 167.0]
["CDISCPILOT01", "QS", "01-701-1047", 5015.0, "ACTOT", "ADAS-COG(11) Subscore", "ADAS-COG", "", "", "", "10", 10.0, "", "", "", "Y", "Y", 3.0, "BASELINE", 1.0, "TREATMENT", "2013-02-12", 1.0]
["CDISCPILOT01", "QS", "01-701-1047", 5030.0, "ACTOT", "ADAS-COG(11) Subscore", "ADAS-COG", "", "", "", "14", 14.0, "", "", "", "", "Y", 6.0, "AMBUL ECG REMOVAL", 30.0, "TREATMENT", "2013-03-29", 46.0]
["CDISCPILOT01", "QS", "01-701-1047", 5045.0, "ACTOT", "ADAS-COG(11) Subscore", "ADAS-COG", "", "", "", "19", 19.0, "", "", "", "", "Y", 201.0, "RETRIEVAL", 168.0, "TREATMENT", "2013-07-28", 167.0]
["CDISCPILOT01", "QS", "01-701-1097", 5001.0, "ACITM01", "WORD RECALL TASK", "ADAS-COG", "", "10", "", "10", 10.0, "", "", "", "Y", "", 3.0, "BASELINE", 1.0, "TREATMENT", "2014-01-01", 1.0]
["CDISCPILOT01", "QS", "01-701-1097", 5016.0, "ACITM01", "WORD RECALL TASK", "ADAS-COG", "", "9", "", "9", 9.0, "", "", "", "", "", 8.0, "WEEK 8", 56.0, "TREATMENT", "2014-02-26", 57.0]
["CDISCPILOT01", "QS", "01-701-1097", 5031.0, "ACITM01", "WORD RECALL TASK", "ADAS-COG", "", "9", "", "9", 9.0, "", "", "", "", "", 10.0, "WEEK 16", 112.0, "TREATMENT", "2014-04-23", 113.0]
["CDISCPILOT01", "QS", "01-701-1097", 5046.0, "ACITM01", "WORD RECALL TASK", "ADAS-COG", "", "9", "", "9", 9.0, "", "", "", "", "", 12.0, "WEEK 24", 168.0, "TREATMENT", "2014-06-18", 169.0]
["CDISCPILOT01", "QS", "01-701-1097", 5002.0, "ACITM02", "NAMING OBJECTS AND FINGERS (REFER TO 5 C", "ADAS-COG", "", "5", "", "5", 5.0, "", "", "", "Y", "", 3.0, "BASELINE", 1.0, "TREATMENT", "2014-01-01", 1.0]
["CDISCPILOT01", "QS", "01-701-1097", 5017.0, "ACITM02", "NAMING OBJECTS AND FINGERS (REFER TO 5 C", "ADAS-COG", "", "5", "", "5", 5.0, "", "", "", "", "", 8.0, "WEEK 8", 56.0, "TREATMENT", "2014-02-26", 57.0]
["CDISCPILOT01", "QS", "01-701-1097", 5032.0, "ACITM02", "NAMING OBJECTS AND FINGERS (REFER TO 5 C", "ADAS-COG", "", "5", "", "5", 5.0, "", "", "", "", "", 10.0, "WEEK 16", 112.0, "TREATMENT", "2014-04-23", 113.0]
["CDISCPILOT01", "QS", "01-701-1097", 5047.0, "ACITM02", "NAMING OBJECTS AND FINGERS (REFER TO 5 C", "ADAS-COG", "", "5", "", "5", 5.0, "", "", "", "", "", 12.0, "WEEK 24", 168.0, "TREATMENT", "2014-06-18", 169.0]
["CDISCPILOT01", "QS", "01-701-1097", 5003.0, "ACITM03", "DELAYED WORD RECALL", "ADAS-COG", "", "10", "", "10", 10.0, "", "", "", "Y", "", 3.0, "BASELINE", 1.0, "TREATMENT", "2014-01-01", 1.0]
["CDISCPILOT01", "QS", "01-701-1097", 5018.0, "ACITM03", "DELAYED WORD RECALL", "ADAS-COG", "", "10", "", "10", 10.0, "", "", "", "", "", 8.0, "WEEK 8", 56.0, "TREATMENT", "2014-02-26", 57.0]
["CDISCPILOT01", "QS", "01-701-1097", 5033.0, "ACITM03", "DELAYED WORD RECALL", "ADAS-COG", "", "10", "", "10", 10.0, "", "", "", "", "", 10.0, "WEEK 16", 112.0, "TREATMENT", "2014-04-23", 113.0]
["CDISCPILOT01", "QS", "01-701-1097", 5048.0, "ACITM03", "DELAYED WORD RECALL", "ADAS-COG", "", "10", "", "10", 10.0, "", "", "", "", "", 12.0, "WEEK 24", 168.0, "TREATMENT", "2014-06-18", 169.0]
["CDISCPILOT01", "QS", "01-701-1097", 5004.0, "ACITM04", "COMMANDS", "ADAS-COG", "", "3", "", "3", 3.0, "", "", "", "Y", "", 3.0, "BASELINE", 1.0, "TREATMENT", "2014-01-01", 1.0]
["CDISCPILOT01", "QS", "01-701-1097", 5019.0, "ACITM04", "COMMANDS", "ADAS-COG", "", "1", "", "1", 1.0, "", "", "", "", "", 8.0, "WEEK 8", 56.0, "TREATMENT", "2014-02-26", 57.0]
["CDISCPILOT01", "QS", "01-701-1097", 5034.0, "ACITM04", "COMMANDS", "ADAS-COG", "", "1", "", "1", 1.0, "", "", "", "", "", 10.0, "WEEK 16", 112.0, "TREATMENT", "2014-04-23", 113.0]
["CDISCPILOT01", "QS", "01-701-1097", 5049.0, "ACITM04", "COMMANDS", "ADAS-COG", "", "3", "", "3", 3.0, "", "", "", "", "", 12.0, "WEEK 24", 168.0, "TREATMENT", "2014-06-18", 169.0]
["CDISCPILOT01", "QS", "01-701-1097", 5005.0, "ACITM05", "CONSTRUCTIONAL PRAXIS", "ADAS-COG", "", "4", "", "4", 4.0, "", "", "", "Y", "", 3.0, "BASELINE", 1.0, "TREATMENT", "2014-01-01", 1.0]
["CDISCPILOT01", "QS", "01-701-1097", 5020.0, "ACITM05", "CONSTRUCTIONAL PRAXIS", "ADAS-COG", "", "3", "", "3", 3.0, "", "", "", "", "", 8.0, "WEEK 8", 56.0, "TREATMENT", "2014-02-26", 57.0]
["CDISCPILOT01", "QS", "01-701-1097", 5035.0, "ACITM05", "CONSTRUCTIONAL PRAXIS", "ADAS-COG", "", "4", "", "4", 4.0, "", "", "", "", "", 10.0, "WEEK 16", 112.0, "TREATMENT", "2014-04-23", 113.0]
["CDISCPILOT01", "QS", "01-701-1097", 5050.0, "ACITM05", "CONSTRUCTIONAL PRAXIS", "ADAS-COG", "", "2", "", "2", 2.0, "", "", "", "", "", 12.0, "WEEK 24", 168.0, "TREATMENT", "2014-06-18", 169.0]
["CDISCPILOT01", "QS", "01-701-1097", 5006.0, "ACITM06", "IDEATIONAL PRAXIS", "ADAS-COG", "", "5", "", "5", 5.0, "", "", "", "Y", "", 3.0, "BASELINE", 1.0, "TREATMENT", "2014-01-01", 1.0]
["CDISCPILOT01", "QS", "01-701-1097", 5021.0, "ACITM06", "IDEATIONAL PRAXIS", "ADAS-COG", "", "4", "", "4", 4.0, "", "", "", "", "", 8.0, "WEEK 8", 56.0, "TREATMENT", "2014-02-26", 57.0]
["CDISCPILOT01", "QS", "01-701-1097", 5036.0, "ACITM06", "IDEATIONAL PRAXIS", "ADAS-COG", "", "4", "", "4", 4.0, "", "", "", "", "", 10.0, "WEEK 16", 112.0, "TREATMENT", "2014-04-23", 113.0]
["CDISCPILOT01", "QS", "01-701-1097", 5051.0, "ACITM06", "IDEATIONAL PRAXIS", "ADAS-COG", "", "5", "", "5", 5.0, "", "", "", "", "", 12.0, "WEEK 24", 168.0, "TREATMENT", "2014-06-18", 169.0]
["CDISCPILOT01", "QS", "01-701-1097", 5007.0, "ACITM07", "ORIENTATION", "ADAS-COG", "", "7", "", "7", 7.0, "", "", "", "Y", "", 3.0, "BASELINE", 1.0, "TREATMENT", "2014-01-01", 1.0]
["CDISCPILOT01", "QS", "01-701-1097", 5022.0, "ACITM07", "ORIENTATION", "ADAS-COG", "", "7", "", "7", 7.0, "", "", "", "", "", 8.0, "WEEK 8", 56.0, "TREATMENT", "2014-02-26", 57.0]
["CDISCPILOT01", "QS", "01-701-1097", 5037.0, "ACITM07", "ORIENTATION", "ADAS-COG", "", "7", "", "7", 7.0, "", "", "", "", "", 10.0, "WEEK 16", 112.0, "TREATMENT", "2014-04-23", 113.0]
["CDISCPILOT01", "QS", "01-701-1097", 5052.0, "ACITM07", "ORIENTATION", "ADAS-COG", "", "7", "", "7", 7.0, "", "", "", "", "", 12.0, "WEEK 24", 168.0, "TREATMENT", "2014-06-18", 169.0]
["CDISCPILOT01", "QS", "01-701-1097", 5008.0, "ACITM08", "WORD RECOGNITION", "ADAS-COG", "", "", "", "", null, "", "NOT DONE", "REFUSED TO ANSWER", "Y", "", 3.0, "BASELINE", 1.0, "TREATMENT", "2014-01-01", 1.0]
["CDISCPILOT01", "QS", "01-701-1097", 5023.0, "ACITM08", "WORD RECOGNITION", "ADAS-COG", "", "12", "", "12", 12.0, "", "", "", "", "", 8.0, "WEEK 8", 56.0, "TREATMENT", "2014-02-26", 57.0]
["CDISCPILOT01", "QS", "01-701-1097", 5038.0, "ACITM08", "WORD RECOGNITION", "ADAS-COG", "", "10", "", "10", 10.0, "", "", "", "", "", 10.0, "WEEK 16", 112.0, "TREATMENT", "2014-04-23", 113.0]
["CDISCPILOT01", "QS", "01-701-1097", 5053.0, "ACITM08", "WORD RECOGNITION", "ADAS-COG", "", "9", "", "9", 9.0, "", "", "", "", "", 12.0, "WEEK 24", 168.0, "TREATMENT", "2014-06-18", 169.0]
["CDISCPILOT01", "QS", "01-701-1097", 5009.0, "ACITM09", "ATTENTION/VISUAL SEARCH TASK", "ADAS-COG", "", "0", "", "0", 0.0, "", "", "", "Y", "", 3.0, "BASELINE", 1.0, "TREATMENT", "2014-01-01", 1.0]
["CDISCPILOT01", "QS", "01-701-1097", 5024.0, "ACITM09", "ATTENTION/VISUAL SEARCH TASK", "ADAS-COG", "", "5", "", "5", 5.0, "", "", "", "", "", 8.0, "WEEK 8", 56.0, "TREATMENT", "2014-02-26", 57.0]
["CDISCPILOT01", "QS", "01-701-1097", 5039.0, "ACITM09", "ATTENTION/VISUAL SEARCH TASK", "ADAS-COG", "", "4", "", "4", 4.0, "", "", "", "", "", 10.0, "WEEK 16", 112.0, "TREATMENT", "2014-04-23", 113.0]
["CDISCPILOT01", "QS", "01-701-1097", 5054.0, "ACITM09", "ATTENTION/VISUAL SEARCH TASK", "ADAS-COG", "", "5", "", "5", 5.0, "", "", "", "", "", 12.0, "WEEK 24", 168.0, "TREATMENT", "2014-06-18", 169.0]
["CDISCPILOT01", "QS", "01-701-1097", 5010.0, "ACITM10", "MAZE SOLUTION", "ADAS-COG", "", "240", "sec", "240", 240.0, "sec", "", "", "Y", "", 3.0, "BASELINE", 1.0, "TREATMENT", "2014-01-01", 1.0]
["CDISCPILOT01", "QS", "01-701-1097", 5025.0, "ACITM10", "MAZE SOLUTION", "ADAS-COG", "", "240", "sec", "240", 240.0, "sec", "", "", "", "", 8.0, "WEEK 8", 56.0, "TREATMENT", "2014-02-26", 57.0]
["CDISCPILOT01", "QS", "01-701-1097", 5040.0, "ACITM10", "MAZE SOLUTION", "ADAS-COG", "", "41", "sec", "41", 41.0, "sec", "", "", "", "", 10.0, "WEEK 16", 112.0, "TREATMENT", "2014-04-23", 113.0]
["CDISCPILOT01", "QS", "01-701-1097", 5055.0, "ACITM10", "MAZE SOLUTION", "ADAS-COG", "", "11", "sec", "11", 11.0, "sec", "", "", "", "", 12.0, "WEEK 24", 168.0, "TREATMENT", "2014-06-18", 169.0]
["CDISCPILOT01", "QS", "01-701-1097", 5011.0, "ACITM11", "SPOKEN LANGUAGE ABILITY", "ADAS-COG", "", "3", "", "3", 3.0, "", "", "", "Y", "", 3.0, "BASELINE", 1.0, "TREATMENT", "2014-01-01", 1.0]
["CDISCPILOT01", "QS", "01-701-1097", 5026.0, "ACITM11", "SPOKEN LANGUAGE ABILITY", "ADAS-COG", "", "3", "", "3", 3.0, "", "", "", "", "", 8.0, "WEEK 8", 56.0, "TREATMENT", "2014-02-26", 57.0]
["CDISCPILOT01", "QS", "01-701-1097", 5041.0, "ACITM11", "SPOKEN LANGUAGE ABILITY", "ADAS-COG", "", "3", "", "3", 3.0, "", "", "", "", "", 10.0, "WEEK 16", 112.0, "TREATMENT", "2014-04-23", 113.0]
["CDISCPILOT01", "QS", "01-701-1097", 5056.0, "ACITM11", "SPOKEN LANGUAGE ABILITY", "ADAS-COG", "", "2", "", "2", 2.0, "", "", "", "", "", 12.0, "WEEK 24", 168.0, "TREATMENT", "2014-06-18", 169.0]
["CDISCPILOT01", "QS", "01-701-1097", 5012.0, "ACITM12", "COMPREHENSION OF SPOKEN LANGUAGE", "ADAS-COG", "", "3", "", "3", 3.0, "", "", "", "Y", "", 3.0, "BASELINE", 1.0, "TREATMENT", "2014-01-01", 1.0]
["CDISCPILOT01", "QS", "01-701-1097", 5027.0, "ACITM12", "COMPREHENSION OF SPOKEN LANGUAGE", "ADAS-COG", "", "2", "", "2", 2.0, "", "", "", "", "", 8.0, "WEEK 8", 56.0, "TREATMENT", "2014-02-26", 57.0]
["CDISCPILOT01", "QS", "01-701-1097", 5042.0, "ACITM12", "COMPREHENSION OF SPOKEN LANGUAGE", "ADAS-COG", "", "2", "", "2", 2.0, "", "", "", "", "", 10.0, "WEEK 16", 112.0, "TREATMENT", "2014-04-23", 113.0]
["CDISCPILOT01", "QS", "01-701-1097", 5057.0, "ACITM12", "COMPREHENSION OF SPOKEN LANGUAGE", "ADAS-COG", "", "3", "", "3", 3.0, "", "", "", "", "", 12.0, "WEEK 24", 168.0, "TREATMENT", "2014-06-18", 169.0]
["CDISCPILOT01", "QS", "01-701-1097", 5013.0, "ACITM13", "WORD FINDING DIFFICULTY IN SPONTANEOUS S", "ADAS-COG", "", "4", "", "4", 4.0, "", "", "", "Y", "", 3.0, "BASELINE", 1.0, "TREATMENT", "2014-01-01", 1.0]
["CDISCPILOT01", "QS", "01-701-1097", 5028.0, "ACITM13", "WORD FINDING DIFFICULTY IN SPONTANEOUS S", "ADAS-COG", "", "4", "", "4", 4.0, "", "", "", "", "", 8.0, "WEEK 8", 56.0, "TREATMENT", "2014-02-26", 57.0]
["CDISCPILOT01", "QS", "01-701-1097", 5043.0, "ACITM13", "WORD FINDING DIFFICULTY IN SPONTANEOUS S", "ADAS-COG", "", "2", "", "2", 2.0, "", "", "", "", "", 10.0, "WEEK 16", 112.0, "TREATMENT", "2014-04-23", 113.0]
["CDISCPILOT01", "QS", "01-701-1097", 5058.0, "ACITM13", "WORD FINDING DIFFICULTY IN SPONTANEOUS S", "ADAS-COG", "", "2", "", "2", 2.0, "", "", "", "", "", 12.0, "WEEK 24", 168.0, "TREATMENT", "2014-06-18", 169.0]
["CDISCPILOT01", "QS", "01-701-1097", 5014.0, "ACITM14", "RECALL OF TEST INSTRUCTIONS", "ADAS-COG", "", "3", "", "3", 3.0, "", "", "", "Y", "", 3.0, "BASELINE", 1.0, "TREATMENT", "2014-01-01", 1.0]
["CDISCPILOT01", "QS", "01-701-1097", 5029.0, "ACITM14", "RECALL OF TEST INSTRUCTIONS", "ADAS-COG", "", "4", "", "4", 4.0, "", "", "", "", "", 8.0, "WEEK 8", 56.0, "TREATMENT", "2014-02-26", 57.0]
["CDISCPILOT01", "QS", "01-701-1097", 5044.0, "ACITM14", "RECALL OF TEST INSTRUCTIONS", "ADAS-COG", "", "2", "", "2", 2.0, "", "", "", "", "", 10.0, "WEEK 16", 112.0, "TREATMENT", "2014-04-23", 113.0]
["CDISCPILOT01", "QS", "01-701-1097", 5059.0, "ACITM14", "RECALL OF TEST INSTRUCTIONS", "ADAS-COG", "", "4", "", "4", 4.0, "", "", "", "", "", 12.0, "WEEK 24", 168.0, "TREATMENT", "2014-06-18", 169.0]
["CDISCPILOT01", "QS", "01-701-1097", 5015.0, "ACTOT", "ADAS-COG(11) Subscore", "ADAS-COG", "", "", "", "56.7", 56.724137931034484, "", "", "", "Y", "Y", 3.0, "BASELINE", 1.0, "TREATMENT", "2014-01-01", 1.0]
["CDISCPILOT01", "QS", "01-701-1097", 5030.0, "ACTOT", "ADAS-COG(11) Subscore", "ADAS-COG", "", "", "", "54", 54.0, "", "", "", "", "Y", 8.0, "WEEK 8", 56.0, "TREATMENT", "2014-02-26", 57.0]
["CDISCPILOT01", "QS", "01-701-1097", 5045.0, "ACTOT", "ADAS-COG(11) Subscore", "ADAS-COG", "", "", "", "49", 49.0, "", "", "", "", "Y", 10.0, "WEEK 16", 112.0, "TREATMENT", "2014-04-23", 113.0]
["CDISCPILOT01", "QS", "01-701-1097", 5060.0, "ACTOT", "ADAS-COG(11) Subscore", "ADAS-COG", "", "", "", "51", 51.0, "", "", "", "", "Y", 12.0, "WEEK 24", 168.0, "TREATMENT", "2014-06-18", 169.0]
["CDISCPILOT01", "QS", "01-701-1111", 5001.0, "ACITM01", "WORD RECALL TASK", "ADAS-COG", "", "5", "", "5", 5.0, "", "", "", "Y", "", 3.0, "BASELINE", 1.0, "TREATMENT", "2012-09-07", 1.0]
["CDISCPILOT01", "QS", "01-701-1111", 5016.0, "ACITM01", "WORD RECALL TASK", "ADAS-COG", "", "4", "", "4", 4.0, "", "", "", "", "", 4.0, "WEEK 2", 14.0, "TREATMENT", "2012-09-17", 11.0]
["CDISCPILOT01", "QS", "01-701-1111", 5031.0, "ACITM01", "WORD RECALL TASK", "ADAS-COG", "", "5", "", "5", 5.0, "", "", "", "", "", 201.0, "RETRIEVAL", 168.0, "TREATMENT", "2013-02-22", 169.0]
["CDISCPILOT01", "QS", "01-701-1111", 5002.0, "ACITM02", "NAMING OBJECTS AND FINGERS (REFER TO 5 C", "ADAS-COG", "", "0", "", "0", 0.0, "", "", "", "Y", "", 3.0, "BASELINE", 1.0, "TREATMENT", "2012-09-07", 1.0]
["CDISCPILOT01", "QS", "01-701-1111", 5017.0, "ACITM02", "NAMING OBJECTS AND FINGERS (REFER TO 5 C", "ADAS-COG", "", "0", "", "0", 0.0, "", "", "", "", "", 4.0, "WEEK 2", 14.0, "TREATMENT", "2012-09-17", 11.0]
["CDISCPILOT01", "QS", "01-701-1111", 5032.0, "ACITM02", "NAMING OBJECTS AND FINGERS (REFER TO 5 C", "ADAS-COG", "", "0", "", "0", 0.0, "", "", "", "", "", 201.0, "RETRIEVAL", 168.0, "TREATMENT", "2013-02-22", 169.0]
["CDISCPILOT01", "QS", "01-701-1111", 5003.0, "ACITM03", "DELAYED WORD RECALL", "ADAS-COG", "", "6", "", "6", 6.0, "", "", "", "Y", "", 3.0, "BASELINE", 1.0, "TREATMENT", "2012-09-07", 1.0]
["CDISCPILOT01", "QS", "01-701-1111", 5018.0, "ACITM03", "DELAYED WORD RECALL", "ADAS-COG", "", "4", "", "4", 4.0, "", "", "", "", "", 4.0, "WEEK 2", 14.0, "TREATMENT", "2012-09-17", 11.0]
["CDISCPILOT01", "QS", "01-701-1111", 5033.0, "ACITM03", "DELAYED WORD RECALL", "ADAS-COG", "", "5", "", "5", 5.0, "", "", "", "", "", 201.0, "RETRIEVAL", 168.0, "TREATMENT", "2013-02-22", 169.0]
["CDISCPILOT01", "QS", "01-701-1111", 5004.0, "ACITM04", "COMMANDS", "ADAS-COG", "", "0", "", "0", 0.0, "", "", "", "Y", "", 3.0, "BASELINE", 1.0, "TREATMENT", "2012-09-07", 1.0]
["CDISCPILOT01", "QS", "01-701-1111", 5019.0, "ACITM04", "COMMANDS", "ADAS-COG", "", "0", "", "0", 0.0, "", "", "", "", "", 4.0, "WEEK 2", 14.0, "TREATMENT", "2012-09-17", 11.0]
["CDISCPILOT01", "QS", "01-701-1111", 5034.0, "ACITM04", "COMMANDS", "ADAS-COG", "", "0", "", "0", 0.0, "", "", "", "", "", 201.0, "RETRIEVAL", 168.0, "TREATMENT", "2013-02-22", 169.0]
["CDISCPILOT01", "QS", "01-701-1111", 5005.0, "ACITM05", "CONSTRUCTIONAL PRAXIS", "ADAS-COG", "", "0", "", "0", 0.0, "", "", "", "Y", "", 3.0, "BASELINE", 1.0, "TREATMENT", "2012-09-07", 1.0]
["CDISCPILOT01", "QS", "01-701-1111", 5020.0, "ACITM05", "CONSTRUCTIONAL PRAXIS", "ADAS-COG", "", "0", "", "0", 0.0, "", "", "", "", "", 4.0, "WEEK 2", 14.0, "TREATMENT", "2012-09-17", 11.0]
["CDISCPILOT01", "QS", "01-701-1111", 5035.0, "ACITM05", "CONSTRUCTIONAL PRAXIS", "ADAS-COG", "", "0", "", "0", 0.0, "", "", "", "", "", 201.0, "RETRIEVAL", 168.0, "TREATMENT", "2013-02-22", 169.0]
["CDISCPILOT01", "QS", "01-701-1111", 5006.0, "ACITM06", "IDEATIONAL PRAXIS", "ADAS-COG", "", "1", "", "1", 1.0, "", "", "", "Y", "", 3.0, "BASELINE", 1.0, "TREATMENT", "2012-09-07", 1.0]
["CDISCPILOT01", "QS", "01-701-1111", 5021.0, "ACITM06", "IDEATIONAL PRAXIS", "ADAS-COG", "", "0", "", "0", 0.0, "", "", "", "", "", 4.0, "WEEK 2", 14.0, "TREATMENT", "2012-09-17", 11.0]
["CDISCPILOT01", "QS", "01-701-1111", 5036.0, "ACITM06", "IDEATIONAL PRAXIS", "ADAS-COG", "", "0", "", "0", 0.0, "", "", "", "", "", 201.0, "RETRIEVAL", 168.0, "TREATMENT", "2013-02-22", 169.0]
["CDISCPILOT01", "QS", "01-701-1111", 5007.0, "ACITM07", "ORIENTATION", "ADAS-COG", "", "0", "", "0", 0.0, "", "", "", "Y", "", 3.0, "BASELINE", 1.0, "TREATMENT", "2012-09-07", 1.0]
["CDISCPILOT01", "QS", "01-701-1111", 5022.0, "ACITM07", "ORIENTATION", "ADAS-COG", "", "0", "", "0", 0.0, "", "", "", "", "", 4.0, "WEEK 2", 14.0, "TREATMENT", "2012-09-17", 11.0]
["CDISCPILOT01", "QS", "01-701-1111", 5037.0, "ACITM07", "ORIENTATION", "ADAS-COG", "", "1", "", "1", 1.0, "", "", "", "", "", 201.0, "RETRIEVAL", 168.0, "TREATMENT", "2013-02-22", 169.0]
["CDISCPILOT01", "QS", "01-701-1111", 5008.0, "ACITM08", "WORD RECOGNITION", "ADAS-COG", "", "1", "", "1", 1.0, "", "", "", "Y", "", 3.0, "BASELINE", 1.0, "TREATMENT", "2012-09-07", 1.0]
["CDISCPILOT01", "QS", "01-701-1111", 5023.0, "ACITM08", "WORD RECOGNITION", "ADAS-COG", "", "1", "", "1", 1.0, "", "", "", "", "", 4.0, "WEEK 2", 14.0, "TREATMENT", "2012-09-17", 11.0]
["CDISCPILOT01", "QS", "01-701-1111", 5038.0, "ACITM08", "WORD RECOGNITION", "ADAS-COG", "", "3", "", "3", 3.0, "", "", "", "", "", 201.0, "RETRIEVAL", 168.0, "TREATMENT", "2013-02-22", 169.0]
["CDISCPILOT01", "QS", "01-701-1111", 5009.0, "ACITM09", "ATTENTION/VISUAL SEARCH TASK", "ADAS-COG", "", "31", "", "31", 31.0, "", "", "", "Y", "", 3.0, "BASELINE", 1.0, "TREATMENT", "2012-09-07", 1.0]
["CDISCPILOT01", "QS", "01-701-1111", 5024.0, "ACITM09", "ATTENTION/VISUAL SEARCH TASK", "ADAS-COG", "", "24", "", "24", 24.0, "", "", "", "", "", 4.0, "WEEK 2", 14.0, "TREATMENT", "2012-09-17", 11.0]
["CDISCPILOT01", "QS", "01-701-1111", 5039.0, "ACITM09", "ATTENTION/VISUAL SEARCH TASK", "ADAS-COG", "", "31", "", "31", 31.0, "", "", "", "", "", 201.0, "RETRIEVAL", 168.0, "TREATMENT", "2013-02-22", 169.0]
["CDISCPILOT01", "QS", "01-701-1111", 5010.0, "ACITM10", "MAZE SOLUTION", "ADAS-COG", "", "3", "sec", "3", 3.0, "sec", "", "", "Y", "", 3.0, "BASELINE", 1.0, "TREATMENT", "2012-09-07", 1.0]
["CDISCPILOT01", "QS", "01-701-1111", 5025.0, "ACITM10", "MAZE SOLUTION", "ADAS-COG", "", "7", "sec", "7", 7.0, "sec", "", "", "", "", 4.0, "WEEK 2", 14.0, "TREATMENT", "2012-09-17", 11.0]
["CDISCPILOT01", "QS", "01-701-1111", 5040.0, "ACITM10", "MAZE SOLUTION", "ADAS-COG", "", "7", "sec", "7", 7.0, "sec", "", "", "", "", 201.0, "RETRIEVAL", 168.0, "TREATMENT", "2013-02-22", 169.0]
["CDISCPILOT01", "QS", "01-701-1111", 5011.0, "ACITM11", "SPOKEN LANGUAGE ABILITY", "ADAS-COG", "", "0", "", "0", 0.0, "", "", "", "Y", "", 3.0, "BASELINE", 1.0, "TREATMENT", "2012-09-07", 1.0]
["CDISCPILOT01", "QS", "01-701-1111", 5026.0, "ACITM11", "SPOKEN LANGUAGE ABILITY", "ADAS-COG", "", "0", "", "0", 0.0, "", "", "", "", "", 4.0, "WEEK 2", 14.0, "TREATMENT", "2012-09-17", 11.0]
["CDISCPILOT01", "QS", "01-701-1111", 5041.0, "ACITM11", "SPOKEN LANGUAGE ABILITY", "ADAS-COG", "", "0", "", "0", 0.0, "", "", "", "", "", 201.0, "RETRIEVAL", 168.0, "TREATMENT", "2013-02-22", 169.0]
["CDISCPILOT01", "QS", "01-701-1111", 5012.0, "ACITM12", "COMPREHENSION OF SPOKEN LANGUAGE", "ADAS-COG", "", "0", "", "0", 0.0, "", "", "", "Y", "", 3.0, "BASELINE", 1.0, "TREATMENT", "2012-09-07", 1.0]
["CDISCPILOT01", "QS", "01-701-1111", 5027.0, "ACITM12", "COMPREHENSION OF SPOKEN LANGUAGE", "ADAS-COG", "", "0", "", "0", 0.0, "", "", "", "", "", 4.0, "WEEK 2", 14.0, "TREATMENT", "2012-09-17", 11.0]
["CDISCPILOT01", "QS", "01-701-1111", 5042.0, "ACITM12", "COMPREHENSION OF SPOKEN LANGUAGE", "ADAS-COG", "", "0", "", "0", 0.0, "", "", "", "", "", 201.0, "RETRIEVAL", 168.0, "TREATMENT", "2013-02-22", 169.0]
["CDISCPILOT01", "QS", "01-701-1111", 5013.0, "ACITM13", "WORD FINDING DIFFICULTY IN SPONTANEOUS S", "ADAS-COG", "", "0", "", "0", 0.0, "", "", "", "Y", "", 3.0, "BASELINE", 1.0, "TREATMENT", "2012-09-07", 1.0]
["CDISCPILOT01", "QS", "01-701-1111", 5028.0, "ACITM13", "WORD FINDING DIFFICULTY IN SPONTANEOUS S", "ADAS-COG", "", "0", "", "0", 0.0, "", "", "", "", "", 4.0, "WEEK 2", 14.0, "TREATMENT", "2012-09-17", 11.0]
["CDISCPILOT01", "QS", "01-701-1111", 5043.0, "ACITM13", "WORD FINDING DIFFICULTY IN SPONTANEOUS S", "ADAS-COG", "", "0", "", "0", 0.0, "", "", "", "", "", 201.0, "RETRIEVAL", 168.0, "TREATMENT", "2013-02-22", 169.0]
["CDISCPILOT01", "QS", "01-701-1111", 5014.0, "ACITM14", "RECALL OF TEST INSTRUCTIONS", "ADAS-COG", "", "0", "", "0", 0.0, "", "", "", "Y", "", 3.0, "BASELINE", 1.0, "TREATMENT", "2012-09-07", 1.0]
["CDISCPILOT01", "QS", "01-701-1111", 5029.0, "ACITM14", "RECALL OF TEST INSTRUCTIONS", "ADAS-COG", "", "0", "", "0", 0.0, "", "", "", "", "", 4.0, "WEEK 2", 14.0, "TREATMENT", "2012-09-17", 11.0]
["CDISCPILOT01", "QS", "01-701-1111", 5044.0, "ACITM14", "RECALL OF TEST INSTRUCTIONS", "ADAS-COG", "", "0", "", "0", 0.0, "", "", "", "", "", 201.0, "RETRIEVAL", 168.0, "TREATMENT", "2013-02-22", 169.0]
["CDISCPILOT01", "QS", "01-701-1111", 5015.0, "ACTOT", "ADAS-COG(11) Subscore", "ADAS-COG", "", "", "", "7", 7.0, "", "", "", "Y", "Y", 3.0, "BASELINE", 1.0, "TREATMENT", "2012-09-07", 1.0]
["CDISCPILOT01", "QS", "01-701-1111", 5030.0, "ACTOT", "ADAS-COG(11) Subscore", "ADAS-COG", "", "", "", "5", 5.0, "", "", "", "", "Y", 4.0, "WEEK 2", 14.0, "TREATMENT", "2012-09-17", 11.0]
["CDISCPILOT01", "QS", "01-701-1111", 5045.0, "ACTOT", "ADAS-COG(11) Subscore", "ADAS-COG", "", "", "", "9", 9.0, "", "", "", "", "Y", 201.0, "RETRIEVAL", 168.0, "TREATMENT", "2013-02-22", 169.0]
["CDISCPILOT01", "QS", "01-701-1115", 5001.0, "ACITM01", "WORD RECALL TASK", "ADAS-COG", "", "6", "", "6", 6.0, "", "", "", "Y", "", 3.0, "BASELINE", 1.0, "TREATMENT", "2012-11-30", 1.0]
["CDISCPILOT01", "QS", "01-701-1115", 5016.0, "ACITM01", "WORD RECALL TASK", "ADAS-COG", "", "6", "", "6", 6.0, "", "", "", "", "", 8.0, "WEEK 8", 56.0, "TREATMENT", "2013-01-23", 55.0]
["CDISCPILOT01", "QS", "01-701-1115", 5031.0, "ACITM01", "WORD RECALL TASK", "ADAS-COG", "", "6", "", "6", 6.0, "", "", "", "", "", 201.0, "RETRIEVAL", 168.0, "TREATMENT", "2013-05-20", 172.0]
["CDISCPILOT01", "QS", "01-701-1115", 5002.0, "ACITM02", "NAMING OBJECTS AND FINGERS (REFER TO 5 C", "ADAS-COG", "", "0", "", "0", 0.0, "", "", "", "Y", "", 3.0, "BASELINE", 1.0, "TREATMENT", "2012-11-30", 1.0]
["CDISCPILOT01", "QS", "01-701-1115", 5017.0, "ACITM02", "NAMING OBJECTS AND FINGERS (REFER TO 5 C", "ADAS-COG", "", "1", "", "1", 1.0, "", "", "", "", "", 8.0, "WEEK 8", 56.0, "TREATMENT", "2013-01-23", 55.0]
["CDISCPILOT01", "QS", "01-701-1115", 5032.0, "ACITM02", "NAMING OBJECTS AND FINGERS (REFER TO 5 C", "ADAS-COG", "", "0", "", "0", 0.0, "", "", "", "", "", 201.0, "RETRIEVAL", 168.0, "TREATMENT", "2013-05-20", 172.0]
["CDISCPILOT01", "QS", "01-701-1115", 5003.0, "ACITM03", "DELAYED WORD RECALL", "ADAS-COG", "", "6", "", "6", 6.0, "", "", "", "Y", "", 3.0, "BASELINE", 1.0, "TREATMENT", "2012-11-30", 1.0]
["CDISCPILOT01", "QS", "01-701-1115", 5018.0, "ACITM03", "DELAYED WORD RECALL", "ADAS-COG", "", "6", "", "6", 6.0, "", "", "", "", "", 8.0, "WEEK 8", 56.0, "TREATMENT", "2013-01-23", 55.0]
["CDISCPILOT01", "QS", "01-701-1115", 5033.0, "ACITM03", "DELAYED WORD RECALL", "ADAS-COG", "", "7", "", "7", 7.0, "", "", "", "", "", 201.0, "RETRIEVAL", 168.0, "TREATMENT", "2013-05-20", 172.0]
["CDISCPILOT01", "QS", "01-701-1115", 5004.0, "ACITM04", "COMMANDS", "ADAS-COG", "", "0", "", "0", 0.0, "", "", "", "Y", "", 3.0, "BASELINE", 1.0, "TREATMENT", "2012-11-30", 1.0]
["CDISCPILOT01", "QS", "01-701-1115", 5019.0, "ACITM04", "COMMANDS", "ADAS-COG", "", "0", "", "0", 0.0, "", "", "", "", "", 8.0, "WEEK 8", 56.0, "TREATMENT", "2013-01-23", 55.0]
["CDISCPILOT01", "QS", "01-701-1115", 5034.0, "ACITM04", "COMMANDS", "ADAS-COG", "", "0", "", "0", 0.0, "", "", "", "", "", 201.0, "RETRIEVAL", 168.0, "TREATMENT", "2013-05-20", 172.0]
["CDISCPILOT01", "QS", "01-701-1115", 5005.0, "ACITM05", "CONSTRUCTIONAL PRAXIS", "ADAS-COG", "", "1", "", "1", 1.0, "", "", "", "Y", "", 3.0, "BASELINE", 1.0, "TREATMENT", "2012-11-30", 1.0]
["CDISCPILOT01", "QS", "01-701-1115", 5020.0, "ACITM05", "CONSTRUCTIONAL PRAXIS", "ADAS-COG", "", "1", "", "1", 1.0, "", "", "", "", "", 8.0, "WEEK 8", 56.0, "TREATMENT", "2013-01-23", 55.0]
["CDISCPILOT01", "QS", "01-701-1115", 5035.0, "ACITM05", "CONSTRUCTIONAL PRAXIS", "ADAS-COG", "", "1", "", "1", 1.0, "", "", "", "", "", 201.0, "RETRIEVAL", 168.0, "TREATMENT", "2013-05-20", 172.0]
["CDISCPILOT01", "QS", "01-701-1115", 5006.0, "ACITM06", "IDEATIONAL PRAXIS", "ADAS-COG", "", "1", "", "1", 1.0, "", "", "", "Y", "", 3.0, "BASELINE", 1.0, "TREATMENT", "2012-11-30", 1.0]
["CDISCPILOT01", "QS", "01-701-1115", 5021.0, "ACITM06", "IDEATIONAL PRAXIS", "ADAS-COG", "", "0", "", "0", 0.0, "", "", "", "", "", 8.0, "WEEK 8", 56.0, "TREATMENT", "2013-01-23", 55.0]
["CDISCPILOT01", "QS", "01-701-1115", 5036.0, "ACITM06", "IDEATIONAL PRAXIS", "ADAS-COG", "", "0", "", "0", 0.0, "", "", "", "", "", 201.0, "RETRIEVAL", 168.0, "TREATMENT", "2013-05-20", 172.0]
["CDISCPILOT01", "QS", "01-701-1115", 5007.0, "ACITM07", "ORIENTATION", "ADAS-COG", "", "1", "", "1", 1.0, "", "", "", "Y", "", 3.0, "BASELINE", 1.0, "TREATMENT", "2012-11-30", 1.0]
["CDISCPILOT01", "QS", "01-701-1115", 5022.0, "ACITM07", "ORIENTATION", "ADAS-COG", "", "1", "", "1", 1.0, "", "", "", "", "", 8.0, "WEEK 8", 56.0, "TREATMENT", "2013-01-23", 55.0]
["CDISCPILOT01", "QS", "01-701-1115", 5037.0, "ACITM07", "ORIENTATION", "ADAS-COG", "", "2", "", "2", 2.0, "", "", "", "", "", 201.0, "RETRIEVAL", 168.0, "TREATMENT", "2013-05-20", 172.0]
["CDISCPILOT01", "QS", "01-701-1115", 5008.0, "ACITM08", "WORD RECOGNITION", "ADAS-COG", "", "1", "", "1", 1.0, "", "", "", "Y", "", 3.0, "BASELINE", 1.0, "TREATMENT", "2012-11-30", 1.0]
["CDISCPILOT01", "QS", "01-701-1115", 5023.0, "ACITM08", "WORD RECOGNITION", "ADAS-COG", "", "5", "", "5", 5.0, "", "", "", "", "", 8.0, "WEEK 8", 56.0, "TREATMENT", "2013-01-23", 55.0]
["CDISCPILOT01", "QS", "01-701-1115", 5038.0, "ACITM08", "WORD RECOGNITION", "ADAS-COG", "", "1", "", "1", 1.0, "", "", "", "", "", 201.0, "RETRIEVAL", 168.0, "TREATMENT", "2013-05-20", 172.0]
["CDISCPILOT01", "QS", "01-701-1115", 5009.0, "ACITM09", "ATTENTION/VISUAL SEARCH TASK", "ADAS-COG", "", "26", "", "26", 26.0, "", "", "", "Y", "", 3.0, "BASELINE", 1.0, "TREATMENT", "2012-11-30", 1.0]
["CDISCPILOT01", "QS", "01-701-1115", 5024.0, "ACITM09", "ATTENTION/VISUAL SEARCH TASK", "ADAS-COG", "", "23", "", "23", 23.0, "", "", "", "", "", 8.0, "WEEK 8", 56.0, "TREATMENT", "2013-01-23", 55.0]
["CDISCPILOT01", "QS", "01-701-1115", 5039.0, "ACITM09", "ATTENTION/VISUAL SEARCH TASK", "ADAS-COG", "", "24", "", "24", 24.0, "", "", "", "", "", 201.0, "RETRIEVAL", 168.0, "TREATMENT", "2013-05-20", 172.0]
["CDISCPILOT01", "QS", "01-701-1115", 5010.0, "ACITM10", "MAZE SOLUTION", "ADAS-COG", "", "3", "sec", "3", 3.0, "sec", "", "", "Y", "", 3.0, "BASELINE", 1.0, "TREATMENT", "2012-11-30", 1.0]
["CDISCPILOT01", "QS", "01-701-1115", 5025.0, "ACITM10", "MAZE SOLUTION", "ADAS-COG", "", "6", "sec", "6", 6.0, "sec", "", "", "", "", 8.0, "WEEK 8", 56.0, "TREATMENT", "2013-01-23", 55.0]
["CDISCPILOT01", "QS", "01-701-1115", 5040.0, "ACITM10", "MAZE SOLUTION", "ADAS-COG", "", "7", "sec", "7", 7.0, "sec", "", "", "", "", 201.0, "RETRIEVAL", 168.0, "TREATMENT", "2013-05-20", 172.0]
["CDISCPILOT01", "QS", "01-701-1115", 5011.0, "ACITM11", "SPOKEN LANGUAGE ABILITY", "ADAS-COG", "", "0", "", "0", 0.0, "", "", "", "Y", "", 3.0, "BASELINE", 1.0, "TREATMENT", "2012-11-30", 1.0]
["CDISCPILOT01", "QS", "01-701-1115", 5026.0, "ACITM11", "SPOKEN LANGUAGE ABILITY", "ADAS-COG", "", "0", "", "0", 0.0, "", "", "", "", "", 8.0, "WEEK 8", 56.0, "TREATMENT", "2013-01-23", 55.0]
["CDISCPILOT01", "QS", "01-701-1115", 5041.0, "ACITM11", "SPOKEN LANGUAGE ABILITY", "ADAS-COG", "", "0", "", "0", 0.0, "", "", "", "", "", 201.0, "RETRIEVAL", 168.0, "TREATMENT", "2013-05-20", 172.0]
["CDISCPILOT01", "QS", "01-701-1115", 5012.0, "ACITM12", "COMPREHENSION OF SPOKEN LANGUAGE", "ADAS-COG", "", "0", "", "0", 0.0, "", "", "", "Y", "", 3.0, "BASELINE", 1.0, "TREATMENT", "2012-11-30", 1.0]
["CDISCPILOT01", "QS", "01-701-1115", 5027.0, "ACITM12", "COMPREHENSION OF SPOKEN LANGUAGE", "ADAS-COG", "", "0", "", "0", 0.0, "", "", "", "", "", 8.0, "WEEK 8", 56.0, "TREATMENT", "2013-01-23", 55.0]
["CDISCPILOT01", "QS", "01-701-1115", 5042.0, "ACITM12", "COMPREHENSION OF SPOKEN LANGUAGE", "ADAS-COG", "", "0", "", "0", 0.0, "", "", "", "", "", 201.0, "RETRIEVAL", 168.0, "TREATMENT", "2013-05-20", 172.0]
["CDISCPILOT01", "QS", "01-701-1115", 5013.0, "ACITM13", "WORD FINDING DIFFICULTY IN SPONTANEOUS S", "ADAS-COG", "", "0", "", "0", 0.0, "", "", "", "Y", "", 3.0, "BASELINE", 1.0, "TREATMENT", "2012-11-30", 1.0]
["CDISCPILOT01", "QS", "01-701-1115", 5028.0, "ACITM13", "WORD FINDING DIFFICULTY IN SPONTANEOUS S", "ADAS-COG", "", "0", "", "0", 0.0, "", "", "", "", "", 8.0, "WEEK 8", 56.0, "TREATMENT", "2013-01-23", 55.0]
["CDISCPILOT01", "QS", "01-701-1115", 5043.0, "ACITM13", "WORD FINDING DIFFICULTY IN SPONTANEOUS S", "ADAS-COG", "", "0", "", "0", 0.0, "", "", "", "", "", 201.0, "RETRIEVAL", 168.0, "TREATMENT", "2013-05-20", 172.0]
["CDISCPILOT01", "QS", "01-701-1115", 5014.0, "ACITM14", "RECALL OF TEST INSTRUCTIONS", "ADAS-COG", "", "0", "", "0", 0.0, "", "", "", "Y", "", 3.0, "BASELINE", 1.0, "TREATMENT", "2012-11-30", 1.0]
["CDISCPILOT01", "QS", "01-701-1115", 5029.0, "ACITM14", "RECALL OF TEST INSTRUCTIONS", "ADAS-COG", "", "0", "", "0", 0.0, "", "", "", "", "", 8.0, "WEEK 8", 56.0, "TREATMENT", "2013-01-23", 55.0]
["CDISCPILOT01", "QS", "01-701-1115", 5044.0, "ACITM14", "RECALL OF TEST INSTRUCTIONS", "ADAS-COG", "", "0", "", "0", 0.0, "", "", "", "", "", 201.0, "RETRIEVAL", 168.0, "TREATMENT", "2013-05-20", 172.0]
["CDISCPILOT01", "QS", "01-701-1115", 5015.0, "ACTOT", "ADAS-COG(11) Subscore", "ADAS-COG", "", "", "", "10", 10.0, "", "", "", "Y", "Y", 3.0, "BASELINE", 1.0, "TREATMENT", "2012-11-30", 1.0]
["CDISCPILOT01", "QS", "01-701-1115", 5030.0, "ACTOT", "ADAS-COG(11) Subscore", "ADAS-COG", "", "", "", "14", 14.0, "", "", "", "", "Y", 8.0, "WEEK 8", 56.0, "TREATMENT", "2013-01-23", 55.0]
["CDISCPILOT01", "QS", "01-701-1115", 5045.0, "ACTOT", "ADAS-COG(11) Subscore", "ADAS-COG", "", "", "", "10", 10.0, "", "", "", "", "Y", 201.0, "RETRIEVAL", 168.0, "TREATMENT", "2013-05-20", 172.0]
["CDISCPILOT01", "QS", "01-701-1118", 5001.0, "ACITM01", "WORD RECALL TASK", "ADAS-COG", "", "5", "", "5", 5.0, "", "", "", "Y", "", 3.0, "BASELINE", 1.0, "TREATMENT", "2014-03-12", 1.0]
["CDISCPILOT01", "QS", "01-701-1118", 5016.0, "ACITM01", "WORD RECALL TASK", "ADAS-COG", "", "5", "", "5", 5.0, "", "", "", "", "", 8.0, "WEEK 8", 56.0, "TREATMENT", "2014-05-08", 58.0]
["CDISCPILOT01", "QS", "01-701-1118", 5031.0, "ACITM01", "WORD RECALL TASK", "ADAS-COG", "", "4", "", "4", 4.0, "", "", "", "", "", 10.0, "WEEK 16", 112.0, "TREATMENT", "2014-07-02", 113.0]
["CDISCPILOT01", "QS", "01-701-1118", 5046.0, "ACITM01", "WORD RECALL TASK", "ADAS-COG", "", "5", "", "5", 5.0, "", "", "", "", "", 12.0, "WEEK 24", 168.0, "TREATMENT", "2014-08-27", 169.0]
["CDISCPILOT01", "QS", "01-701-1118", 5002.0, "ACITM02", "NAMING OBJECTS AND FINGERS (REFER TO 5 C", "ADAS-COG", "", "1", "", "1", 1.0, "", "", "", "Y", "", 3.0, "BASELINE", 1.0, "TREATMENT", "2014-03-12", 1.0]
["CDISCPILOT01", "QS", "01-701-1118", 5017.0, "ACITM02", "NAMING OBJECTS AND FINGERS (REFER TO 5 C", "ADAS-COG", "", "0", "", "0", 0.0, "", "", "", "", "", 8.0, "WEEK 8", 56.0, "TREATMENT", "2014-05-08", 58.0]
["CDISCPILOT01", "QS", "01-701-1118", 5032.0, "ACITM02", "NAMING OBJECTS AND FINGERS (REFER TO 5 C", "ADAS-COG", "", "0", "", "0", 0.0, "", "", "", "", "", 10.0, "WEEK 16", 112.0, "TREATMENT", "2014-07-02", 113.0]
["CDISCPILOT01", "QS", "01-701-1118", 5047.0, "ACITM02", "NAMING OBJECTS AND FINGERS (REFER TO 5 C", "ADAS-COG", "", "0", "", "0", 0.0, "", "", "", "", "", 12.0, "WEEK 24", 168.0, "TREATMENT", "2014-08-27", 169.0]
["CDISCPILOT01", "QS", "01-701-1118", 5003.0, "ACITM03", "DELAYED WORD RECALL", "ADAS-COG", "", "10", "", "10", 10.0, "", "", "", "Y", "", 3.0, "BASELINE", 1.0, "TREATMENT", "2014-03-12", 1.0]
["CDISCPILOT01", "QS", "01-701-1118", 5018.0, "ACITM03", "DELAYED WORD RECALL", "ADAS-COG", "", "7", "", "7", 7.0, "", "", "", "", "", 8.0, "WEEK 8", 56.0, "TREATMENT", "2014-05-08", 58.0]
["CDISCPILOT01", "QS", "01-701-1118", 5033.0, "ACITM03", "DELAYED WORD RECALL", "ADAS-COG", "", "6", "", "6", 6.0, "", "", "", "", "", 10.0, "WEEK 16", 112.0, "TREATMENT", "2014-07-02", 113.0]
["CDISCPILOT01", "QS", "01-701-1118", 5048.0, "ACITM03", "DELAYED WORD RECALL", "ADAS-COG", "", "8", "", "8", 8.0, "", "", "", "", "", 12.0, "WEEK 24", 168.0, "TREATMENT", "2014-08-27", 169.0]
["CDISCPILOT01", "QS", "01-701-1118", 5004.0, "ACITM04", "COMMANDS", "ADAS-COG", "", "0", "", "0", 0.0, "", "", "", "Y", "", 3.0, "BASELINE", 1.0, "TREATMENT", "2014-03-12", 1.0]
["CDISCPILOT01", "QS", "01-701-1118", 5019.0, "ACITM04", "COMMANDS", "ADAS-COG", "", "0", "", "0", 0.0, "", "", "", "", "", 8.0, "WEEK 8", 56.0, "TREATMENT", "2014-05-08", 58.0]
["CDISCPILOT01", "QS", "01-701-1118", 5034.0, "ACITM04", "COMMANDS", "ADAS-COG", "", "0", "", "0", 0.0, "", "", "", "", "", 10.0, "WEEK 16", 112.0, "TREATMENT", "2014-07-02", 113.0]
["CDISCPILOT01", "QS", "01-701-1118", 5049.0, "ACITM04", "COMMANDS", "ADAS-COG", "", "0", "", "0", 0.0, "", "", "", "", "", 12.0, "WEEK 24", 168.0, "TREATMENT", "2014-08-27", 169.0]
["CDISCPILOT01", "QS", "01-701-1118", 5005.0, "ACITM05", "CONSTRUCTIONAL PRAXIS", "ADAS-COG", "", "3", "", "3", 3.0, "", "", "", "Y", "", 3.0, "BASELINE", 1.0, "TREATMENT", "2014-03-12", 1.0]
["CDISCPILOT01", "QS", "01-701-1118", 5020.0, "ACITM05", "CONSTRUCTIONAL PRAXIS", "ADAS-COG", "", "3", "", "3", 3.0, "", "", "", "", "", 8.0, "WEEK 8", 56.0, "TREATMENT", "2014-05-08", 58.0]
["CDISCPILOT01", "QS", "01-701-1118", 5035.0, "ACITM05", "CONSTRUCTIONAL PRAXIS", "ADAS-COG", "", "2", "", "2", 2.0, "", "", "", "", "", 10.0, "WEEK 16", 112.0, "TREATMENT", "2014-07-02", 113.0]
["CDISCPILOT01", "QS", "01-701-1118", 5050.0, "ACITM05", "CONSTRUCTIONAL PRAXIS", "ADAS-COG", "", "2", "", "2", 2.0, "", "", "", "", "", 12.0, "WEEK 24", 168.0, "TREATMENT", "2014-08-27", 169.0]
["CDISCPILOT01", "QS", "01-701-1118", 5006.0, "ACITM06", "IDEATIONAL PRAXIS", "ADAS-COG", "", "1", "", "1", 1.0, "", "", "", "Y", "", 3.0, "BASELINE", 1.0, "TREATMENT", "2014-03-12", 1.0]
["CDISCPILOT01", "QS", "01-701-1118", 5021.0, "ACITM06", "IDEATIONAL PRAXIS", "ADAS-COG", "", "0", "", "0", 0.0, "", "", "", "", "", 8.0, "WEEK 8", 56.0, "TREATMENT", "2014-05-08", 58.0]
["CDISCPILOT01", "QS", "01-701-1118", 5036.0, "ACITM06", "IDEATIONAL PRAXIS", "ADAS-COG", "", "0", "", "0", 0.0, "", "", "", "", "", 10.0, "WEEK 16", 112.0, "TREATMENT", "2014-07-02", 113.0]
["CDISCPILOT01", "QS", "01-701-1118", 5051.0, "ACITM06", "IDEATIONAL PRAXIS", "ADAS-COG", "", "0", "", "0", 0.0, "", "", "", "", "", 12.0, "WEEK 24", 168.0, "TREATMENT", "2014-08-27", 169.0]
["CDISCPILOT01", "QS", "01-701-1118", 5007.0, "ACITM07", "ORIENTATION", "ADAS-COG", "", "4", "", "4", 4.0, "", "", "", "Y", "", 3.0, "BASELINE", 1.0, "TREATMENT", "2014-03-12", 1.0]
["CDISCPILOT01", "QS", "01-701-1118", 5022.0, "ACITM07", "ORIENTATION", "ADAS-COG", "", "1", "", "1", 1.0, "", "", "", "", "", 8.0, "WEEK 8", 56.0, "TREATMENT", "2014-05-08", 58.0]
["CDISCPILOT01", "QS", "01-701-1118", 5037.0, "ACITM07", "ORIENTATION", "ADAS-COG", "", "1", "", "1", 1.0, "", "", "", "", "", 10.0, "WEEK 16", 112.0, "TREATMENT", "2014-07-02", 113.0]
["CDISCPILOT01", "QS", "01-701-1118", 5052.0, "ACITM07", "ORIENTATION", "ADAS-COG", "", "1", "", "1", 1.0, "", "", "", "", "", 12.0, "WEEK 24", 168.0, "TREATMENT", "2014-08-27", 169.0]
["CDISCPILOT01", "QS", "01-701-1118", 5008.0, "ACITM08", "WORD RECOGNITION", "ADAS-COG", "", "10", "", "10", 10.0, "", "", "", "Y", "", 3.0, "BASELINE", 1.0, "TREATMENT", "2014-03-12", 1.0]
["CDISCPILOT01", "QS", "01-701-1118", 5023.0, "ACITM08", "WORD RECOGNITION", "ADAS-COG", "", "10", "", "10", 10.0, "", "", "", "", "", 8.0, "WEEK 8", 56.0, "TREATMENT", "2014-05-08", 58.0]
["CDISCPILOT01", "QS", "01-701-1118", 5038.0, "ACITM08", "WORD RECOGNITION", "ADAS-COG", "", "10", "", "10", 10.0, "", "", "", "", "", 10.0, "WEEK 16", 112.0, "TREATMENT", "2014-07-02", 113.0]
["CDISCPILOT01", "QS", "01-701-1118", 5053.0, "ACITM08", "WORD RECOGNITION", "ADAS-COG", "", "7", "", "7", 7.0, "", "", "", "", "", 12.0, "WEEK 24", 168.0, "TREATMENT", "2014-08-27", 169.0]
["CDISCPILOT01", "QS", "01-701-1118", 5009.0, "ACITM09", "ATTENTION/VISUAL SEARCH TASK", "ADAS-COG", "", "12", "", "12", 12.0, "", "", "", "Y", "", 3.0, "BASELINE", 1.0, "TREATMENT", "2014-03-12", 1.0]
["CDISCPILOT01", "QS", "01-701-1118", 5024.0, "ACITM09", "ATTENTION/VISUAL SEARCH TASK", "ADAS-COG", "", "10", "", "10", 10.0, "", "", "", "", "", 8.0, "WEEK 8", 56.0, "TREATMENT", "2014-05-08", 58.0]
["CDISCPILOT01", "QS", "01-701-1118", 5039.0, "ACITM09", "ATTENTION/VISUAL SEARCH TASK", "ADAS-COG", "", "11", "", "11", 11.0, "", "", "", "", "", 10.0, "WEEK 16", 112.0, "TREATMENT", "2014-07-02", 113.0]
["CDISCPILOT01", "QS", "01-701-1118", 5054.0, "ACITM09", "ATTENTION/VISUAL SEARCH TASK", "ADAS-COG", "", "18", "", "18", 18.0, "", "", "", "", "", 12.0, "WEEK 24", 168.0, "TREATMENT", "2014-08-27", 169.0]
["CDISCPILOT01", "QS", "01-701-1118", 5010.0, "ACITM10", "MAZE SOLUTION", "ADAS-COG", "", "6", "sec", "6", 6.0, "sec", "", "", "Y", "", 3.0, "BASELINE", 1.0, "TREATMENT", "2014-03-12", 1.0]
["CDISCPILOT01", "QS", "01-701-1118", 5025.0, "ACITM10", "MAZE SOLUTION", "ADAS-COG", "", "7", "sec", "7", 7.0, "sec", "", "", "", "", 8.0, "WEEK 8", 56.0, "TREATMENT", "2014-05-08", 58.0]
["CDISCPILOT01", "QS", "01-701-1118", 5040.0, "ACITM10", "MAZE SOLUTION", "ADAS-COG", "", "9", "sec", "9", 9.0, "sec", "", "", "", "", 10.0, "WEEK 16", 112.0, "TREATMENT", "2014-07-02", 113.0]
["CDISCPILOT01", "QS", "01-701-1118", 5055.0, "ACITM10", "MAZE SOLUTION", "ADAS-COG", "", "7", "sec", "7", 7.0, "sec", "", "", "", "", 12.0, "WEEK 24", 168.0, "TREATMENT", "2014-08-27", 169.0]
["CDISCPILOT01", "QS", "01-701-1118", 5011.0, "ACITM11", "SPOKEN LANGUAGE ABILITY", "ADAS-COG", "", "0", "", "0", 0.0, "", "", "", "Y", "", 3.0, "BASELINE", 1.0, "TREATMENT", "2014-03-12", 1.0]
["CDISCPILOT01", "QS", "01-701-1118", 5026.0, "ACITM11", "SPOKEN LANGUAGE ABILITY", "ADAS-COG", "", "0", "", "0", 0.0, "", "", "", "", "", 8.0, "WEEK 8", 56.0, "TREATMENT", "2014-05-08", 58.0]
["CDISCPILOT01", "QS", "01-701-1118", 5041.0, "ACITM11", "SPOKEN LANGUAGE ABILITY", "ADAS-COG", "", "0", "", "0", 0.0, "", "", "", "", "", 10.0, "WEEK 16", 112.0, "TREATMENT", "2014-07-02", 113.0]
["CDISCPILOT01", "QS", "01-701-1118", 5056.0, "ACITM11", "SPOKEN LANGUAGE ABILITY", "ADAS-COG", "", "0", "", "0", 0.0, "", "", "", "", "", 12.0, "WEEK 24", 168.0, "TREATMENT", "2014-08-27", 169.0]
["CDISCPILOT01", "QS", "01-701-1118", 5012.0, "ACITM12", "COMPREHENSION OF SPOKEN LANGUAGE", "ADAS-COG", "", "0", "", "0", 0.0, "", "", "", "Y", "", 3.0, "BASELINE", 1.0, "TREATMENT", "2014-03-12", 1.0]
["CDISCPILOT01", "QS", "01-701-1118", 5027.0, "ACITM12", "COMPREHENSION OF SPOKEN LANGUAGE", "ADAS-COG", "", "0", "", "0", 0.0, "", "", "", "", "", 8.0, "WEEK 8", 56.0, "TREATMENT", "2014-05-08", 58.0]
["CDISCPILOT01", "QS", "01-701-1118", 5042.0, "ACITM12", "COMPREHENSION OF SPOKEN LANGUAGE", "ADAS-COG", "", "0", "", "0", 0.0, "", "", "", "", "", 10.0, "WEEK 16", 112.0, "TREATMENT", "2014-07-02", 113.0]
["CDISCPILOT01", "QS", "01-701-1118", 5057.0, "ACITM12", "COMPREHENSION OF SPOKEN LANGUAGE", "ADAS-COG", "", "0", "", "0", 0.0, "", "", "", "", "", 12.0, "WEEK 24", 168.0, "TREATMENT", "2014-08-27", 169.0]
["CDISCPILOT01", "QS", "01-701-1118", 5013.0, "ACITM13", "WORD FINDING DIFFICULTY IN SPONTANEOUS S", "ADAS-COG", "", "1", "", "1", 1.0, "", "", "", "Y", "", 3.0, "BASELINE", 1.0, "TREATMENT", "2014-03-12", 1.0]
["CDISCPILOT01", "QS", "01-701-1118", 5028.0, "ACITM13", "WORD FINDING DIFFICULTY IN SPONTANEOUS S", "ADAS-COG", "", "0", "", "0", 0.0, "", "", "", "", "", 8.0, "WEEK 8", 56.0, "TREATMENT", "2014-05-08", 58.0]
["CDISCPILOT01", "QS", "01-701-1118", 5043.0, "ACITM13", "WORD FINDING DIFFICULTY IN SPONTANEOUS S", "ADAS-COG", "", "0", "", "0", 0.0, "", "", "", "", "", 10.0, "WEEK 16", 112.0, "TREATMENT", "2014-07-02", 113.0]
["CDISCPILOT01", "QS", "01-701-1118", 5058.0, "ACITM13", "WORD FINDING DIFFICULTY IN SPONTANEOUS S", "ADAS-COG", "", "0", "", "0", 0.0, "", "", "", "", "", 12.0, "WEEK 24", 168.0, "TREATMENT", "2014-08-27", 169.0]
["CDISCPILOT01", "QS", "01-701-1118", 5014.0, "ACITM14", "RECALL OF TEST INSTRUCTIONS", "ADAS-COG", "", "1", "", "1", 1.0, "", "", "", "Y", "", 3.0, "BASELINE", 1.0, "TREATMENT", "2014-03-12", 1.0]
["CDISCPILOT01", "QS", "01-701-1118", 5029.0, "ACITM14", "RECALL OF TEST INSTRUCTIONS", "ADAS-COG", "", "0", "", "0", 0.0, "", "", "", "", "", 8.0, "WEEK 8", 56.0, "TREATMENT", "2014-05-08", 58.0]
["CDISCPILOT01", "QS", "01-701-1118", 5044.0, "ACITM14", "RECALL OF TEST INSTRUCTIONS", "ADAS-COG", "", "0", "", "0", 0.0, "", "", "", "", "", 10.0, "WEEK 16", 112.0, "TREATMENT", "2014-07-02", 113.0]
["CDISCPILOT01", "QS", "01-701-1118", 5059.0, "ACITM14", "RECALL OF TEST INSTRUCTIONS", "ADAS-COG", "", "0", "", "0", 0.0, "", "", "", "", "", 12.0, "WEEK 24", 168.0, "TREATMENT", "2014-08-27", 169.0]
["CDISCPILOT01", "QS", "01-701-1118", 5015.0, "ACTOT", "ADAS-COG(11) Subscore", "ADAS-COG", "", "", "", "26", 26.0, "", "", "", "Y", "Y", 3.0, "BASELINE", 1.0, "TREATMENT", "2014-03-12", 1.0]
["CDISCPILOT01", "QS", "01-701-1118", 5030.0, "ACTOT", "ADAS-COG(11) Subscore", "ADAS-COG", "", "", "", "19", 19.0, "", "", "", "", "Y", 8.0, "WEEK 8", 56.0, "TREATMENT", "2014-05-08", 58.0]
["CDISCPILOT01", "QS", "01-701-1118", 5045.0, "ACTOT", "ADAS-COG(11) Subscore", "ADAS-COG", "", "", "", "17", 17.0, "", "", "", "", "Y", 10.0, "WEEK 16", 112.0, "TREATMENT", "2014-07-02", 113.0]
["CDISCPILOT01", "QS", "01-701-1118", 5060.0, "ACTOT", "ADAS-COG(11) Subscore", "ADAS-COG", "", "", "", "15", 15.0, "", "", "", "", "Y", 12.0, "WEEK 24", 168.0, "TREATMENT", "2014-08-27", 169.0]
["CDISCPILOT01", "QS", "01-701-1130", 5001.0, "ACITM01", "WORD RECALL TASK", "ADAS-COG", "", "4", "", "4", 4.0, "", "", "", "Y", "", 3.0, "BASELINE", 1.0, "TREATMENT", "2014-02-15", 1.0]
["CDISCPILOT01", "QS", "01-701-1130", 5016.0, "ACITM01", "WORD RECALL TASK", "ADAS-COG", "", "4", "", "4", 4.0, "", "", "", "", "", 8.0, "WEEK 8", 56.0, "TREATMENT", "2014-04-12", 57.0]
["CDISCPILOT01", "QS", "01-701-1130", 5031.0, "ACITM01", "WORD RECALL TASK", "ADAS-COG", "", "5", "", "5", 5.0, "", "", "", "", "", 10.0, "WEEK 16", 112.0, "TREATMENT", "2014-06-07", 113.0]
["CDISCPILOT01", "QS", "01-701-1130", 5046.0, "ACITM01", "WORD RECALL TASK", "ADAS-COG", "", "4", "", "4", 4.0, "", "", "", "", "", 12.0, "WEEK 24", 168.0, "TREATMENT", "2014-08-02", 169.0]
["CDISCPILOT01", "QS", "01-701-1130", 5002.0, "ACITM02", "NAMING OBJECTS AND FINGERS (REFER TO 5 C", "ADAS-COG", "", "0", "", "0", 0.0, "", "", "", "Y", "", 3.0, "BASELINE", 1.0, "TREATMENT", "2014-02-15", 1.0]
["CDISCPILOT01", "QS", "01-701-1130", 5017.0, "ACITM02", "NAMING OBJECTS AND FINGERS (REFER TO 5 C", "ADAS-COG", "", "0", "", "0", 0.0, "", "", "", "", "", 8.0, "WEEK 8", 56.0, "TREATMENT", "2014-04-12", 57.0]
["CDISCPILOT01", "QS", "01-701-1130", 5032.0, "ACITM02", "NAMING OBJECTS AND FINGERS (REFER TO 5 C", "ADAS-COG", "", "0", "", "0", 0.0, "", "", "", "", "", 10.0, "WEEK 16", 112.0, "TREATMENT", "2014-06-07", 113.0]
["CDISCPILOT01", "QS", "01-701-1130", 5047.0, "ACITM02", "NAMING OBJECTS AND FINGERS (REFER TO 5 C", "ADAS-COG", "", "0", "", "0", 0.0, "", "", "", "", "", 12.0, "WEEK 24", 168.0, "TREATMENT", "2014-08-02", 169.0]
["CDISCPILOT01", "QS", "01-701-1130", 5003.0, "ACITM03", "DELAYED WORD RECALL", "ADAS-COG", "", "10", "", "10", 10.0, "", "", "", "Y", "", 3.0, "BASELINE", 1.0, "TREATMENT", "2014-02-15", 1.0]
["CDISCPILOT01", "QS", "01-701-1130", 5018.0, "ACITM03", "DELAYED WORD RECALL", "ADAS-COG", "", "10", "", "10", 10.0, "", "", "", "", "", 8.0, "WEEK 8", 56.0, "TREATMENT", "2014-04-12", 57.0]
["CDISCPILOT01", "QS", "01-701-1130", 5033.0, "ACITM03", "DELAYED WORD RECALL", "ADAS-COG", "", "10", "", "10", 10.0, "", "", "", "", "", 10.0, "WEEK 16", 112.0, "TREATMENT", "2014-06-07", 113.0]
["CDISCPILOT01", "QS", "01-701-1130", 5048.0, "ACITM03", "DELAYED WORD RECALL", "ADAS-COG", "", "10", "", "10", 10.0, "", "", "", "", "", 12.0, "WEEK 24", 168.0, "TREATMENT", "2014-08-02", 169.0]
["CDISCPILOT01", "QS", "01-701-1130", 5004.0, "ACITM04", "COMMANDS", "ADAS-COG", "", "0", "", "0", 0.0, "", "", "", "Y", "", 3.0, "BASELINE", 1.0, "TREATMENT", "2014-02-15", 1.0]
["CDISCPILOT01", "QS", "01-701-1130", 5019.0, "ACITM04", "COMMANDS", "ADAS-COG", "", "0", "", "0", 0.0, "", "", "", "", "", 8.0, "WEEK 8", 56.0, "TREATMENT", "2014-04-12", 57.0]
["CDISCPILOT01", "QS", "01-701-1130", 5034.0, "ACITM04", "COMMANDS", "ADAS-COG", "", "0", "", "0", 0.0, "", "", "", "", "", 10.0, "WEEK 16", 112.0, "TREATMENT", "2014-06-07", 113.0]
["CDISCPILOT01", "QS", "01-701-1130", 5049.0, "ACITM04", "COMMANDS", "ADAS-COG", "", "0", "", "0", 0.0, "", "", "", "", "", 12.0, "WEEK 24", 168.0, "TREATMENT", "2014-08-02", 169.0]
["CDISCPILOT01", "QS", "01-701-1130", 5005.0, "ACITM05", "CONSTRUCTIONAL PRAXIS", "ADAS-COG", "", "0", "", "0", 0.0, "", "", "", "Y", "", 3.0, "BASELINE", 1.0, "TREATMENT", "2014-02-15", 1.0]
["CDISCPILOT01", "QS", "01-701-1130", 5020.0, "ACITM05", "CONSTRUCTIONAL PRAXIS", "ADAS-COG", "", "1", "", "1", 1.0, "", "", "", "", "", 8.0, "WEEK 8", 56.0, "TREATMENT", "2014-04-12", 57.0]
["CDISCPILOT01", "QS", "01-701-1130", 5035.0, "ACITM05", "CONSTRUCTIONAL PRAXIS", "ADAS-COG", "", "0", "", "0", 0.0, "", "", "", "", "", 10.0, "WEEK 16", 112.0, "TREATMENT", "2014-06-07", 113.0]
["CDISCPILOT01", "QS", "01-701-1130", 5050.0, "ACITM05", "CONSTRUCTIONAL PRAXIS", "ADAS-COG", "", "1", "", "1", 1.0, "", "", "", "", "", 12.0, "WEEK 24", 168.0, "TREATMENT", "2014-08-02", 169.0]
["CDISCPILOT01", "QS", "01-701-1130", 5006.0, "ACITM06", "IDEATIONAL PRAXIS", "ADAS-COG", "", "2", "", "2", 2.0, "", "", "", "Y", "", 3.0, "BASELINE", 1.0, "TREATMENT", "2014-02-15", 1.0]
["CDISCPILOT01", "QS", "01-701-1130", 5021.0, "ACITM06", "IDEATIONAL PRAXIS", "ADAS-COG", "", "1", "", "1", 1.0, "", "", "", "", "", 8.0, "WEEK 8", 56.0, "TREATMENT", "2014-04-12", 57.0]
["CDISCPILOT01", "QS", "01-701-1130", 5036.0, "ACITM06", "IDEATIONAL PRAXIS", "ADAS-COG", "", "1", "", "1", 1.0, "", "", "", "", "", 10.0, "WEEK 16", 112.0, "TREATMENT", "2014-06-07", 113.0]
["CDISCPILOT01", "QS", "01-701-1130", 5051.0, "ACITM06", "IDEATIONAL PRAXIS", "ADAS-COG", "", "1", "", "1", 1.0, "", "", "", "", "", 12.0, "WEEK 24", 168.0, "TREATMENT", "2014-08-02", 169.0]
["CDISCPILOT01", "QS", "01-701-1130", 5007.0, "ACITM07", "ORIENTATION", "ADAS-COG", "", "5", "", "5", 5.0, "", "", "", "Y", "", 3.0, "BASELINE", 1.0, "TREATMENT", "2014-02-15", 1.0]
["CDISCPILOT01", "QS", "01-701-1130", 5022.0, "ACITM07", "ORIENTATION", "ADAS-COG", "", "3", "", "3", 3.0, "", "", "", "", "", 8.0, "WEEK 8", 56.0, "TREATMENT", "2014-04-12", 57.0]
["CDISCPILOT01", "QS", "01-701-1130", 5037.0, "ACITM07", "ORIENTATION", "ADAS-COG", "", "3", "", "3", 3.0, "", "", "", "", "", 10.0, "WEEK 16", 112.0, "TREATMENT", "2014-06-07", 113.0]
["CDISCPILOT01", "QS", "01-701-1130", 5052.0, "ACITM07", "ORIENTATION", "ADAS-COG", "", "3", "", "3", 3.0, "", "", "", "", "", 12.0, "WEEK 24", 168.0, "TREATMENT", "2014-08-02", 169.0]
["CDISCPILOT01", "QS", "01-701-1130", 5008.0, "ACITM08", "WORD RECOGNITION", "ADAS-COG", "", "8", "", "8", 8.0, "", "", "", "Y", "", 3.0, "BASELINE", 1.0, "TREATMENT", "2014-02-15", 1.0]
["CDISCPILOT01", "QS", "01-701-1130", 5023.0, "ACITM08", "WORD RECOGNITION", "ADAS-COG", "", "3", "", "3", 3.0, "", "", "", "", "", 8.0, "WEEK 8", 56.0, "TREATMENT", "2014-04-12", 57.0]
["CDISCPILOT01", "QS", "01-701-1130", 5038.0, "ACITM08", "WORD RECOGNITION", "ADAS-COG", "", "3", "", "3", 3.0, "", "", "", "", "", 10.0, "WEEK 16", 112.0, "TREATMENT", "2014-06-07", 113.0]
["CDISCPILOT01", "QS", "01-701-1130", 5053.0, "ACITM08", "WORD RECOGNITION", "ADAS-COG", "", "5", "", "5", 5.0, "", "", "", "", "", 12.0, "WEEK 24", 168.0, "TREATMENT", "2014-08-02", 169.0]
["CDISCPILOT01", "QS", "01-701-1130", 5009.0, "ACITM09", "ATTENTION/VISUAL SEARCH TASK", "ADAS-COG", "", "25", "", "25", 25.0, "", "", "", "Y", "", 3.0, "BASELINE", 1.0, "TREATMENT", "2014-02-15", 1.0]
["CDISCPILOT01", "QS", "01-701-1130", 5024.0, "ACITM09", "ATTENTION/VISUAL SEARCH TASK", "ADAS-COG", "", "19", "", "19", 19.0, "", "", "", "", "", 8.0, "WEEK 8", 56.0, "TREATMENT", "2014-04-12", 57.0]
["CDISCPILOT01", "QS", "01-701-1130", 5039.0, "ACITM09", "ATTENTION/VISUAL SEARCH TASK", "ADAS-COG", "", "24", "", "24", 24.0, "", "", "", "", "", 10.0, "WEEK 16", 112.0, "TREATMENT", "2014-06-07", 113.0]
["CDISCPILOT01", "QS", "01-701-1130", 5054.0, "ACITM09", "ATTENTION/VISUAL SEARCH TASK", "ADAS-COG", "", "28", "", "28", 28.0, "", "", "", "", "", 12.0, "WEEK 24", 168.0, "TREATMENT", "2014-08-02", 169.0]
["CDISCPILOT01", "QS", "01-701-1130", 5010.0, "ACITM10", "MAZE SOLUTION", "ADAS-COG", "", "4", "sec", "4", 4.0, "sec", "", "", "Y", "", 3.0, "BASELINE", 1.0, "TREATMENT", "2014-02-15", 1.0]
["CDISCPILOT01", "QS", "01-701-1130", 5025.0, "ACITM10", "MAZE SOLUTION", "ADAS-COG", "", "8", "sec", "8", 8.0, "sec", "", "", "", "", 8.0, "WEEK 8", 56.0, "TREATMENT", "2014-04-12", 57.0]
["CDISCPILOT01", "QS", "01-701-1130", 5040.0, "ACITM10", "MAZE SOLUTION", "ADAS-COG", "", "7", "sec", "7", 7.0, "sec", "", "", "", "", 10.0, "WEEK 16", 112.0, "TREATMENT", "2014-06-07", 113.0]
["CDISCPILOT01", "QS", "01-701-1130", 5055.0, "ACITM10", "MAZE SOLUTION", "ADAS-COG", "", "5", "sec", "5", 5.0, "sec", "", "", "", "", 12.0, "WEEK 24", 168.0, "TREATMENT", "2014-08-02", 169.0]
["CDISCPILOT01", "QS", "01-701-1130", 5011.0, "ACITM11", "SPOKEN LANGUAGE ABILITY", "ADAS-COG", "", "0", "", "0", 0.0, "", "", "", "Y", "", 3.0, "BASELINE", 1.0, "TREATMENT", "2014-02-15", 1.0]
["CDISCPILOT01", "QS", "01-701-1130", 5026.0, "ACITM11", "SPOKEN LANGUAGE ABILITY", "ADAS-COG", "", "0", "", "0", 0.0, "", "", "", "", "", 8.0, "WEEK 8", 56.0, "TREATMENT", "2014-04-12", 57.0]
["CDISCPILOT01", "QS", "01-701-1130", 5041.0, "ACITM11", "SPOKEN LANGUAGE ABILITY", "ADAS-COG", "", "0", "", "0", 0.0, "", "", "", "", "", 10.0, "WEEK 16", 112.0, "TREATMENT", "2014-06-07", 113.0]
["CDISCPILOT01", "QS", "01-701-1130", 5056.0, "ACITM11", "SPOKEN LANGUAGE ABILITY", "ADAS-COG", "", "0", "", "0", 0.0, "", "", "", "", "", 12.0, "WEEK 24", 168.0, "TREATMENT", "2014-08-02", 169.0]
["CDISCPILOT01", "QS", "01-701-1130", 5012.0, "ACITM12", "COMPREHENSION OF SPOKEN LANGUAGE", "ADAS-COG", "", "0", "", "0", 0.0, "", "", "", "Y", "", 3.0, "BASELINE", 1.0, "TREATMENT", "2014-02-15", 1.0]
["CDISCPILOT01", "QS", "01-701-1130", 5027.0, "ACITM12", "COMPREHENSION OF SPOKEN LANGUAGE", "ADAS-COG", "", "0", "", "0", 0.0, "", "", "", "", "", 8.0, "WEEK 8", 56.0, "TREATMENT", "2014-04-12", 57.0]
["CDISCPILOT01", "QS", "01-701-1130", 5042.0, "ACITM12", "COMPREHENSION OF SPOKEN LANGUAGE", "ADAS-COG", "", "0", "", "0", 0.0, "", "", "", "", "", 10.0, "WEEK 16", 112.0, "TREATMENT", "2014-06-07", 113.0]
["CDISCPILOT01", "QS", "01-701-1130", 5057.0, "ACITM12", "COMPREHENSION OF SPOKEN LANGUAGE", "ADAS-COG", "", "0", "", "0", 0.0, "", "", "", "", "", 12.0, "WEEK 24", 168.0, "TREATMENT", "2014-08-02", 169.0]
["CDISCPILOT01", "QS", "01-701-1130", 5013.0, "ACITM13", "WORD FINDING DIFFICULTY IN SPONTANEOUS S", "ADAS-COG", "", "0", "", "0", 0.0, "", "", "", "Y", "", 3.0, "BASELINE", 1.0, "TREATMENT", "2014-02-15", 1.0]
["CDISCPILOT01", "QS", "01-701-1130", 5028.0, "ACITM13", "WORD FINDING DIFFICULTY IN SPONTANEOUS S", "ADAS-COG", "", "0", "", "0", 0.0, "", "", "", "", "", 8.0, "WEEK 8", 56.0, "TREATMENT", "2014-04-12", 57.0]
["CDISCPILOT01", "QS", "01-701-1130", 5043.0, "ACITM13", "WORD FINDING DIFFICULTY IN SPONTANEOUS S", "ADAS-COG", "", "0", "", "0", 0.0, "", "", "", "", "", 10.0, "WEEK 16", 112.0, "TREATMENT", "2014-06-07", 113.0]
["CDISCPILOT01", "QS", "01-701-1130", 5058.0, "ACITM13", "WORD FINDING DIFFICULTY IN SPONTANEOUS S", "ADAS-COG", "", "0", "", "0", 0.0, "", "", "", "", "", 12.0, "WEEK 24", 168.0, "TREATMENT", "2014-08-02", 169.0]
["CDISCPILOT01", "QS", "01-701-1130", 5014.0, "ACITM14", "RECALL OF TEST INSTRUCTIONS", "ADAS-COG", "", "0", "", "0", 0.0, "", "", "", "Y", "", 3.0, "BASELINE", 1.0, "TREATMENT", "2014-02-15", 1.0]
["CDISCPILOT01", "QS", "01-701-1130", 5029.0, "ACITM14", "RECALL OF TEST INSTRUCTIONS", "ADAS-COG", "", "0", "", "0", 0.0, "", "", "", "", "", 8.0, "WEEK 8", 56.0, "TREATMENT", "2014-04-12", 57.0]
["CDISCPILOT01", "QS", "01-701-1130", 5044.0, "ACITM14", "RECALL OF TEST INSTRUCTIONS", "ADAS-COG", "", "0", "", "0", 0.0, "", "", "", "", "", 10.0, "WEEK 16", 112.0, "TREATMENT", "2014-06-07", 113.0]
["CDISCPILOT01", "QS", "01-701-1130", 5059.0, "ACITM14", "RECALL OF TEST INSTRUCTIONS", "ADAS-COG", "", "0", "", "0", 0.0, "", "", "", "", "", 12.0, "WEEK 24", 168.0, "TREATMENT", "2014-08-02", 169.0]
["CDISCPILOT01", "QS", "01-701-1130", 5015.0, "ACTOT", "ADAS-COG(11) Subscore", "ADAS-COG", "", "", "", "19", 19.0, "", "", "", "Y", "Y", 3.0, "BASELINE", 1.0, "TREATMENT", "2014-02-15", 1.0]
["CDISCPILOT01", "QS", "01-701-1130", 5030.0, "ACTOT", "ADAS-COG(11) Subscore", "ADAS-COG", "", "", "", "12", 12.0, "", "", "", "", "Y", 8.0, "WEEK 8", 56.0, "TREATMENT", "2014-04-12", 57.0]
["CDISCPILOT01", "QS", "01-701-1130", 5045.0, "ACTOT", "ADAS-COG(11) Subscore", "ADAS-COG", "", "", "", "12", 12.0, "", "", "", "", "Y", 10.0, "WEEK 16", 112.0, "TREATMENT", "2014-06-07", 113.0]
["CDISCPILOT01", "QS", "01-701-1130", 5060.0, "ACTOT", "ADAS-COG(11) Subscore", "ADAS-COG", "", "", "", "14", 14.0, "", "", "", "", "Y", 12.0, "WEEK 24", 168.0, "TREATMENT", "2014-08-02", 169.0]
["CDISCPILOT01", "QS", "01-701-1133", 5001.0, "ACITM01", "WORD RECALL TASK", "ADAS-COG", "", "7", "", "7", 7.0, "", "", "", "Y", "", 3.0, "BASELINE", 1.0, "TREATMENT", "2012-10-28", 1.0]
["CDISCPILOT01", "QS", "01-701-1133", 5016.0, "ACITM01", "WORD RECALL TASK", "ADAS-COG", "", "6", "", "6", 6.0, "", "", "", "", "", 8.0, "WEEK 8", 56.0, "TREATMENT", "2012-12-24", 58.0]
["CDISCPILOT01", "QS", "01-701-1133", 5031.0, "ACITM01", "WORD RECALL TASK", "ADAS-COG", "", "6", "", "6", 6.0, "", "", "", "", "", 10.0, "WEEK 16", 112.0, "TREATMENT", "2013-02-18", 114.0]
["CDISCPILOT01", "QS", "01-701-1133", 5046.0, "ACITM01", "WORD RECALL TASK", "ADAS-COG", "", "6", "", "6", 6.0, "", "", "", "", "", 12.0, "WEEK 24", 168.0, "TREATMENT", "2013-04-18", 173.0]
["CDISCPILOT01", "QS", "01-701-1133", 5002.0, "ACITM02", "NAMING OBJECTS AND FINGERS (REFER TO 5 C", "ADAS-COG", "", "0", "", "0", 0.0, "", "", "", "Y", "", 3.0, "BASELINE", 1.0, "TREATMENT", "2012-10-28", 1.0]
["CDISCPILOT01", "QS", "01-701-1133", 5017.0, "ACITM02", "NAMING OBJECTS AND FINGERS (REFER TO 5 C", "ADAS-COG", "", "0", "", "0", 0.0, "", "", "", "", "", 8.0, "WEEK 8", 56.0, "TREATMENT", "2012-12-24", 58.0]
["CDISCPILOT01", "QS", "01-701-1133", 5032.0, "ACITM02", "NAMING OBJECTS AND FINGERS (REFER TO 5 C", "ADAS-COG", "", "0", "", "0", 0.0, "", "", "", "", "", 10.0, "WEEK 16", 112.0, "TREATMENT", "2013-02-18", 114.0]
["CDISCPILOT01", "QS", "01-701-1133", 5047.0, "ACITM02", "NAMING OBJECTS AND FINGERS (REFER TO 5 C", "ADAS-COG", "", "0", "", "0", 0.0, "", "", "", "", "", 12.0, "WEEK 24", 168.0, "TREATMENT", "2013-04-18", 173.0]
["CDISCPILOT01", "QS", "01-701-1133", 5003.0, "ACITM03", "DELAYED WORD RECALL", "ADAS-COG", "", "9", "", "9", 9.0, "", "", "", "Y", "", 3.0, "BASELINE", 1.0, "TREATMENT", "2012-10-28", 1.0]
["CDISCPILOT01", "QS", "01-701-1133", 5018.0, "ACITM03", "DELAYED WORD RECALL", "ADAS-COG", "", "9", "", "9", 9.0, "", "", "", "", "", 8.0, "WEEK 8", 56.0, "TREATMENT", "2012-12-24", 58.0]
["CDISCPILOT01", "QS", "01-701-1133", 5033.0, "ACITM03", "DELAYED WORD RECALL", "ADAS-COG", "", "8", "", "8", 8.0, "", "", "", "", "", 10.0, "WEEK 16", 112.0, "TREATMENT", "2013-02-18", 114.0]
["CDISCPILOT01", "QS", "01-701-1133", 5048.0, "ACITM03", "DELAYED WORD RECALL", "ADAS-COG", "", "10", "", "10", 10.0, "", "", "", "", "", 12.0, "WEEK 24", 168.0, "TREATMENT", "2013-04-18", 173.0]
["CDISCPILOT01", "QS", "01-701-1133", 5004.0, "ACITM04", "COMMANDS", "ADAS-COG", "", "0", "", "0", 0.0, "", "", "", "Y", "", 3.0, "BASELINE", 1.0, "TREATMENT", "2012-10-28", 1.0]
["CDISCPILOT01", "QS", "01-701-1133", 5019.0, "ACITM04", "COMMANDS", "ADAS-COG", "", "0", "", "0", 0.0, "", "", "", "", "", 8.0, "WEEK 8", 56.0, "TREATMENT", "2012-12-24", 58.0]
["CDISCPILOT01", "QS", "01-701-1133", 5034.0, "ACITM04", "COMMANDS", "ADAS-COG", "", "0", "", "0", 0.0, "", "", "", "", "", 10.0, "WEEK 16", 112.0, "TREATMENT", "2013-02-18", 114.0]
["CDISCPILOT01", "QS", "01-701-1133", 5049.0, "ACITM04", "COMMANDS", "ADAS-COG", "", "1", "", "1", 1.0, "", "", "", "", "", 12.0, "WEEK 24", 168.0, "TREATMENT", "2013-04-18", 173.0]
["CDISCPILOT01", "QS", "01-701-1133", 5005.0, "ACITM05", "CONSTRUCTIONAL PRAXIS", "ADAS-COG", "", "1", "", "1", 1.0, "", "", "", "Y", "", 3.0, "BASELINE", 1.0, "TREATMENT", "2012-10-28", 1.0]
["CDISCPILOT01", "QS", "01-701-1133", 5020.0, "ACITM05", "CONSTRUCTIONAL PRAXIS", "ADAS-COG", "", "1", "", "1", 1.0, "", "", "", "", "", 8.0, "WEEK 8", 56.0, "TREATMENT", "2012-12-24", 58.0]
["CDISCPILOT01", "QS", "01-701-1133", 5035.0, "ACITM05", "CONSTRUCTIONAL PRAXIS", "ADAS-COG", "", "1", "", "1", 1.0, "", "", "", "", "", 10.0, "WEEK 16", 112.0, "TREATMENT", "2013-02-18", 114.0]
["CDISCPILOT01", "QS", "01-701-1133", 5050.0, "ACITM05", "CONSTRUCTIONAL PRAXIS", "ADAS-COG", "", "3", "", "3", 3.0, "", "", "", "", "", 12.0, "WEEK 24", 168.0, "TREATMENT", "2013-04-18", 173.0]
["CDISCPILOT01", "QS", "01-701-1133", 5006.0, "ACITM06", "IDEATIONAL PRAXIS", "ADAS-COG", "", "0", "", "0", 0.0, "", "", "", "Y", "", 3.0, "BASELINE", 1.0, "TREATMENT", "2012-10-28", 1.0]
["CDISCPILOT01", "QS", "01-701-1133", 5021.0, "ACITM06", "IDEATIONAL PRAXIS", "ADAS-COG", "", "0", "", "0", 0.0, "", "", "", "", "", 8.0, "WEEK 8", 56.0, "TREATMENT", "2012-12-24", 58.0]
["CDISCPILOT01", "QS", "01-701-1133", 5036.0, "ACITM06", "IDEATIONAL PRAXIS", "ADAS-COG", "", "0", "", "0", 0.0, "", "", "", "", "", 10.0, "WEEK 16", 112.0, "TREATMENT", "2013-02-18", 114.0]
["CDISCPILOT01", "QS", "01-701-1133", 5051.0, "ACITM06", "IDEATIONAL PRAXIS", "ADAS-COG", "", "0", "", "0", 0.0, "", "", "", "", "", 12.0, "WEEK 24", 168.0, "TREATMENT", "2013-04-18", 173.0]
["CDISCPILOT01", "QS", "01-701-1133", 5007.0, "ACITM07", "ORIENTATION", "ADAS-COG", "", "2", "", "2", 2.0, "", "", "", "Y", "", 3.0, "BASELINE", 1.0, "TREATMENT", "2012-10-28", 1.0]
["CDISCPILOT01", "QS", "01-701-1133", 5022.0, "ACITM07", "ORIENTATION", "ADAS-COG", "", "4", "", "4", 4.0, "", "", "", "", "", 8.0, "WEEK 8", 56.0, "TREATMENT", "2012-12-24", 58.0]
["CDISCPILOT01", "QS", "01-701-1133", 5037.0, "ACITM07", "ORIENTATION", "ADAS-COG", "", "5", "", "5", 5.0, "", "", "", "", "", 10.0, "WEEK 16", 112.0, "TREATMENT", "2013-02-18", 114.0]
["CDISCPILOT01", "QS", "01-701-1133", 5052.0, "ACITM07", "ORIENTATION", "ADAS-COG", "", "4", "", "4", 4.0, "", "", "", "", "", 12.0, "WEEK 24", 168.0, "TREATMENT", "2013-04-18", 173.0]
["CDISCPILOT01", "QS", "01-701-1133", 5008.0, "ACITM08", "WORD RECOGNITION", "ADAS-COG", "", "2", "", "2", 2.0, "", "", "", "Y", "", 3.0, "BASELINE", 1.0, "TREATMENT", "2012-10-28", 1.0]
["CDISCPILOT01", "QS", "01-701-1133", 5023.0, "ACITM08", "WORD RECOGNITION", "ADAS-COG", "", "3", "", "3", 3.0, "", "", "", "", "", 8.0, "WEEK 8", 56.0, "TREATMENT", "2012-12-24", 58.0]
["CDISCPILOT01", "QS", "01-701-1133", 5038.0, "ACITM08", "WORD RECOGNITION", "ADAS-COG", "", "5", "", "5", 5.0, "", "", "", "", "", 10.0, "WEEK 16", 112.0, "TREATMENT", "2013-02-18", 114.0]
["CDISCPILOT01", "QS", "01-701-1133", 5053.0, "ACITM08", "WORD RECOGNITION", "ADAS-COG", "", "4", "", "4", 4.0, "", "", "", "", "", 12.0, "WEEK 24", 168.0, "TREATMENT", "2013-04-18", 173.0]
["CDISCPILOT01", "QS", "01-701-1133", 5009.0, "ACITM09", "ATTENTION/VISUAL SEARCH TASK", "ADAS-COG", "", "24", "", "24", 24.0, "", "", "", "Y", "", 3.0, "BASELINE", 1.0, "TREATMENT", "2012-10-28", 1.0]
["CDISCPILOT01", "QS", "01-701-1133", 5024.0, "ACITM09", "ATTENTION/VISUAL SEARCH TASK", "ADAS-COG", "", "22", "", "22", 22.0, "", "", "", "", "", 8.0, "WEEK 8", 56.0, "TREATMENT", "2012-12-24", 58.0]
["CDISCPILOT01", "QS", "01-701-1133", 5039.0, "ACITM09", "ATTENTION/VISUAL SEARCH TASK", "ADAS-COG", "", "21", "", "21", 21.0, "", "", "", "", "", 10.0, "WEEK 16", 112.0, "TREATMENT", "2013-02-18", 114.0]
["CDISCPILOT01", "QS", "01-701-1133", 5054.0, "ACITM09", "ATTENTION/VISUAL SEARCH TASK", "ADAS-COG", "", "22", "", "22", 22.0, "", "", "", "", "", 12.0, "WEEK 24", 168.0, "TREATMENT", "2013-04-18", 173.0]
["CDISCPILOT01", "QS", "01-701-1133", 5010.0, "ACITM10", "MAZE SOLUTION", "ADAS-COG", "", "12", "sec", "12", 12.0, "sec", "", "", "Y", "", 3.0, "BASELINE", 1.0, "TREATMENT", "2012-10-28", 1.0]
["CDISCPILOT01", "QS", "01-701-1133", 5025.0, "ACITM10", "MAZE SOLUTION", "ADAS-COG", "", "240", "sec", "240", 240.0, "sec", "", "", "", "", 8.0, "WEEK 8", 56.0, "TREATMENT", "2012-12-24", 58.0]
["CDISCPILOT01", "QS", "01-701-1133", 5040.0, "ACITM10", "MAZE SOLUTION", "ADAS-COG", "", "16", "sec", "16", 16.0, "sec", "", "", "", "", 10.0, "WEEK 16", 112.0, "TREATMENT", "2013-02-18", 114.0]
["CDISCPILOT01", "QS", "01-701-1133", 5055.0, "ACITM10", "MAZE SOLUTION", "ADAS-COG", "", "14", "sec", "14", 14.0, "sec", "", "", "", "", 12.0, "WEEK 24", 168.0, "TREATMENT", "2013-04-18", 173.0]
["CDISCPILOT01", "QS", "01-701-1133", 5011.0, "ACITM11", "SPOKEN LANGUAGE ABILITY", "ADAS-COG", "", "0", "", "0", 0.0, "", "", "", "Y", "", 3.0, "BASELINE", 1.0, "TREATMENT", "2012-10-28", 1.0]
["CDISCPILOT01", "QS", "01-701-1133", 5026.0, "ACITM11", "SPOKEN LANGUAGE ABILITY", "ADAS-COG", "", "1", "", "1", 1.0, "", "", "", "", "", 8.0, "WEEK 8", 56.0, "TREATMENT", "2012-12-24", 58.0]
["CDISCPILOT01", "QS", "01-701-1133", 5041.0, "ACITM11", "SPOKEN LANGUAGE ABILITY", "ADAS-COG", "", "1", "", "1", 1.0, "", "", "", "", "", 10.0, "WEEK 16", 112.0, "TREATMENT", "2013-02-18", 114.0]
["CDISCPILOT01", "QS", "01-701-1133", 5056.0, "ACITM11", "SPOKEN LANGUAGE ABILITY", "ADAS-COG", "", "0", "", "0", 0.0, "", "", "", "", "", 12.0, "WEEK 24", 168.0, "TREATMENT", "2013-04-18", 173.0]
["CDISCPILOT01", "QS", "01-701-1133", 5012.0, "ACITM12", "COMPREHENSION OF SPOKEN LANGUAGE", "ADAS-COG", "", "0", "", "0", 0.0, "", "", "", "Y", "", 3.0, "BASELINE", 1.0, "TREATMENT", "2012-10-28", 1.0]
["CDISCPILOT01", "QS", "01-701-1133", 5027.0, "ACITM12", "COMPREHENSION OF SPOKEN LANGUAGE", "ADAS-COG", "", "2", "", "2", 2.0, "", "", "", "", "", 8.0, "WEEK 8", 56.0, "TREATMENT", "2012-12-24", 58.0]
["CDISCPILOT01", "QS", "01-701-1133", 5042.0, "ACITM12", "COMPREHENSION OF SPOKEN LANGUAGE", "ADAS-COG", "", "2", "", "2", 2.0, "", "", "", "", "", 10.0, "WEEK 16", 112.0, "TREATMENT", "2013-02-18", 114.0]
["CDISCPILOT01", "QS", "01-701-1133", 5057.0, "ACITM12", "COMPREHENSION OF SPOKEN LANGUAGE", "ADAS-COG", "", "0", "", "0", 0.0, "", "", "", "", "", 12.0, "WEEK 24", 168.0, "TREATMENT", "2013-04-18", 173.0]
["CDISCPILOT01", "QS", "01-701-1133", 5013.0, "ACITM13", "WORD FINDING DIFFICULTY IN SPONTANEOUS S", "ADAS-COG", "", "1", "", "1", 1.0, "", "", "", "Y", "", 3.0, "BASELINE", 1.0, "TREATMENT", "2012-10-28", 1.0]
["CDISCPILOT01", "QS", "01-701-1133", 5028.0, "ACITM13", "WORD FINDING DIFFICULTY IN SPONTANEOUS S", "ADAS-COG", "", "1", "", "1", 1.0, "", "", "", "", "", 8.0, "WEEK 8", 56.0, "TREATMENT", "2012-12-24", 58.0]
["CDISCPILOT01", "QS", "01-701-1133", 5043.0, "ACITM13", "WORD FINDING DIFFICULTY IN SPONTANEOUS S", "ADAS-COG", "", "1", "", "1", 1.0, "", "", "", "", "", 10.0, "WEEK 16", 112.0, "TREATMENT", "2013-02-18", 114.0]
["CDISCPILOT01", "QS", "01-701-1133", 5058.0, "ACITM13", "WORD FINDING DIFFICULTY IN SPONTANEOUS S", "ADAS-COG", "", "0", "", "0", 0.0, "", "", "", "", "", 12.0, "WEEK 24", 168.0, "TREATMENT", "2013-04-18", 173.0]
["CDISCPILOT01", "QS", "01-701-1133", 5014.0, "ACITM14", "RECALL OF TEST INSTRUCTIONS", "ADAS-COG", "", "0", "", "0", 0.0, "", "", "", "Y", "", 3.0, "BASELINE", 1.0, "TREATMENT", "2012-10-28", 1.0]
["CDISCPILOT01", "QS", "01-701-1133", 5029.0, "ACITM14", "RECALL OF TEST INSTRUCTIONS", "ADAS-COG", "", "2", "", "2", 2.0, "", "", "", "", "", 8.0, "WEEK 8", 56.0, "TREATMENT", "2012-12-24", 58.0]
["CDISCPILOT01", "QS", "01-701-1133", 5044.0, "ACITM14", "RECALL OF TEST INSTRUCTIONS", "ADAS-COG", "", "1", "", "1", 1.0, "", "", "", "", "", 10.0, "WEEK 16", 112.0, "TREATMENT", "2013-02-18", 114.0]
["CDISCPILOT01", "QS", "01-701-1133", 5059.0, "ACITM14", "RECALL OF TEST INSTRUCTIONS", "ADAS-COG", "", "0", "", "0", 0.0, "", "", "", "", "", 12.0, "WEEK 24", 168.0, "TREATMENT", "2013-04-18", 173.0]
["CDISCPILOT01", "QS", "01-701-1133", 5015.0, "ACTOT", "ADAS-COG(11) Subscore", "ADAS-COG", "", "", "", "13", 13.0, "", "", "", "Y", "Y", 3.0, "BASELINE", 1.0, "TREATMENT", "2012-10-28", 1.0]
["CDISCPILOT01", "QS", "01-701-1133", 5030.0, "ACTOT", "ADAS-COG(11) Subscore", "ADAS-COG", "", "", "", "20", 20.0, "", "", "", "", "Y", 8.0, "WEEK 8", 56.0, "TREATMENT", "2012-12-24", 58.0]
["CDISCPILOT01", "QS", "01-701-1133", 5045.0, "ACTOT", "ADAS-COG(11) Subscore", "ADAS-COG", "", "", "", "22", 22.0, "", "", "", "", "Y", 10.0, "WEEK 16", 112.0, "TREATMENT", "2013-02-18", 114.0]
["CDISCPILOT01", "QS", "01-701-1133", 5060.0, "ACTOT", "ADAS-COG(11) Subscore", "ADAS-COG", "", "", "", "18", 18.0, "", "", "", "", "Y", 12.0, "WEEK 24", 168.0, "TREATMENT", "2013-04-18", 173.0]
["CDISCPILOT01", "QS", "01-701-1146", 5001.0, "ACITM01", "WORD RECALL TASK", "ADAS-COG", "", "5", "", "5", 5.0, "", "", "", "Y", "", 3.0, "BASELINE", 1.0, "TREATMENT", "2013-05-20", 1.0]
["CDISCPILOT01", "QS", "01-701-1146", 5016.0, "ACITM01", "WORD RECALL TASK", "ADAS-COG", "", "4", "", "4", 4.0, "", "", "", "", "", 7.0, "WEEK 6", 42.0, "TREATMENT", "2013-06-30", 42.0]
["CDISCPILOT01", "QS", "01-701-1146", 5002.0, "ACITM02", "NAMING OBJECTS AND FINGERS (REFER TO 5 C", "ADAS-COG", "", "0", "", "0", 0.0, "", "", "", "Y", "", 3.0, "BASELINE", 1.0, "TREATMENT", "2013-05-20", 1.0]
["CDISCPILOT01", "QS", "01-701-1146", 5017.0, "ACITM02", "NAMING OBJECTS AND FINGERS (REFER TO 5 C", "ADAS-COG", "", "0", "", "0", 0.0, "", "", "", "", "", 7.0, "WEEK 6", 42.0, "TREATMENT", "2013-06-30", 42.0]
["CDISCPILOT01", "QS", "01-701-1146", 5003.0, "ACITM03", "DELAYED WORD RECALL", "ADAS-COG", "", "9", "", "9", 9.0, "", "", "", "Y", "", 3.0, "BASELINE", 1.0, "TREATMENT", "2013-05-20", 1.0]
["CDISCPILOT01", "QS", "01-701-1146", 5018.0, "ACITM03", "DELAYED WORD RECALL", "ADAS-COG", "", "9", "", "9", 9.0, "", "", "", "", "", 7.0, "WEEK 6", 42.0, "TREATMENT", "2013-06-30", 42.0]
["CDISCPILOT01", "QS", "01-701-1146", 5004.0, "ACITM04", "COMMANDS", "ADAS-COG", "", "0", "", "0", 0.0, "", "", "", "Y", "", 3.0, "BASELINE", 1.0, "TREATMENT", "2013-05-20", 1.0]
["CDISCPILOT01", "QS", "01-701-1146", 5019.0, "ACITM04", "COMMANDS", "ADAS-COG", "", "0", "", "0", 0.0, "", "", "", "", "", 7.0, "WEEK 6", 42.0, "TREATMENT", "2013-06-30", 42.0]
["CDISCPILOT01", "QS", "01-701-1146", 5005.0, "ACITM05", "CONSTRUCTIONAL PRAXIS", "ADAS-COG", "", "0", "", "0", 0.0, "", "", "", "Y", "", 3.0, "BASELINE", 1.0, "TREATMENT", "2013-05-20", 1.0]
["CDISCPILOT01", "QS", "01-701-1146", 5020.0, "ACITM05", "CONSTRUCTIONAL PRAXIS", "ADAS-COG", "", "0", "", "0", 0.0, "", "", "", "", "", 7.0, "WEEK 6", 42.0, "TREATMENT", "2013-06-30", 42.0]
["CDISCPILOT01", "QS", "01-701-1146", 5006.0, "ACITM06", "IDEATIONAL PRAXIS", "ADAS-COG", "", "1", "", "1", 1.0, "", "", "", "Y", "", 3.0, "BASELINE", 1.0, "TREATMENT", "2013-05-20", 1.0]
["CDISCPILOT01", "QS", "01-701-1146", 5021.0, "ACITM06", "IDEATIONAL PRAXIS", "ADAS-COG", "", "1", "", "1", 1.0, "", "", "", "", "", 7.0, "WEEK 6", 42.0, "TREATMENT", "2013-06-30", 42.0]
["CDISCPILOT01", "QS", "01-701-1146", 5007.0, "ACITM07", "ORIENTATION", "ADAS-COG", "", "0", "", "0", 0.0, "", "", "", "Y", "", 3.0, "BASELINE", 1.0, "TREATMENT", "2013-05-20", 1.0]
["CDISCPILOT01", "QS", "01-701-1146", 5022.0, "ACITM07", "ORIENTATION", "ADAS-COG", "", "0", "", "0", 0.0, "", "", "", "", "", 7.0, "WEEK 6", 42.0, "TREATMENT", "2013-06-30", 42.0]
["CDISCPILOT01", "QS", "01-701-1146", 5008.0, "ACITM08", "WORD RECOGNITION", "ADAS-COG", "", "4", "", "4", 4.0, "", "", "", "Y", "", 3.0, "BASELINE", 1.0, "TREATMENT", "2013-05-20", 1.0]
["CDISCPILOT01", "QS", "01-701-1146", 5023.0, "ACITM08", "WORD RECOGNITION", "ADAS-COG", "", "3", "", "3", 3.0, "", "", "", "", "", 7.0, "WEEK 6", 42.0, "TREATMENT", "2013-06-30", 42.0]
["CDISCPILOT01", "QS", "01-701-1146", 5009.0, "ACITM09", "ATTENTION/VISUAL SEARCH TASK", "ADAS-COG", "", "17", "", "17", 17.0, "", "", "", "Y", "", 3.0, "BASELINE", 1.0, "TREATMENT", "2013-05-20", 1.0]
["CDISCPILOT01", "QS", "01-701-1146", 5024.0, "ACITM09", "ATTENTION/VISUAL SEARCH TASK", "ADAS-COG", "", "19", "", "19", 19.0, "", "", "", "", "", 7.0, "WEEK 6", 42.0, "TREATMENT", "2013-06-30", 42.0]
["CDISCPILOT01", "QS", "01-701-1146", 5010.0, "ACITM10", "MAZE SOLUTION", "ADAS-COG", "", "3", "sec", "3", 3.0, "sec", "", "", "Y", "", 3.0, "BASELINE", 1.0, "TREATMENT", "2013-05-20", 1.0]
["CDISCPILOT01", "QS", "01-701-1146", 5025.0, "ACITM10", "MAZE SOLUTION", "ADAS-COG", "", "13", "sec", "13", 13.0, "sec", "", "", "", "", 7.0, "WEEK 6", 42.0, "TREATMENT", "2013-06-30", 42.0]
["CDISCPILOT01", "QS", "01-701-1146", 5011.0, "ACITM11", "SPOKEN LANGUAGE ABILITY", "ADAS-COG", "", "1", "", "1", 1.0, "", "", "", "Y", "", 3.0, "BASELINE", 1.0, "TREATMENT", "2013-05-20", 1.0]
["CDISCPILOT01", "QS", "01-701-1146", 5026.0, "ACITM11", "SPOKEN LANGUAGE ABILITY", "ADAS-COG", "", "0", "", "0", 0.0, "", "", "", "", "", 7.0, "WEEK 6", 42.0, "TREATMENT", "2013-06-30", 42.0]
["CDISCPILOT01", "QS", "01-701-1146", 5012.0, "ACITM12", "COMPREHENSION OF SPOKEN LANGUAGE", "ADAS-COG", "", "0", "", "0", 0.0, "", "", "", "Y", "", 3.0, "BASELINE", 1.0, "TREATMENT", "2013-05-20", 1.0]
["CDISCPILOT01", "QS", "01-701-1146", 5027.0, "ACITM12", "COMPREHENSION OF SPOKEN LANGUAGE", "ADAS-COG", "", "0", "", "0", 0.0, "", "", "", "", "", 7.0, "WEEK 6", 42.0, "TREATMENT", "2013-06-30", 42.0]
["CDISCPILOT01", "QS", "01-701-1146", 5013.0, "ACITM13", "WORD FINDING DIFFICULTY IN SPONTANEOUS S", "ADAS-COG", "", "0", "", "0", 0.0, "", "", "", "Y", "", 3.0, "BASELINE", 1.0, "TREATMENT", "2013-05-20", 1.0]
["CDISCPILOT01", "QS", "01-701-1146", 5028.0, "ACITM13", "WORD FINDING DIFFICULTY IN SPONTANEOUS S", "ADAS-COG", "", "0", "", "0", 0.0, "", "", "", "", "", 7.0, "WEEK 6", 42.0, "TREATMENT", "2013-06-30", 42.0]
["CDISCPILOT01", "QS", "01-701-1146", 5014.0, "ACITM14", "RECALL OF TEST INSTRUCTIONS", "ADAS-COG", "", "0", "", "0", 0.0, "", "", "", "Y", "", 3.0, "BASELINE", 1.0, "TREATMENT", "2013-05-20", 1.0]
["CDISCPILOT01", "QS", "01-701-1146", 5029.0, "ACITM14", "RECALL OF TEST INSTRUCTIONS", "ADAS-COG", "", "2", "", "2", 2.0, "", "", "", "", "", 7.0, "WEEK 6", 42.0, "TREATMENT", "2013-06-30", 42.0]
["CDISCPILOT01", "QS", "01-701-1146", 5015.0, "ACTOT", "ADAS-COG(11) Subscore", "ADAS-COG", "", "", "", "11", 11.0, "", "", "", "Y", "Y", 3.0, "BASELINE", 1.0, "TREATMENT", "2013-05-20", 1.0]
["CDISCPILOT01", "QS", "01-701-1146", 5030.0, "ACTOT", "ADAS-COG(11) Subscore", "ADAS-COG", "", "", "", "10", 10.0, "", "", "", "", "Y", 7.0, "WEEK 6", 42.0, "TREATMENT", "2013-06-30", 42.0]
["CDISCPILOT01", "QS", "01-701-1148", 5001.0, "ACITM01", "WORD RECALL TASK", "ADAS-COG", "", "4", "", "4", 4.0, "", "", "", "Y", "", 3.0, "BASELINE", 1.0, "TREATMENT", "2013-08-23", 1.0]
["CDISCPILOT01", "QS", "01-701-1148", 5016.0, "ACITM01", "WORD RECALL TASK", "ADAS-COG", "", "4", "", "4", 4.0, "", "", "", "", "", 8.0, "WEEK 8", 56.0, "TREATMENT", "2013-10-18", 57.0]
["CDISCPILOT01", "QS", "01-701-1148", 5031.0, "ACITM01", "WORD RECALL TASK", "ADAS-COG", "", "4", "", "4", 4.0, "", "", "", "", "", 10.0, "WEEK 16", 112.0, "TREATMENT", "2013-12-13", 113.0]
["CDISCPILOT01", "QS", "01-701-1148", 5046.0, "ACITM01", "WORD RECALL TASK", "ADAS-COG", "", "6", "", "6", 6.0, "", "", "", "", "", 12.0, "WEEK 24", 168.0, "TREATMENT", "2014-02-08", 170.0]
["CDISCPILOT01", "QS", "01-701-1148", 5002.0, "ACITM02", "NAMING OBJECTS AND FINGERS (REFER TO 5 C", "ADAS-COG", "", "0", "", "0", 0.0, "", "", "", "Y", "", 3.0, "BASELINE", 1.0, "TREATMENT", "2013-08-23", 1.0]
["CDISCPILOT01", "QS", "01-701-1148", 5017.0, "ACITM02", "NAMING OBJECTS AND FINGERS (REFER TO 5 C", "ADAS-COG", "", "0", "", "0", 0.0, "", "", "", "", "", 8.0, "WEEK 8", 56.0, "TREATMENT", "2013-10-18", 57.0]
["CDISCPILOT01", "QS", "01-701-1148", 5032.0, "ACITM02", "NAMING OBJECTS AND FINGERS (REFER TO 5 C", "ADAS-COG", "", "0", "", "0", 0.0, "", "", "", "", "", 10.0, "WEEK 16", 112.0, "TREATMENT", "2013-12-13", 113.0]
["CDISCPILOT01", "QS", "01-701-1148", 5047.0, "ACITM02", "NAMING OBJECTS AND FINGERS (REFER TO 5 C", "ADAS-COG", "", "0", "", "0", 0.0, "", "", "", "", "", 12.0, "WEEK 24", 168.0, "TREATMENT", "2014-02-08", 170.0]
["CDISCPILOT01", "QS", "01-701-1148", 5003.0, "ACITM03", "DELAYED WORD RECALL", "ADAS-COG", "", "3", "", "3", 3.0, "", "", "", "Y", "", 3.0, "BASELINE", 1.0, "TREATMENT", "2013-08-23", 1.0]
["CDISCPILOT01", "QS", "01-701-1148", 5018.0, "ACITM03", "DELAYED WORD RECALL", "ADAS-COG", "", "3", "", "3", 3.0, "", "", "", "", "", 8.0, "WEEK 8", 56.0, "TREATMENT", "2013-10-18", 57.0]
["CDISCPILOT01", "QS", "01-701-1148", 5033.0, "ACITM03", "DELAYED WORD RECALL", "ADAS-COG", "", "4", "", "4", 4.0, "", "", "", "", "", 10.0, "WEEK 16", 112.0, "TREATMENT", "2013-12-13", 113.0]
["CDISCPILOT01", "QS", "01-701-1148", 5048.0, "ACITM03", "DELAYED WORD RECALL", "ADAS-COG", "", "5", "", "5", 5.0, "", "", "", "", "", 12.0, "WEEK 24", 168.0, "TREATMENT", "2014-02-08", 170.0]
["CDISCPILOT01", "QS", "01-701-1148", 5004.0, "ACITM04", "COMMANDS", "ADAS-COG", "", "0", "", "0", 0.0, "", "", "", "Y", "", 3.0, "BASELINE", 1.0, "TREATMENT", "2013-08-23", 1.0]
["CDISCPILOT01", "QS", "01-701-1148", 5019.0, "ACITM04", "COMMANDS", "ADAS-COG", "", "0", "", "0", 0.0, "", "", "", "", "", 8.0, "WEEK 8", 56.0, "TREATMENT", "2013-10-18", 57.0]
["CDISCPILOT01", "QS", "01-701-1148", 5034.0, "ACITM04", "COMMANDS", "ADAS-COG", "", "0", "", "0", 0.0, "", "", "", "", "", 10.0, "WEEK 16", 112.0, "TREATMENT", "2013-12-13", 113.0]
["CDISCPILOT01", "QS", "01-701-1148", 5049.0, "ACITM04", "COMMANDS", "ADAS-COG", "", "0", "", "0", 0.0, "", "", "", "", "", 12.0, "WEEK 24", 168.0, "TREATMENT", "2014-02-08", 170.0]
["CDISCPILOT01", "QS", "01-701-1148", 5005.0, "ACITM05", "CONSTRUCTIONAL PRAXIS", "ADAS-COG", "", "0", "", "0", 0.0, "", "", "", "Y", "", 3.0, "BASELINE", 1.0, "TREATMENT", "2013-08-23", 1.0]
["CDISCPILOT01", "QS", "01-701-1148", 5020.0, "ACITM05", "CONSTRUCTIONAL PRAXIS", "ADAS-COG", "", "1", "", "1", 1.0, "", "", "", "", "", 8.0, "WEEK 8", 56.0, "TREATMENT", "2013-10-18", 57.0]
["CDISCPILOT01", "QS", "01-701-1148", 5035.0, "ACITM05", "CONSTRUCTIONAL PRAXIS", "ADAS-COG", "", "2", "", "2", 2.0, "", "", "", "", "", 10.0, "WEEK 16", 112.0, "TREATMENT", "2013-12-13", 113.0]
["CDISCPILOT01", "QS", "01-701-1148", 5050.0, "ACITM05", "CONSTRUCTIONAL PRAXIS", "ADAS-COG", "", "1", "", "1", 1.0, "", "", "", "", "", 12.0, "WEEK 24", 168.0, "TREATMENT", "2014-02-08", 170.0]
["CDISCPILOT01", "QS", "01-701-1148", 5006.0, "ACITM06", "IDEATIONAL PRAXIS", "ADAS-COG", "", "0", "", "0", 0.0, "", "", "", "Y", "", 3.0, "BASELINE", 1.0, "TREATMENT", "2013-08-23", 1.0]
["CDISCPILOT01", "QS", "01-701-1148", 5021.0, "ACITM06", "IDEATIONAL PRAXIS", "ADAS-COG", "", "0", "", "0", 0.0, "", "", "", "", "", 8.0, "WEEK 8", 56.0, "TREATMENT", "2013-10-18", 57.0]
["CDISCPILOT01", "QS", "01-701-1148", 5036.0, "ACITM06", "IDEATIONAL PRAXIS", "ADAS-COG", "", "0", "", "0", 0.0, "", "", "", "", "", 10.0, "WEEK 16", 112.0, "TREATMENT", "2013-12-13", 113.0]
["CDISCPILOT01", "QS", "01-701-1148", 5051.0, "ACITM06", "IDEATIONAL PRAXIS", "ADAS-COG", "", "0", "", "0", 0.0, "", "", "", "", "", 12.0, "WEEK 24", 168.0, "TREATMENT", "2014-02-08", 170.0]
["CDISCPILOT01", "QS", "01-701-1148", 5007.0, "ACITM07", "ORIENTATION", "ADAS-COG", "", "0", "", "0", 0.0, "", "", "", "Y", "", 3.0, "BASELINE", 1.0, "TREATMENT", "2013-08-23", 1.0]
["CDISCPILOT01", "QS", "01-701-1148", 5022.0, "ACITM07", "ORIENTATION", "ADAS-COG", "", "0", "", "0", 0.0, "", "", "", "", "", 8.0, "WEEK 8", 56.0, "TREATMENT", "2013-10-18", 57.0]
["CDISCPILOT01", "QS", "01-701-1148", 5037.0, "ACITM07", "ORIENTATION", "ADAS-COG", "", "0", "", "0", 0.0, "", "", "", "", "", 10.0, "WEEK 16", 112.0, "TREATMENT", "2013-12-13", 113.0]
["CDISCPILOT01", "QS", "01-701-1148", 5052.0, "ACITM07", "ORIENTATION", "ADAS-COG", "", "0", "", "0", 0.0, "", "", "", "", "", 12.0, "WEEK 24", 168.0, "TREATMENT", "2014-02-08", 170.0]
["CDISCPILOT01", "QS", "01-701-1148", 5008.0, "ACITM08", "WORD RECOGNITION", "ADAS-COG", "", "1", "", "1", 1.0, "", "", "", "Y", "", 3.0, "BASELINE", 1.0, "TREATMENT", "2013-08-23", 1.0]
["CDISCPILOT01", "QS", "01-701-1148", 5023.0, "ACITM08", "WORD RECOGNITION", "ADAS-COG", "", "1", "", "1", 1.0, "", "", "", "", "", 8.0, "WEEK 8", 56.0, "TREATMENT", "2013-10-18", 57.0]
["CDISCPILOT01", "QS", "01-701-1148", 5038.0, "ACITM08", "WORD RECOGNITION", "ADAS-COG", "", "0", "", "0", 0.0, "", "", "", "", "", 10.0, "WEEK 16", 112.0, "TREATMENT", "2013-12-13", 113.0]
["CDISCPILOT01", "QS", "01-701-1148", 5053.0, "ACITM08", "WORD RECOGNITION", "ADAS-COG", "", "0", "", "0", 0.0, "", "", "", "", "", 12.0, "WEEK 24", 168.0, "TREATMENT", "2014-02-08", 170.0]
["CDISCPILOT01", "QS", "01-701-1148", 5009.0, "ACITM09", "ATTENTION/VISUAL SEARCH TASK", "ADAS-COG", "", "29", "", "29", 29.0, "", "", "", "Y", "", 3.0, "BASELINE", 1.0, "TREATMENT", "2013-08-23", 1.0]
["CDISCPILOT01", "QS", "01-701-1148", 5024.0, "ACITM09", "ATTENTION/VISUAL SEARCH TASK", "ADAS-COG", "", "27", "", "27", 27.0, "", "", "", "", "", 8.0, "WEEK 8", 56.0, "TREATMENT", "2013-10-18", 57.0]
["CDISCPILOT01", "QS", "01-701-1148", 5039.0, "ACITM09", "ATTENTION/VISUAL SEARCH TASK", "ADAS-COG", "", "34", "", "34", 34.0, "", "", "", "", "", 10.0, "WEEK 16", 112.0, "TREATMENT", "2013-12-13", 113.0]
["CDISCPILOT01", "QS", "01-701-1148", 5054.0, "ACITM09", "ATTENTION/VISUAL SEARCH TASK", "ADAS-COG", "", "39", "", "39", 39.0, "", "", "", "", "", 12.0, "WEEK 24", 168.0, "TREATMENT", "2014-02-08", 170.0]
["CDISCPILOT01", "QS", "01-701-1148", 5010.0, "ACITM10", "MAZE SOLUTION", "ADAS-COG", "", "4", "sec", "4", 4.0, "sec", "", "", "Y", "", 3.0, "BASELINE", 1.0, "TREATMENT", "2013-08-23", 1.0]
["CDISCPILOT01", "QS", "01-701-1148", 5025.0, "ACITM10", "MAZE SOLUTION", "ADAS-COG", "", "2", "sec", "2", 2.0, "sec", "", "", "", "", 8.0, "WEEK 8", 56.0, "TREATMENT", "2013-10-18", 57.0]
["CDISCPILOT01", "QS", "01-701-1148", 5040.0, "ACITM10", "MAZE SOLUTION", "ADAS-COG", "", "3", "sec", "3", 3.0, "sec", "", "", "", "", 10.0, "WEEK 16", 112.0, "TREATMENT", "2013-12-13", 113.0]
["CDISCPILOT01", "QS", "01-701-1148", 5055.0, "ACITM10", "MAZE SOLUTION", "ADAS-COG", "", "2", "sec", "2", 2.0, "sec", "", "", "", "", 12.0, "WEEK 24", 168.0, "TREATMENT", "2014-02-08", 170.0]
["CDISCPILOT01", "QS", "01-701-1148", 5011.0, "ACITM11", "SPOKEN LANGUAGE ABILITY", "ADAS-COG", "", "0", "", "0", 0.0, "", "", "", "Y", "", 3.0, "BASELINE", 1.0, "TREATMENT", "2013-08-23", 1.0]
["CDISCPILOT01", "QS", "01-701-1148", 5026.0, "ACITM11", "SPOKEN LANGUAGE ABILITY", "ADAS-COG", "", "0", "", "0", 0.0, "", "", "", "", "", 8.0, "WEEK 8", 56.0, "TREATMENT", "2013-10-18", 57.0]
["CDISCPILOT01", "QS", "01-701-1148", 5041.0, "ACITM11", "SPOKEN LANGUAGE ABILITY", "ADAS-COG", "", "0", "", "0", 0.0, "", "", "", "", "", 10.0, "WEEK 16", 112.0, "TREATMENT", "2013-12-13", 113.0]
["CDISCPILOT01", "QS", "01-701-1148", 5056.0, "ACITM11", "SPOKEN LANGUAGE ABILITY", "ADAS-COG", "", "0", "", "0", 0.0, "", "", "", "", "", 12.0, "WEEK 24", 168.0, "TREATMENT", "2014-02-08", 170.0]
["CDISCPILOT01", "QS", "01-701-1148", 5012.0, "ACITM12", "COMPREHENSION OF SPOKEN LANGUAGE", "ADAS-COG", "", "0", "", "0", 0.0, "", "", "", "Y", "", 3.0, "BASELINE", 1.0, "TREATMENT", "2013-08-23", 1.0]
["CDISCPILOT01", "QS", "01-701-1148", 5027.0, "ACITM12", "COMPREHENSION OF SPOKEN LANGUAGE", "ADAS-COG", "", "0", "", "0", 0.0, "", "", "", "", "", 8.0, "WEEK 8", 56.0, "TREATMENT", "2013-10-18", 57.0]
["CDISCPILOT01", "QS", "01-701-1148", 5042.0, "ACITM12", "COMPREHENSION OF SPOKEN LANGUAGE", "ADAS-COG", "", "0", "", "0", 0.0, "", "", "", "", "", 10.0, "WEEK 16", 112.0, "TREATMENT", "2013-12-13", 113.0]
["CDISCPILOT01", "QS", "01-701-1148", 5057.0, "ACITM12", "COMPREHENSION OF SPOKEN LANGUAGE", "ADAS-COG", "", "0", "", "0", 0.0, "", "", "", "", "", 12.0, "WEEK 24", 168.0, "TREATMENT", "2014-02-08", 170.0]
["CDISCPILOT01", "QS", "01-701-1148", 5013.0, "ACITM13", "WORD FINDING DIFFICULTY IN SPONTANEOUS S", "ADAS-COG", "", "0", "", "0", 0.0, "", "", "", "Y", "", 3.0, "BASELINE", 1.0, "TREATMENT", "2013-08-23", 1.0]
["CDISCPILOT01", "QS", "01-701-1148", 5028.0, "ACITM13", "WORD FINDING DIFFICULTY IN SPONTANEOUS S", "ADAS-COG", "", "0", "", "0", 0.0, "", "", "", "", "", 8.0, "WEEK 8", 56.0, "TREATMENT", "2013-10-18", 57.0]
["CDISCPILOT01", "QS", "01-701-1148", 5043.0, "ACITM13", "WORD FINDING DIFFICULTY IN SPONTANEOUS S", "ADAS-COG", "", "0", "", "0", 0.0, "", "", "", "", "", 10.0, "WEEK 16", 112.0, "TREATMENT", "2013-12-13", 113.0]
["CDISCPILOT01", "QS", "01-701-1148", 5058.0, "ACITM13", "WORD FINDING DIFFICULTY IN SPONTANEOUS S", "ADAS-COG", "", "0", "", "0", 0.0, "", "", "", "", "", 12.0, "WEEK 24", 168.0, "TREATMENT", "2014-02-08", 170.0]
["CDISCPILOT01", "QS", "01-701-1148", 5014.0, "ACITM14", "RECALL OF TEST INSTRUCTIONS", "ADAS-COG", "", "0", "", "0", 0.0, "", "", "", "Y", "", 3.0, "BASELINE", 1.0, "TREATMENT", "2013-08-23", 1.0]
["CDISCPILOT01", "QS", "01-701-1148", 5029.0, "ACITM14", "RECALL OF TEST INSTRUCTIONS", "ADAS-COG", "", "0", "", "0", 0.0, "", "", "", "", "", 8.0, "WEEK 8", 56.0, "TREATMENT", "2013-10-18", 57.0]
["CDISCPILOT01", "QS", "01-701-1148", 5044.0, "ACITM14", "RECALL OF TEST INSTRUCTIONS", "ADAS-COG", "", "0", "", "0", 0.0, "", "", "", "", "", 10.0, "WEEK 16", 112.0, "TREATMENT", "2013-12-13", 113.0]
["CDISCPILOT01", "QS", "01-701-1148", 5059.0, "ACITM14", "RECALL OF TEST INSTRUCTIONS", "ADAS-COG", "", "0", "", "0", 0.0, "", "", "", "", "", 12.0, "WEEK 24", 168.0, "TREATMENT", "2014-02-08", 170.0]
["CDISCPILOT01", "QS", "01-701-1148", 5015.0, "ACTOT", "ADAS-COG(11) Subscore", "ADAS-COG", "", "", "", "5", 5.0, "", "", "", "Y", "Y", 3.0, "BASELINE", 1.0, "TREATMENT", "2013-08-23", 1.0]
["CDISCPILOT01", "QS", "01-701-1148", 5030.0, "ACTOT", "ADAS-COG(11) Subscore", "ADAS-COG", "", "", "", "6", 6.0, "", "", "", "", "Y", 8.0, "WEEK 8", 56.0, "TREATMENT", "2013-10-18", 57.0]
["CDISCPILOT01", "QS", "01-701-1148", 5045.0, "ACTOT", "ADAS-COG(11) Subscore", "ADAS-COG", "", "", "", "6", 6.0, "", "", "", "", "Y", 10.0, "WEEK 16", 112.0, "TREATMENT", "2013-12-13", 113.0]
["CDISCPILOT01", "QS", "01-701-1148", 5060.0, "ACTOT", "ADAS-COG(11) Subscore", "ADAS-COG", "", "", "", "7", 7.0, "", "", "", "", "Y", 12.0, "WEEK 24", 168.0, "TREATMENT", "2014-02-08", 170.0]
["CDISCPILOT01", "QS", "01-701-1153", 5001.0, "ACITM01", "WORD RECALL TASK", "ADAS-COG", "", "10", "", "10", 10.0, "", "", "", "Y", "", 3.0, "BASELINE", 1.0, "TREATMENT", "2013-09-23", 1.0]
["CDISCPILOT01", "QS", "01-701-1153", 5016.0, "ACITM01", "WORD RECALL TASK", "ADAS-COG", "", "10", "", "10", 10.0, "", "", "", "", "", 8.0, "WEEK 8", 56.0, "TREATMENT", "2013-11-18", 57.0]
["CDISCPILOT01", "QS", "01-701-1153", 5031.0, "ACITM01", "WORD RECALL TASK", "ADAS-COG", "", "10", "", "10", 10.0, "", "", "", "", "", 10.0, "WEEK 16", 112.0, "TREATMENT", "2014-01-08", 108.0]
["CDISCPILOT01", "QS", "01-701-1153", 5046.0, "ACITM01", "WORD RECALL TASK", "ADAS-COG", "", "10", "", "10", 10.0, "", "", "", "", "", 12.0, "WEEK 24", 168.0, "TREATMENT", "2014-03-11", 170.0]
["CDISCPILOT01", "QS", "01-701-1153", 5002.0, "ACITM02", "NAMING OBJECTS AND FINGERS (REFER TO 5 C", "ADAS-COG", "", "4", "", "4", 4.0, "", "", "", "Y", "", 3.0, "BASELINE", 1.0, "TREATMENT", "2013-09-23", 1.0]
["CDISCPILOT01", "QS", "01-701-1153", 5017.0, "ACITM02", "NAMING OBJECTS AND FINGERS (REFER TO 5 C", "ADAS-COG", "", "4", "", "4", 4.0, "", "", "", "", "", 8.0, "WEEK 8", 56.0, "TREATMENT", "2013-11-18", 57.0]
["CDISCPILOT01", "QS", "01-701-1153", 5032.0, "ACITM02", "NAMING OBJECTS AND FINGERS (REFER TO 5 C", "ADAS-COG", "", "5", "", "5", 5.0, "", "", "", "", "", 10.0, "WEEK 16", 112.0, "TREATMENT", "2014-01-08", 108.0]
["CDISCPILOT01", "QS", "01-701-1153", 5047.0, "ACITM02", "NAMING OBJECTS AND FINGERS (REFER TO 5 C", "ADAS-COG", "", "4", "", "4", 4.0, "", "", "", "", "", 12.0, "WEEK 24", 168.0, "TREATMENT", "2014-03-11", 170.0]
["CDISCPILOT01", "QS", "01-701-1153", 5003.0, "ACITM03", "DELAYED WORD RECALL", "ADAS-COG", "", "10", "", "10", 10.0, "", "", "", "Y", "", 3.0, "BASELINE", 1.0, "TREATMENT", "2013-09-23", 1.0]
["CDISCPILOT01", "QS", "01-701-1153", 5018.0, "ACITM03", "DELAYED WORD RECALL", "ADAS-COG", "", "10", "", "10", 10.0, "", "", "", "", "", 8.0, "WEEK 8", 56.0, "TREATMENT", "2013-11-18", 57.0]
["CDISCPILOT01", "QS", "01-701-1153", 5033.0, "ACITM03", "DELAYED WORD RECALL", "ADAS-COG", "", "10", "", "10", 10.0, "", "", "", "", "", 10.0, "WEEK 16", 112.0, "TREATMENT", "2014-01-08", 108.0]
["CDISCPILOT01", "QS", "01-701-1153", 5048.0, "ACITM03", "DELAYED WORD RECALL", "ADAS-COG", "", "10", "", "10", 10.0, "", "", "", "", "", 12.0, "WEEK 24", 168.0, "TREATMENT", "2014-03-11", 170.0]
["CDISCPILOT01", "QS", "01-701-1153", 5004.0, "ACITM04", "COMMANDS", "ADAS-COG", "", "3", "", "3", 3.0, "", "", "", "Y", "", 3.0, "BASELINE", 1.0, "TREATMENT", "2013-09-23", 1.0]
["CDISCPILOT01", "QS", "01-701-1153", 5019.0, "ACITM04", "COMMANDS", "ADAS-COG", "", "2", "", "2", 2.0, "", "", "", "", "", 8.0, "WEEK 8", 56.0, "TREATMENT", "2013-11-18", 57.0]
["CDISCPILOT01", "QS", "01-701-1153", 5034.0, "ACITM04", "COMMANDS", "ADAS-COG", "", "2", "", "2", 2.0, "", "", "", "", "", 10.0, "WEEK 16", 112.0, "TREATMENT", "2014-01-08", 108.0]
["CDISCPILOT01", "QS", "01-701-1153", 5049.0, "ACITM04", "COMMANDS", "ADAS-COG", "", "1", "", "1", 1.0, "", "", "", "", "", 12.0, "WEEK 24", 168.0, "TREATMENT", "2014-03-11", 170.0]
["CDISCPILOT01", "QS", "01-701-1153", 5005.0, "ACITM05", "CONSTRUCTIONAL PRAXIS", "ADAS-COG", "", "2", "", "2", 2.0, "", "", "", "Y", "", 3.0, "BASELINE", 1.0, "TREATMENT", "2013-09-23", 1.0]
["CDISCPILOT01", "QS", "01-701-1153", 5020.0, "ACITM05", "CONSTRUCTIONAL PRAXIS", "ADAS-COG", "", "1", "", "1", 1.0, "", "", "", "", "", 8.0, "WEEK 8", 56.0, "TREATMENT", "2013-11-18", 57.0]
["CDISCPILOT01", "QS", "01-701-1153", 5035.0, "ACITM05", "CONSTRUCTIONAL PRAXIS", "ADAS-COG", "", "2", "", "2", 2.0, "", "", "", "", "", 10.0, "WEEK 16", 112.0, "TREATMENT", "2014-01-08", 108.0]
["CDISCPILOT01", "QS", "01-701-1153", 5050.0, "ACITM05", "CONSTRUCTIONAL PRAXIS", "ADAS-COG", "", "2", "", "2", 2.0, "", "", "", "", "", 12.0, "WEEK 24", 168.0, "TREATMENT", "2014-03-11", 170.0]
["CDISCPILOT01", "QS", "01-701-1153", 5006.0, "ACITM06", "IDEATIONAL PRAXIS", "ADAS-COG", "", "1", "", "1", 1.0, "", "", "", "Y", "", 3.0, "BASELINE", 1.0, "TREATMENT", "2013-09-23", 1.0]
["CDISCPILOT01", "QS", "01-701-1153", 5021.0, "ACITM06", "IDEATIONAL PRAXIS", "ADAS-COG", "", "0", "", "0", 0.0, "", "", "", "", "", 8.0, "WEEK 8", 56.0, "TREATMENT", "2013-11-18", 57.0]
["CDISCPILOT01", "QS", "01-701-1153", 5036.0, "ACITM06", "IDEATIONAL PRAXIS", "ADAS-COG", "", "1", "", "1", 1.0, "", "", "", "", "", 10.0, "WEEK 16", 112.0, "TREATMENT", "2014-01-08", 108.0]
["CDISCPILOT01", "QS", "01-701-1153", 5051.0, "ACITM06", "IDEATIONAL PRAXIS", "ADAS-COG", "", "1", "", "1", 1.0, "", "", "", "", "", 12.0, "WEEK 24", 168.0, "TREATMENT", "2014-03-11", 170.0]
["CDISCPILOT01", "QS", "01-701-1153", 5007.0, "ACITM07", "ORIENTATION", "ADAS-COG", "", "6", "", "6", 6.0, "", "", "", "Y", "", 3.0, "BASELINE", 1.0, "TREATMENT", "2013-09-23", 1.0]
["CDISCPILOT01", "QS", "01-701-1153", 5022.0, "ACITM07", "ORIENTATION", "ADAS-COG", "", "7", "", "7", 7.0, "", "", "", "", "", 8.0, "WEEK 8", 56.0, "TREATMENT", "2013-11-18", 57.0]
["CDISCPILOT01", "QS", "01-701-1153", 5037.0, "ACITM07", "ORIENTATION", "ADAS-COG", "", "8", "", "8", 8.0, "", "", "", "", "", 10.0, "WEEK 16", 112.0, "TREATMENT", "2014-01-08", 108.0]
["CDISCPILOT01", "QS", "01-701-1153", 5052.0, "ACITM07", "ORIENTATION", "ADAS-COG", "", "8", "", "8", 8.0, "", "", "", "", "", 12.0, "WEEK 24", 168.0, "TREATMENT", "2014-03-11", 170.0]
["CDISCPILOT01", "QS", "01-701-1153", 5008.0, "ACITM08", "WORD RECOGNITION", "ADAS-COG", "", "10", "", "10", 10.0, "", "", "", "Y", "", 3.0, "BASELINE", 1.0, "TREATMENT", "2013-09-23", 1.0]
["CDISCPILOT01", "QS", "01-701-1153", 5023.0, "ACITM08", "WORD RECOGNITION", "ADAS-COG", "", "12", "", "12", 12.0, "", "", "", "", "", 8.0, "WEEK 8", 56.0, "TREATMENT", "2013-11-18", 57.0]
["CDISCPILOT01", "QS", "01-701-1153", 5038.0, "ACITM08", "WORD RECOGNITION", "ADAS-COG", "", "12", "", "12", 12.0, "", "", "", "", "", 10.0, "WEEK 16", 112.0, "TREATMENT", "2014-01-08", 108.0]
["CDISCPILOT01", "QS", "01-701-1153", 5053.0, "ACITM08", "WORD RECOGNITION", "ADAS-COG", "", "11", "", "11", 11.0, "", "", "", "", "", 12.0, "WEEK 24", 168.0, "TREATMENT", "2014-03-11", 170.0]
["CDISCPILOT01", "QS", "01-701-1153", 5009.0, "ACITM09", "ATTENTION/VISUAL SEARCH TASK", "ADAS-COG", "", "1", "", "1", 1.0, "", "", "", "Y", "", 3.0, "BASELINE", 1.0, "TREATMENT", "2013-09-23", 1.0]
["CDISCPILOT01", "QS", "01-701-1153", 5024.0, "ACITM09", "ATTENTION/VISUAL SEARCH TASK", "ADAS-COG", "", "4", "", "4", 4.0, "", "", "", "", "", 8.0, "WEEK 8", 56.0, "TREATMENT", "2013-11-18", 57.0]
["CDISCPILOT01", "QS", "01-701-1153", 5039.0, "ACITM09", "ATTENTION/VISUAL SEARCH TASK", "ADAS-COG", "", "3", "", "3", 3.0, "", "", "", "", "", 10.0, "WEEK 16", 112.0, "TREATMENT", "2014-01-08", 108.0]
["CDISCPILOT01", "QS", "01-701-1153", 5054.0, "ACITM09", "ATTENTION/VISUAL SEARCH TASK", "ADAS-COG", "", "5", "", "5", 5.0, "", "", "", "", "", 12.0, "WEEK 24", 168.0, "TREATMENT", "2014-03-11", 170.0]
["CDISCPILOT01", "QS", "01-701-1153", 5010.0, "ACITM10", "MAZE SOLUTION", "ADAS-COG", "", "15", "sec", "15", 15.0, "sec", "", "", "Y", "", 3.0, "BASELINE", 1.0, "TREATMENT", "2013-09-23", 1.0]
["CDISCPILOT01", "QS", "01-701-1153", 5025.0, "ACITM10", "MAZE SOLUTION", "ADAS-COG", "", "17", "sec", "17", 17.0, "sec", "", "", "", "", 8.0, "WEEK 8", 56.0, "TREATMENT", "2013-11-18", 57.0]
["CDISCPILOT01", "QS", "01-701-1153", 5040.0, "ACITM10", "MAZE SOLUTION", "ADAS-COG", "", "20", "sec", "20", 20.0, "sec", "", "", "", "", 10.0, "WEEK 16", 112.0, "TREATMENT", "2014-01-08", 108.0]
["CDISCPILOT01", "QS", "01-701-1153", 5055.0, "ACITM10", "MAZE SOLUTION", "ADAS-COG", "", "28", "sec", "28", 28.0, "sec", "", "", "", "", 12.0, "WEEK 24", 168.0, "TREATMENT", "2014-03-11", 170.0]
["CDISCPILOT01", "QS", "01-701-1153", 5011.0, "ACITM11", "SPOKEN LANGUAGE ABILITY", "ADAS-COG", "", "2", "", "2", 2.0, "", "", "", "Y", "", 3.0, "BASELINE", 1.0, "TREATMENT", "2013-09-23", 1.0]
["CDISCPILOT01", "QS", "01-701-1153", 5026.0, "ACITM11", "SPOKEN LANGUAGE ABILITY", "ADAS-COG", "", "2", "", "2", 2.0, "", "", "", "", "", 8.0, "WEEK 8", 56.0, "TREATMENT", "2013-11-18", 57.0]
["CDISCPILOT01", "QS", "01-701-1153", 5041.0, "ACITM11", "SPOKEN LANGUAGE ABILITY", "ADAS-COG", "", "4", "", "4", 4.0, "", "", "", "", "", 10.0, "WEEK 16", 112.0, "TREATMENT", "2014-01-08", 108.0]
["CDISCPILOT01", "QS", "01-701-1153", 5056.0, "ACITM11", "SPOKEN LANGUAGE ABILITY", "ADAS-COG", "", "4", "", "4", 4.0, "", "", "", "", "", 12.0, "WEEK 24", 168.0, "TREATMENT", "2014-03-11", 170.0]
["CDISCPILOT01", "QS", "01-701-1153", 5012.0, "ACITM12", "COMPREHENSION OF SPOKEN LANGUAGE", "ADAS-COG", "", "2", "", "2", 2.0, "", "", "", "Y", "", 3.0, "BASELINE", 1.0, "TREATMENT", "2013-09-23", 1.0]
["CDISCPILOT01", "QS", "01-701-1153", 5027.0, "ACITM12", "COMPREHENSION OF SPOKEN LANGUAGE", "ADAS-COG", "", "2", "", "2", 2.0, "", "", "", "", "", 8.0, "WEEK 8", 56.0, "TREATMENT", "2013-11-18", 57.0]
["CDISCPILOT01", "QS", "01-701-1153", 5042.0, "ACITM12", "COMPREHENSION OF SPOKEN LANGUAGE", "ADAS-COG", "", "3", "", "3", 3.0, "", "", "", "", "", 10.0, "WEEK 16", 112.0, "TREATMENT", "2014-01-08", 108.0]
["CDISCPILOT01", "QS", "01-701-1153", 5057.0, "ACITM12", "COMPREHENSION OF SPOKEN LANGUAGE", "ADAS-COG", "", "3", "", "3", 3.0, "", "", "", "", "", 12.0, "WEEK 24", 168.0, "TREATMENT", "2014-03-11", 170.0]
["CDISCPILOT01", "QS", "01-701-1153", 5013.0, "ACITM13", "WORD FINDING DIFFICULTY IN SPONTANEOUS S", "ADAS-COG", "", "3", "", "3", 3.0, "", "", "", "Y", "", 3.0, "BASELINE", 1.0, "TREATMENT", "2013-09-23", 1.0]
["CDISCPILOT01", "QS", "01-701-1153", 5028.0, "ACITM13", "WORD FINDING DIFFICULTY IN SPONTANEOUS S", "ADAS-COG", "", "2", "", "2", 2.0, "", "", "", "", "", 8.0, "WEEK 8", 56.0, "TREATMENT", "2013-11-18", 57.0]
["CDISCPILOT01", "QS", "01-701-1153", 5043.0, "ACITM13", "WORD FINDING DIFFICULTY IN SPONTANEOUS S", "ADAS-COG", "", "3", "", "3", 3.0, "", "", "", "", "", 10.0, "WEEK 16", 112.0, "TREATMENT", "2014-01-08", 108.0]
["CDISCPILOT01", "QS", "01-701-1153", 5058.0, "ACITM13", "WORD FINDING DIFFICULTY IN SPONTANEOUS S", "ADAS-COG", "", "3", "", "3", 3.0, "", "", "", "", "", 12.0, "WEEK 24", 168.0, "TREATMENT", "2014-03-11", 170.0]
["CDISCPILOT01", "QS", "01-701-1153", 5014.0, "ACITM14", "RECALL OF TEST INSTRUCTIONS", "ADAS-COG", "", "5", "", "5", 5.0, "", "", "", "Y", "", 3.0, "BASELINE", 1.0, "TREATMENT", "2013-09-23", 1.0]
["CDISCPILOT01", "QS", "01-701-1153", 5029.0, "ACITM14", "RECALL OF TEST INSTRUCTIONS", "ADAS-COG", "", "5", "", "5", 5.0, "", "", "", "", "", 8.0, "WEEK 8", 56.0, "TREATMENT", "2013-11-18", 57.0]
["CDISCPILOT01", "QS", "01-701-1153", 5044.0, "ACITM14", "RECALL OF TEST INSTRUCTIONS", "ADAS-COG", "", "5", "", "5", 5.0, "", "", "", "", "", 10.0, "WEEK 16", 112.0, "TREATMENT", "2014-01-08", 108.0]
["CDISCPILOT01", "QS", "01-701-1153", 5059.0, "ACITM14", "RECALL OF TEST INSTRUCTIONS", "ADAS-COG", "", "5", "", "5", 5.0, "", "", "", "", "", 12.0, "WEEK 24", 168.0, "TREATMENT", "2014-03-11", 170.0]
["CDISCPILOT01", "QS", "01-701-1153", 5015.0, "ACTOT", "ADAS-COG(11) Subscore", "ADAS-COG", "", "", "", "48", 48.0, "", "", "", "Y", "Y", 3.0, "BASELINE", 1.0, "TREATMENT", "2013-09-23", 1.0]
["CDISCPILOT01", "QS", "01-701-1153", 5030.0, "ACTOT", "ADAS-COG(11) Subscore", "ADAS-COG", "", "", "", "47", 47.0, "", "", "", "", "Y", 8.0, "WEEK 8", 56.0, "TREATMENT", "2013-11-18", 57.0]
["CDISCPILOT01", "QS", "01-701-1153", 5045.0, "ACTOT", "ADAS-COG(11) Subscore", "ADAS-COG", "", "", "", "55", 55.0, "", "", "", "", "Y", 10.0, "WEEK 16", 112.0, "TREATMENT", "2014-01-08", 108.0]
["CDISCPILOT01", "QS", "01-701-1153", 5060.0, "ACTOT", "ADAS-COG(11) Subscore", "ADAS-COG", "", "", "", "52", 52.0, "", "", "", "", "Y", 12.0, "WEEK 24", 168.0, "TREATMENT", "2014-03-11", 170.0]
["CDISCPILOT01", "QS", "01-701-1180", 5001.0, "ACITM01", "WORD RECALL TASK", "ADAS-COG", "", "7", "", "7", 7.0, "", "", "", "Y", "", 3.0, "BASELINE", 1.0, "TREATMENT", "2013-02-12", 1.0]
["CDISCPILOT01", "QS", "01-701-1180", 5016.0, "ACITM01", "WORD RECALL TASK", "ADAS-COG", "", "5", "", "5", 5.0, "", "", "", "", "", 7.0, "WEEK 6", 42.0, "TREATMENT", "2013-03-23", 40.0]
["CDISCPILOT01", "QS", "01-701-1180", 5002.0, "ACITM02", "NAMING OBJECTS AND FINGERS (REFER TO 5 C", "ADAS-COG", "", "2", "", "2", 2.0, "", "", "", "Y", "", 3.0, "BASELINE", 1.0, "TREATMENT", "2013-02-12", 1.0]
["CDISCPILOT01", "QS", "01-701-1180", 5017.0, "ACITM02", "NAMING OBJECTS AND FINGERS (REFER TO 5 C", "ADAS-COG", "", "5", "", "5", 5.0, "", "", "", "", "", 7.0, "WEEK 6", 42.0, "TREATMENT", "2013-03-23", 40.0]
["CDISCPILOT01", "QS", "01-701-1180", 5003.0, "ACITM03", "DELAYED WORD RECALL", "ADAS-COG", "", "8", "", "8", 8.0, "", "", "", "Y", "", 3.0, "BASELINE", 1.0, "TREATMENT", "2013-02-12", 1.0]
["CDISCPILOT01", "QS", "01-701-1180", 5018.0, "ACITM03", "DELAYED WORD RECALL", "ADAS-COG", "", "9", "", "9", 9.0, "", "", "", "", "", 7.0, "WEEK 6", 42.0, "TREATMENT", "2013-03-23", 40.0]
["CDISCPILOT01", "QS", "01-701-1180", 5004.0, "ACITM04", "COMMANDS", "ADAS-COG", "", "2", "", "2", 2.0, "", "", "", "Y", "", 3.0, "BASELINE", 1.0, "TREATMENT", "2013-02-12", 1.0]
["CDISCPILOT01", "QS", "01-701-1180", 5019.0, "ACITM04", "COMMANDS", "ADAS-COG", "", "3", "", "3", 3.0, "", "", "", "", "", 7.0, "WEEK 6", 42.0, "TREATMENT", "2013-03-23", 40.0]
["CDISCPILOT01", "QS", "01-701-1180", 5005.0, "ACITM05", "CONSTRUCTIONAL PRAXIS", "ADAS-COG", "", "4", "", "4", 4.0, "", "", "", "Y", "", 3.0, "BASELINE", 1.0, "TREATMENT", "2013-02-12", 1.0]
["CDISCPILOT01", "QS", "01-701-1180", 5020.0, "ACITM05", "CONSTRUCTIONAL PRAXIS", "ADAS-COG", "", "4", "", "4", 4.0, "", "", "", "", "", 7.0, "WEEK 6", 42.0, "TREATMENT", "2013-03-23", 40.0]
["CDISCPILOT01", "QS", "01-701-1180", 5006.0, "ACITM06", "IDEATIONAL PRAXIS", "ADAS-COG", "", "0", "", "0", 0.0, "", "", "", "Y", "", 3.0, "BASELINE", 1.0, "TREATMENT", "2013-02-12", 1.0]
["CDISCPILOT01", "QS", "01-701-1180", 5021.0, "ACITM06", "IDEATIONAL PRAXIS", "ADAS-COG", "", "0", "", "0", 0.0, "", "", "", "", "", 7.0, "WEEK 6", 42.0, "TREATMENT", "2013-03-23", 40.0]
["CDISCPILOT01", "QS", "01-701-1180", 5007.0, "ACITM07", "ORIENTATION", "ADAS-COG", "", "2", "", "2", 2.0, "", "", "", "Y", "", 3.0, "BASELINE", 1.0, "TREATMENT", "2013-02-12", 1.0]
["CDISCPILOT01", "QS", "01-701-1180", 5022.0, "ACITM07", "ORIENTATION", "ADAS-COG", "", "0", "", "0", 0.0, "", "", "", "", "", 7.0, "WEEK 6", 42.0, "TREATMENT", "2013-03-23", 40.0]
["CDISCPILOT01", "QS", "01-701-1180", 5008.0, "ACITM08", "WORD RECOGNITION", "ADAS-COG", "", "9", "", "9", 9.0, "", "", "", "Y", "", 3.0, "BASELINE", 1.0, "TREATMENT", "2013-02-12", 1.0]
["CDISCPILOT01", "QS", "01-701-1180", 5023.0, "ACITM08", "WORD RECOGNITION", "ADAS-COG", "", "9", "", "9", 9.0, "", "", "", "", "", 7.0, "WEEK 6", 42.0, "TREATMENT", "2013-03-23", 40.0]
["CDISCPILOT01", "QS", "01-701-1180", 5009.0, "ACITM09", "ATTENTION/VISUAL SEARCH TASK", "ADAS-COG", "", "16", "", "16", 16.0, "", "", "", "Y", "", 3.0, "BASELINE", 1.0, "TREATMENT", "2013-02-12", 1.0]
["CDISCPILOT01", "QS", "01-701-1180", 5024.0, "ACITM09", "ATTENTION/VISUAL SEARCH TASK", "ADAS-COG", "", "9", "", "9", 9.0, "", "", "", "", "", 7.0, "WEEK 6", 42.0, "TREATMENT", "2013-03-23", 40.0]
["CDISCPILOT01", "QS", "01-701-1180", 5010.0, "ACITM10", "MAZE SOLUTION", "ADAS-COG", "", "5", "sec", "5", 5.0, "sec", "", "", "Y", "", 3.0, "BASELINE", 1.0, "TREATMENT", "2013-02-12", 1.0]
["CDISCPILOT01", "QS", "01-701-1180", 5025.0, "ACITM10", "MAZE SOLUTION", "ADAS-COG", "", "2", "sec", "2", 2.0, "sec", "", "", "", "", 7.0, "WEEK 6", 42.0, "TREATMENT", "2013-03-23", 40.0]
["CDISCPILOT01", "QS", "01-701-1180", 5011.0, "ACITM11", "SPOKEN LANGUAGE ABILITY", "ADAS-COG", "", "1", "", "1", 1.0, "", "", "", "Y", "", 3.0, "BASELINE", 1.0, "TREATMENT", "2013-02-12", 1.0]
["CDISCPILOT01", "QS", "01-701-1180", 5026.0, "ACITM11", "SPOKEN LANGUAGE ABILITY", "ADAS-COG", "", "0", "", "0", 0.0, "", "", "", "", "", 7.0, "WEEK 6", 42.0, "TREATMENT", "2013-03-23", 40.0]
["CDISCPILOT01", "QS", "01-701-1180", 5012.0, "ACITM12", "COMPREHENSION OF SPOKEN LANGUAGE", "ADAS-COG", "", "1", "", "1", 1.0, "", "", "", "Y", "", 3.0, "BASELINE", 1.0, "TREATMENT", "2013-02-12", 1.0]
["CDISCPILOT01", "QS", "01-701-1180", 5027.0, "ACITM12", "COMPREHENSION OF SPOKEN LANGUAGE", "ADAS-COG", "", "1", "", "1", 1.0, "", "", "", "", "", 7.0, "WEEK 6", 42.0, "TREATMENT", "2013-03-23", 40.0]
["CDISCPILOT01", "QS", "01-701-1180", 5013.0, "ACITM13", "WORD FINDING DIFFICULTY IN SPONTANEOUS S", "ADAS-COG", "", "1", "", "1", 1.0, "", "", "", "Y", "", 3.0, "BASELINE", 1.0, "TREATMENT", "2013-02-12", 1.0]
["CDISCPILOT01", "QS", "01-701-1180", 5028.0, "ACITM13", "WORD FINDING DIFFICULTY IN SPONTANEOUS S", "ADAS-COG", "", "1", "", "1", 1.0, "", "", "", "", "", 7.0, "WEEK 6", 42.0, "TREATMENT", "2013-03-23", 40.0]
["CDISCPILOT01", "QS", "01-701-1180", 5014.0, "ACITM14", "RECALL OF TEST INSTRUCTIONS", "ADAS-COG", "", "1", "", "1", 1.0, "", "", "", "Y", "", 3.0, "BASELINE", 1.0, "TREATMENT", "2013-02-12", 1.0]
["CDISCPILOT01", "QS", "01-701-1180", 5029.0, "ACITM14", "RECALL OF TEST INSTRUCTIONS", "ADAS-COG", "", "3", "", "3", 3.0, "", "", "", "", "", 7.0, "WEEK 6", 42.0, "TREATMENT", "2013-03-23", 40.0]
["CDISCPILOT01", "QS", "01-701-1180", 5015.0, "ACTOT", "ADAS-COG(11) Subscore", "ADAS-COG", "", "", "", "30", 30.0, "", "", "", "Y", "Y", 3.0, "BASELINE", 1.0, "TREATMENT", "2013-02-12", 1.0]
["CDISCPILOT01", "QS", "01-701-1180", 5030.0, "ACTOT", "ADAS-COG(11) Subscore", "ADAS-COG", "", "", "", "31", 31.0, "", "", "", "", "Y", 7.0, "WEEK 6", 42.0, "TREATMENT", "2013-03-23", 40.0]
["CDISCPILOT01", "QS", "01-701-1181", 5001.0, "ACITM01", "WORD RECALL TASK", "ADAS-COG", "", "7", "", "7", 7.0, "", "", "", "Y", "", 3.0, "BASELINE", 1.0, "TREATMENT", "2013-12-05", 1.0]
["CDISCPILOT01", "QS", "01-701-1181", 5016.0, "ACITM01", "WORD RECALL TASK", "ADAS-COG", "", "9", "", "9", 9.0, "", "", "", "", "", 4.0, "WEEK 2", 14.0, "TREATMENT", "2013-12-12", 8.0]
["CDISCPILOT01", "QS", "01-701-1181", 5031.0, "ACITM01", "WORD RECALL TASK", "ADAS-COG", "", "8", "", "8", 8.0, "", "", "", "", "", 201.0, "RETRIEVAL", 168.0, "TREATMENT", "2014-05-23", 170.0]
["CDISCPILOT01", "QS", "01-701-1181", 5002.0, "ACITM02", "NAMING OBJECTS AND FINGERS (REFER TO 5 C", "ADAS-COG", "", "3", "", "3", 3.0, "", "", "", "Y", "", 3.0, "BASELINE", 1.0, "TREATMENT", "2013-12-05", 1.0]
["CDISCPILOT01", "QS", "01-701-1181", 5017.0, "ACITM02", "NAMING OBJECTS AND FINGERS (REFER TO 5 C", "ADAS-COG", "", "2", "", "2", 2.0, "", "", "", "", "", 4.0, "WEEK 2", 14.0, "TREATMENT", "2013-12-12", 8.0]
["CDISCPILOT01", "QS", "01-701-1181", 5032.0, "ACITM02", "NAMING OBJECTS AND FINGERS (REFER TO 5 C", "ADAS-COG", "", "3", "", "3", 3.0, "", "", "", "", "", 201.0, "RETRIEVAL", 168.0, "TREATMENT", "2014-05-23", 170.0]
["CDISCPILOT01", "QS", "01-701-1181", 5003.0, "ACITM03", "DELAYED WORD RECALL", "ADAS-COG", "", "10", "", "10", 10.0, "", "", "", "Y", "", 3.0, "BASELINE", 1.0, "TREATMENT", "2013-12-05", 1.0]
["CDISCPILOT01", "QS", "01-701-1181", 5018.0, "ACITM03", "DELAYED WORD RECALL", "ADAS-COG", "", "10", "", "10", 10.0, "", "", "", "", "", 4.0, "WEEK 2", 14.0, "TREATMENT", "2013-12-12", 8.0]
["CDISCPILOT01", "QS", "01-701-1181", 5033.0, "ACITM03", "DELAYED WORD RECALL", "ADAS-COG", "", "10", "", "10", 10.0, "", "", "", "", "", 201.0, "RETRIEVAL", 168.0, "TREATMENT", "2014-05-23", 170.0]
["CDISCPILOT01", "QS", "01-701-1181", 5004.0, "ACITM04", "COMMANDS", "ADAS-COG", "", "1", "", "1", 1.0, "", "", "", "Y", "", 3.0, "BASELINE", 1.0, "TREATMENT", "2013-12-05", 1.0]
["CDISCPILOT01", "QS", "01-701-1181", 5019.0, "ACITM04", "COMMANDS", "ADAS-COG", "", "1", "", "1", 1.0, "", "", "", "", "", 4.0, "WEEK 2", 14.0, "TREATMENT", "2013-12-12", 8.0]
["CDISCPILOT01", "QS", "01-701-1181", 5034.0, "ACITM04", "COMMANDS", "ADAS-COG", "", "1", "", "1", 1.0, "", "", "", "", "", 201.0, "RETRIEVAL", 168.0, "TREATMENT", "2014-05-23", 170.0]
["CDISCPILOT01", "QS", "01-701-1181", 5005.0, "ACITM05", "CONSTRUCTIONAL PRAXIS", "ADAS-COG", "", "1", "", "1", 1.0, "", "", "", "Y", "", 3.0, "BASELINE", 1.0, "TREATMENT", "2013-12-05", 1.0]
["CDISCPILOT01", "QS", "01-701-1181", 5020.0, "ACITM05", "CONSTRUCTIONAL PRAXIS", "ADAS-COG", "", "1", "", "1", 1.0, "", "", "", "", "", 4.0, "WEEK 2", 14.0, "TREATMENT", "2013-12-12", 8.0]
["CDISCPILOT01", "QS", "01-701-1181", 5035.0, "ACITM05", "CONSTRUCTIONAL PRAXIS", "ADAS-COG", "", "1", "", "1", 1.0, "", "", "", "", "", 201.0, "RETRIEVAL", 168.0, "TREATMENT", "2014-05-23", 170.0]
["CDISCPILOT01", "QS", "01-701-1181", 5006.0, "ACITM06", "IDEATIONAL PRAXIS", "ADAS-COG", "", "3", "", "3", 3.0, "", "", "", "Y", "", 3.0, "BASELINE", 1.0, "TREATMENT", "2013-12-05", 1.0]
["CDISCPILOT01", "QS", "01-701-1181", 5021.0, "ACITM06", "IDEATIONAL PRAXIS", "ADAS-COG", "", "2", "", "2", 2.0, "", "", "", "", "", 4.0, "WEEK 2", 14.0, "TREATMENT", "2013-12-12", 8.0]
["CDISCPILOT01", "QS", "01-701-1181", 5036.0, "ACITM06", "IDEATIONAL PRAXIS", "ADAS-COG", "", "3", "", "3", 3.0, "", "", "", "", "", 201.0, "RETRIEVAL", 168.0, "TREATMENT", "2014-05-23", 170.0]
["CDISCPILOT01", "QS", "01-701-1181", 5007.0, "ACITM07", "ORIENTATION", "ADAS-COG", "", "5", "", "5", 5.0, "", "", "", "Y", "", 3.0, "BASELINE", 1.0, "TREATMENT", "2013-12-05", 1.0]
["CDISCPILOT01", "QS", "01-701-1181", 5022.0, "ACITM07", "ORIENTATION", "ADAS-COG", "", "7", "", "7", 7.0, "", "", "", "", "", 4.0, "WEEK 2", 14.0, "TREATMENT", "2013-12-12", 8.0]
["CDISCPILOT01", "QS", "01-701-1181", 5037.0, "ACITM07", "ORIENTATION", "ADAS-COG", "", "7", "", "7", 7.0, "", "", "", "", "", 201.0, "RETRIEVAL", 168.0, "TREATMENT", "2014-05-23", 170.0]
["CDISCPILOT01", "QS", "01-701-1181", 5008.0, "ACITM08", "WORD RECOGNITION", "ADAS-COG", "", "7", "", "7", 7.0, "", "", "", "Y", "", 3.0, "BASELINE", 1.0, "TREATMENT", "2013-12-05", 1.0]
["CDISCPILOT01", "QS", "01-701-1181", 5023.0, "ACITM08", "WORD RECOGNITION", "ADAS-COG", "", "12", "", "12", 12.0, "", "", "", "", "", 4.0, "WEEK 2", 14.0, "TREATMENT", "2013-12-12", 8.0]
["CDISCPILOT01", "QS", "01-701-1181", 5038.0, "ACITM08", "WORD RECOGNITION", "ADAS-COG", "", "9", "", "9", 9.0, "", "", "", "", "", 201.0, "RETRIEVAL", 168.0, "TREATMENT", "2014-05-23", 170.0]
["CDISCPILOT01", "QS", "01-701-1181", 5009.0, "ACITM09", "ATTENTION/VISUAL SEARCH TASK", "ADAS-COG", "", "0", "", "0", 0.0, "", "", "", "Y", "", 3.0, "BASELINE", 1.0, "TREATMENT", "2013-12-05", 1.0]
["CDISCPILOT01", "QS", "01-701-1181", 5024.0, "ACITM09", "ATTENTION/VISUAL SEARCH TASK", "ADAS-COG", "", "25", "", "25", 25.0, "", "", "", "", "", 4.0, "WEEK 2", 14.0, "TREATMENT", "2013-12-12", 8.0]
["CDISCPILOT01", "QS", "01-701-1181", 5039.0, "ACITM09", "ATTENTION/VISUAL SEARCH TASK", "ADAS-COG", "", "21", "", "21", 21.0, "", "", "", "", "", 201.0, "RETRIEVAL", 168.0, "TREATMENT", "2014-05-23", 170.0]
["CDISCPILOT01", "QS", "01-701-1181", 5010.0, "ACITM10", "MAZE SOLUTION", "ADAS-COG", "", "10", "sec", "10", 10.0, "sec", "", "", "Y", "", 3.0, "BASELINE", 1.0, "TREATMENT", "2013-12-05", 1.0]
["CDISCPILOT01", "QS", "01-701-1181", 5025.0, "ACITM10", "MAZE SOLUTION", "ADAS-COG", "", "22", "sec", "22", 22.0, "sec", "", "", "", "", 4.0, "WEEK 2", 14.0, "TREATMENT", "2013-12-12", 8.0]
["CDISCPILOT01", "QS", "01-701-1181", 5040.0, "ACITM10", "MAZE SOLUTION", "ADAS-COG", "", "8", "sec", "8", 8.0, "sec", "", "", "", "", 201.0, "RETRIEVAL", 168.0, "TREATMENT", "2014-05-23", 170.0]
["CDISCPILOT01", "QS", "01-701-1181", 5011.0, "ACITM11", "SPOKEN LANGUAGE ABILITY", "ADAS-COG", "", "1", "", "1", 1.0, "", "", "", "Y", "", 3.0, "BASELINE", 1.0, "TREATMENT", "2013-12-05", 1.0]
["CDISCPILOT01", "QS", "01-701-1181", 5026.0, "ACITM11", "SPOKEN LANGUAGE ABILITY", "ADAS-COG", "", "0", "", "0", 0.0, "", "", "", "", "", 4.0, "WEEK 2", 14.0, "TREATMENT", "2013-12-12", 8.0]
["CDISCPILOT01", "QS", "01-701-1181", 5041.0, "ACITM11", "SPOKEN LANGUAGE ABILITY", "ADAS-COG", "", "1", "", "1", 1.0, "", "", "", "", "", 201.0, "RETRIEVAL", 168.0, "TREATMENT", "2014-05-23", 170.0]
["CDISCPILOT01", "QS", "01-701-1181", 5012.0, "ACITM12", "COMPREHENSION OF SPOKEN LANGUAGE", "ADAS-COG", "", "1", "", "1", 1.0, "", "", "", "Y", "", 3.0, "BASELINE", 1.0, "TREATMENT", "2013-12-05", 1.0]
["CDISCPILOT01", "QS", "01-701-1181", 5027.0, "ACITM12", "COMPREHENSION OF SPOKEN LANGUAGE", "ADAS-COG", "", "1", "", "1", 1.0, "", "", "", "", "", 4.0, "WEEK 2", 14.0, "TREATMENT", "2013-12-12", 8.0]
["CDISCPILOT01", "QS", "01-701-1181", 5042.0, "ACITM12", "COMPREHENSION OF SPOKEN LANGUAGE", "ADAS-COG", "", "1", "", "1", 1.0, "", "", "", "", "", 201.0, "RETRIEVAL", 168.0, "TREATMENT", "2014-05-23", 170.0]
["CDISCPILOT01", "QS", "01-701-1181", 5013.0, "ACITM13", "WORD FINDING DIFFICULTY IN SPONTANEOUS S", "ADAS-COG", "", "0", "", "0", 0.0, "", "", "", "Y", "", 3.0, "BASELINE", 1.0, "TREATMENT", "2013-12-05", 1.0]
["CDISCPILOT01", "QS", "01-701-1181", 5028.0, "ACITM13", "WORD FINDING DIFFICULTY IN SPONTANEOUS S", "ADAS-COG", "", "1", "", "1", 1.0, "", "", "", "", "", 4.0, "WEEK 2", 14.0, "TREATMENT", "2013-12-12", 8.0]
["CDISCPILOT01", "QS", "01-701-1181", 5043.0, "ACITM13", "WORD FINDING DIFFICULTY IN SPONTANEOUS S", "ADAS-COG", "", "2", "", "2", 2.0, "", "", "", "", "", 201.0, "RETRIEVAL", 168.0, "TREATMENT", "2014-05-23", 170.0]
["CDISCPILOT01", "QS", "01-701-1181", 5014.0, "ACITM14", "RECALL OF TEST INSTRUCTIONS", "ADAS-COG", "", "3", "", "3", 3.0, "", "", "", "Y", "", 3.0, "BASELINE", 1.0, "TREATMENT", "2013-12-05", 1.0]
["CDISCPILOT01", "QS", "01-701-1181", 5029.0, "ACITM14", "RECALL OF TEST INSTRUCTIONS", "ADAS-COG", "", "3", "", "3", 3.0, "", "", "", "", "", 4.0, "WEEK 2", 14.0, "TREATMENT", "2013-12-12", 8.0]
["CDISCPILOT01", "QS", "01-701-1181", 5044.0, "ACITM14", "RECALL OF TEST INSTRUCTIONS", "ADAS-COG", "", "2", "", "2", 2.0, "", "", "", "", "", 201.0, "RETRIEVAL", 168.0, "TREATMENT", "2014-05-23", 170.0]
["CDISCPILOT01", "QS", "01-701-1181", 5015.0, "ACTOT", "ADAS-COG(11) Subscore", "ADAS-COG", "", "", "", "32", 32.0, "", "", "", "Y", "Y", 3.0, "BASELINE", 1.0, "TREATMENT", "2013-12-05", 1.0]
["CDISCPILOT01", "QS", "01-701-1181", 5030.0, "ACTOT", "ADAS-COG(11) Subscore", "ADAS-COG", "", "", "", "39", 39.0, "", "", "", "", "Y", 4.0, "WEEK 2", 14.0, "TREATMENT", "2013-12-12", 8.0]
["CDISCPILOT01", "QS", "01-701-1181", 5045.0, "ACTOT", "ADAS-COG(11) Subscore", "ADAS-COG", "", "", "", "38", 38.0, "", "", "", "", "Y", 201.0, "RETRIEVAL", 168.0, "TREATMENT", "2014-05-23", 170.0]
["CDISCPILOT01", "QS", "01-701-1188", 5001.0, "ACITM01", "WORD RECALL TASK", "ADAS-COG", "", "5", "", "5", 5.0, "", "", "", "Y", "", 3.0, "BASELINE", 1.0, "TREATMENT", "2013-02-15", 1.0]
["CDISCPILOT01", "QS", "01-701-1188", 5016.0, "ACITM01", "WORD RECALL TASK", "ADAS-COG", "", "4", "", "4", 4.0, "", "", "", "", "", 7.0, "WEEK 6", 42.0, "TREATMENT", "2013-03-25", 39.0]
["CDISCPILOT01", "QS", "01-701-1188", 5031.0, "ACITM01", "WORD RECALL TASK", "ADAS-COG", "", "5", "", "5", 5.0, "", "", "", "", "", 201.0, "RETRIEVAL", 168.0, "TREATMENT", "2013-08-04", 171.0]
["CDISCPILOT01", "QS", "01-701-1188", 5002.0, "ACITM02", "NAMING OBJECTS AND FINGERS (REFER TO 5 C", "ADAS-COG", "", "0", "", "0", 0.0, "", "", "", "Y", "", 3.0, "BASELINE", 1.0, "TREATMENT", "2013-02-15", 1.0]
["CDISCPILOT01", "QS", "01-701-1188", 5017.0, "ACITM02", "NAMING OBJECTS AND FINGERS (REFER TO 5 C", "ADAS-COG", "", "0", "", "0", 0.0, "", "", "", "", "", 7.0, "WEEK 6", 42.0, "TREATMENT", "2013-03-25", 39.0]
["CDISCPILOT01", "QS", "01-701-1188", 5032.0, "ACITM02", "NAMING OBJECTS AND FINGERS (REFER TO 5 C", "ADAS-COG", "", "0", "", "0", 0.0, "", "", "", "", "", 201.0, "RETRIEVAL", 168.0, "TREATMENT", "2013-08-04", 171.0]
["CDISCPILOT01", "QS", "01-701-1188", 5003.0, "ACITM03", "DELAYED WORD RECALL", "ADAS-COG", "", "6", "", "6", 6.0, "", "", "", "Y", "", 3.0, "BASELINE", 1.0, "TREATMENT", "2013-02-15", 1.0]
["CDISCPILOT01", "QS", "01-701-1188", 5018.0, "ACITM03", "DELAYED WORD RECALL", "ADAS-COG", "", "5", "", "5", 5.0, "", "", "", "", "", 7.0, "WEEK 6", 42.0, "TREATMENT", "2013-03-25", 39.0]
["CDISCPILOT01", "QS", "01-701-1188", 5033.0, "ACITM03", "DELAYED WORD RECALL", "ADAS-COG", "", "7", "", "7", 7.0, "", "", "", "", "", 201.0, "RETRIEVAL", 168.0, "TREATMENT", "2013-08-04", 171.0]
["CDISCPILOT01", "QS", "01-701-1188", 5004.0, "ACITM04", "COMMANDS", "ADAS-COG", "", "0", "", "0", 0.0, "", "", "", "Y", "", 3.0, "BASELINE", 1.0, "TREATMENT", "2013-02-15", 1.0]
["CDISCPILOT01", "QS", "01-701-1188", 5019.0, "ACITM04", "COMMANDS", "ADAS-COG", "", "0", "", "0", 0.0, "", "", "", "", "", 7.0, "WEEK 6", 42.0, "TREATMENT", "2013-03-25", 39.0]
["CDISCPILOT01", "QS", "01-701-1188", 5034.0, "ACITM04", "COMMANDS", "ADAS-COG", "", "0", "", "0", 0.0, "", "", "", "", "", 201.0, "RETRIEVAL", 168.0, "TREATMENT", "2013-08-04", 171.0]
["CDISCPILOT01", "QS", "01-701-1188", 5005.0, "ACITM05", "CONSTRUCTIONAL PRAXIS", "ADAS-COG", "", "0", "", "0", 0.0, "", "", "", "Y", "", 3.0, "BASELINE", 1.0, "TREATMENT", "2013-02-15", 1.0]
["CDISCPILOT01", "QS", "01-701-1188", 5020.0, "ACITM05", "CONSTRUCTIONAL PRAXIS", "ADAS-COG", "", "1", "", "1", 1.0, "", "", "", "", "", 7.0, "WEEK 6", 42.0, "TREATMENT", "2013-03-25", 39.0]
["CDISCPILOT01", "QS", "01-701-1188", 5035.0, "ACITM05", "CONSTRUCTIONAL PRAXIS", "ADAS-COG", "", "0", "", "0", 0.0, "", "", "", "", "", 201.0, "RETRIEVAL", 168.0, "TREATMENT", "2013-08-04", 171.0]
["CDISCPILOT01", "QS", "01-701-1188", 5006.0, "ACITM06", "IDEATIONAL PRAXIS", "ADAS-COG", "", "0", "", "0", 0.0, "", "", "", "Y", "", 3.0, "BASELINE", 1.0, "TREATMENT", "2013-02-15", 1.0]
["CDISCPILOT01", "QS", "01-701-1188", 5021.0, "ACITM06", "IDEATIONAL PRAXIS", "ADAS-COG", "", "0", "", "0", 0.0, "", "", "", "", "", 7.0, "WEEK 6", 42.0, "TREATMENT", "2013-03-25", 39.0]
["CDISCPILOT01", "QS", "01-701-1188", 5036.0, "ACITM06", "IDEATIONAL PRAXIS", "ADAS-COG", "", "0", "", "0", 0.0, "", "", "", "", "", 201.0, "RETRIEVAL", 168.0, "TREATMENT", "2013-08-04", 171.0]
["CDISCPILOT01", "QS", "01-701-1188", 5007.0, "ACITM07", "ORIENTATION", "ADAS-COG", "", "0", "", "0", 0.0, "", "", "", "Y", "", 3.0, "BASELINE", 1.0, "TREATMENT", "2013-02-15", 1.0]
["CDISCPILOT01", "QS", "01-701-1188", 5022.0, "ACITM07", "ORIENTATION", "ADAS-COG", "", "0", "", "0", 0.0, "", "", "", "", "", 7.0, "WEEK 6", 42.0, "TREATMENT", "2013-03-25", 39.0]
["CDISCPILOT01", "QS", "01-701-1188", 5037.0, "ACITM07", "ORIENTATION", "ADAS-COG", "", "0", "", "0", 0.0, "", "", "", "", "", 201.0, "RETRIEVAL", 168.0, "TREATMENT", "2013-08-04", 171.0]
["CDISCPILOT01", "QS", "01-701-1188", 5008.0, "ACITM08", "WORD RECOGNITION", "ADAS-COG", "", "3", "", "3", 3.0, "", "", "", "Y", "", 3.0, "BASELINE", 1.0, "TREATMENT", "2013-02-15", 1.0]
["CDISCPILOT01", "QS", "01-701-1188", 5023.0, "ACITM08", "WORD RECOGNITION", "ADAS-COG", "", "3", "", "3", 3.0, "", "", "", "", "", 7.0, "WEEK 6", 42.0, "TREATMENT", "2013-03-25", 39.0]
["CDISCPILOT01", "QS", "01-701-1188", 5038.0, "ACITM08", "WORD RECOGNITION", "ADAS-COG", "", "2", "", "2", 2.0, "", "", "", "", "", 201.0, "RETRIEVAL", 168.0, "TREATMENT", "2013-08-04", 171.0]
["CDISCPILOT01", "QS", "01-701-1188", 5009.0, "ACITM09", "ATTENTION/VISUAL SEARCH TASK", "ADAS-COG", "", "26", "", "26", 26.0, "", "", "", "Y", "", 3.0, "BASELINE", 1.0, "TREATMENT", "2013-02-15", 1.0]
["CDISCPILOT01", "QS", "01-701-1188", 5024.0, "ACITM09", "ATTENTION/VISUAL SEARCH TASK", "ADAS-COG", "", "36", "", "36", 36.0, "", "", "", "", "", 7.0, "WEEK 6", 42.0, "TREATMENT", "2013-03-25", 39.0]
["CDISCPILOT01", "QS", "01-701-1188", 5039.0, "ACITM09", "ATTENTION/VISUAL SEARCH TASK", "ADAS-COG", "", "34", "", "34", 34.0, "", "", "", "", "", 201.0, "RETRIEVAL", 168.0, "TREATMENT", "2013-08-04", 171.0]
["CDISCPILOT01", "QS", "01-701-1188", 5010.0, "ACITM10", "MAZE SOLUTION", "ADAS-COG", "", "4", "sec", "4", 4.0, "sec", "", "", "Y", "", 3.0, "BASELINE", 1.0, "TREATMENT", "2013-02-15", 1.0]
["CDISCPILOT01", "QS", "01-701-1188", 5025.0, "ACITM10", "MAZE SOLUTION", "ADAS-COG", "", "4", "sec", "4", 4.0, "sec", "", "", "", "", 7.0, "WEEK 6", 42.0, "TREATMENT", "2013-03-25", 39.0]
["CDISCPILOT01", "QS", "01-701-1188", 5040.0, "ACITM10", "MAZE SOLUTION", "ADAS-COG", "", "6", "sec", "6", 6.0, "sec", "", "", "", "", 201.0, "RETRIEVAL", 168.0, "TREATMENT", "2013-08-04", 171.0]
["CDISCPILOT01", "QS", "01-701-1188", 5011.0, "ACITM11", "SPOKEN LANGUAGE ABILITY", "ADAS-COG", "", "0", "", "0", 0.0, "", "", "", "Y", "", 3.0, "BASELINE", 1.0, "TREATMENT", "2013-02-15", 1.0]
["CDISCPILOT01", "QS", "01-701-1188", 5026.0, "ACITM11", "SPOKEN LANGUAGE ABILITY", "ADAS-COG", "", "0", "", "0", 0.0, "", "", "", "", "", 7.0, "WEEK 6", 42.0, "TREATMENT", "2013-03-25", 39.0]
["CDISCPILOT01", "QS", "01-701-1188", 5041.0, "ACITM11", "SPOKEN LANGUAGE ABILITY", "ADAS-COG", "", "0", "", "0", 0.0, "", "", "", "", "", 201.0, "RETRIEVAL", 168.0, "TREATMENT", "2013-08-04", 171.0]
["CDISCPILOT01", "QS", "01-701-1188", 5012.0, "ACITM12", "COMPREHENSION OF SPOKEN LANGUAGE", "ADAS-COG", "", "0", "", "0", 0.0, "", "", "", "Y", "", 3.0, "BASELINE", 1.0, "TREATMENT", "2013-02-15", 1.0]
["CDISCPILOT01", "QS", "01-701-1188", 5027.0, "ACITM12", "COMPREHENSION OF SPOKEN LANGUAGE", "ADAS-COG", "", "0", "", "0", 0.0, "", "", "", "", "", 7.0, "WEEK 6", 42.0, "TREATMENT", "2013-03-25", 39.0]
["CDISCPILOT01", "QS", "01-701-1188", 5042.0, "ACITM12", "COMPREHENSION OF SPOKEN LANGUAGE", "ADAS-COG", "", "0", "", "0", 0.0, "", "", "", "", "", 201.0, "RETRIEVAL", 168.0, "TREATMENT", "2013-08-04", 171.0]
["CDISCPILOT01", "QS", "01-701-1188", 5013.0, "ACITM13", "WORD FINDING DIFFICULTY IN SPONTANEOUS S", "ADAS-COG", "", "0", "", "0", 0.0, "", "", "", "Y", "", 3.0, "BASELINE", 1.0, "TREATMENT", "2013-02-15", 1.0]
["CDISCPILOT01", "QS", "01-701-1188", 5028.0, "ACITM13", "WORD FINDING DIFFICULTY IN SPONTANEOUS S", "ADAS-COG", "", "0", "", "0", 0.0, "", "", "", "", "", 7.0, "WEEK 6", 42.0, "TREATMENT", "2013-03-25", 39.0]
["CDISCPILOT01", "QS", "01-701-1188", 5043.0, "ACITM13", "WORD FINDING DIFFICULTY IN SPONTANEOUS S", "ADAS-COG", "", "0", "", "0", 0.0, "", "", "", "", "", 201.0, "RETRIEVAL", 168.0, "TREATMENT", "2013-08-04", 171.0]
["CDISCPILOT01", "QS", "01-701-1188", 5014.0, "ACITM14", "RECALL OF TEST INSTRUCTIONS", "ADAS-COG", "", "0", "", "0", 0.0, "", "", "", "Y", "", 3.0, "BASELINE", 1.0, "TREATMENT", "2013-02-15", 1.0]
["CDISCPILOT01", "QS", "01-701-1188", 5029.0, "ACITM14", "RECALL OF TEST INSTRUCTIONS", "ADAS-COG", "", "0", "", "0", 0.0, "", "", "", "", "", 7.0, "WEEK 6", 42.0, "TREATMENT", "2013-03-25", 39.0]
["CDISCPILOT01", "QS", "01-701-1188", 5044.0, "ACITM14", "RECALL OF TEST INSTRUCTIONS", "ADAS-COG", "", "0", "", "0", 0.0, "", "", "", "", "", 201.0, "RETRIEVAL", 168.0, "TREATMENT", "2013-08-04", 171.0]
["CDISCPILOT01", "QS", "01-701-1188", 5015.0, "ACTOT", "ADAS-COG(11) Subscore", "ADAS-COG", "", "", "", "8", 8.0, "", "", "", "Y", "Y", 3.0, "BASELINE", 1.0, "TREATMENT", "2013-02-15", 1.0]
["CDISCPILOT01", "QS", "01-701-1188", 5030.0, "ACTOT", "ADAS-COG(11) Subscore", "ADAS-COG", "", "", "", "8", 8.0, "", "", "", "", "Y", 7.0, "WEEK 6", 42.0, "TREATMENT", "2013-03-25", 39.0]
["CDISCPILOT01", "QS", "01-701-1188", 5045.0, "ACTOT", "ADAS-COG(11) Subscore", "ADAS-COG", "", "", "", "7", 7.0, "", "", "", "", "Y", 201.0, "RETRIEVAL", 168.0, "TREATMENT", "2013-08-04", 171.0]
["CDISCPILOT01", "QS", "01-701-1192", 5001.0, "ACITM01", "WORD RECALL TASK", "ADAS-COG", "", "3", "", "3", 3.0, "", "", "", "Y", "", 3.0, "BASELINE", 1.0, "TREATMENT", "2012-07-22", 1.0]
["CDISCPILOT01", "QS", "01-701-1192", 5016.0, "ACITM01", "WORD RECALL TASK", "ADAS-COG", "", "5", "", "5", 5.0, "", "", "", "", "", 8.0, "WEEK 8", 56.0, "TREATMENT", "2012-09-23", 64.0]
["CDISCPILOT01", "QS", "01-701-1192", 5031.0, "ACITM01", "WORD RECALL TASK", "ADAS-COG", "", "4", "", "4", 4.0, "", "", "", "", "", 10.0, "WEEK 16", 112.0, "TREATMENT", "2012-11-15", 117.0]
["CDISCPILOT01", "QS", "01-701-1192", 5046.0, "ACITM01", "WORD RECALL TASK", "ADAS-COG", "", "4", "", "4", 4.0, "", "", "", "", "", 12.0, "WEEK 24", 168.0, "TREATMENT", "2013-01-11", 174.0]
["CDISCPILOT01", "QS", "01-701-1192", 5002.0, "ACITM02", "NAMING OBJECTS AND FINGERS (REFER TO 5 C", "ADAS-COG", "", "0", "", "0", 0.0, "", "", "", "Y", "", 3.0, "BASELINE", 1.0, "TREATMENT", "2012-07-22", 1.0]
["CDISCPILOT01", "QS", "01-701-1192", 5017.0, "ACITM02", "NAMING OBJECTS AND FINGERS (REFER TO 5 C", "ADAS-COG", "", "2", "", "2", 2.0, "", "", "", "", "", 8.0, "WEEK 8", 56.0, "TREATMENT", "2012-09-23", 64.0]
["CDISCPILOT01", "QS", "01-701-1192", 5032.0, "ACITM02", "NAMING OBJECTS AND FINGERS (REFER TO 5 C", "ADAS-COG", "", "0", "", "0", 0.0, "", "", "", "", "", 10.0, "WEEK 16", 112.0, "TREATMENT", "2012-11-15", 117.0]
["CDISCPILOT01", "QS", "01-701-1192", 5047.0, "ACITM02", "NAMING OBJECTS AND FINGERS (REFER TO 5 C", "ADAS-COG", "", "0", "", "0", 0.0, "", "", "", "", "", 12.0, "WEEK 24", 168.0, "TREATMENT", "2013-01-11", 174.0]
["CDISCPILOT01", "QS", "01-701-1192", 5003.0, "ACITM03", "DELAYED WORD RECALL", "ADAS-COG", "", "4", "", "4", 4.0, "", "", "", "Y", "", 3.0, "BASELINE", 1.0, "TREATMENT", "2012-07-22", 1.0]
["CDISCPILOT01", "QS", "01-701-1192", 5018.0, "ACITM03", "DELAYED WORD RECALL", "ADAS-COG", "", "6", "", "6", 6.0, "", "", "", "", "", 8.0, "WEEK 8", 56.0, "TREATMENT", "2012-09-23", 64.0]
["CDISCPILOT01", "QS", "01-701-1192", 5033.0, "ACITM03", "DELAYED WORD RECALL", "ADAS-COG", "", "8", "", "8", 8.0, "", "", "", "", "", 10.0, "WEEK 16", 112.0, "TREATMENT", "2012-11-15", 117.0]
["CDISCPILOT01", "QS", "01-701-1192", 5048.0, "ACITM03", "DELAYED WORD RECALL", "ADAS-COG", "", "7", "", "7", 7.0, "", "", "", "", "", 12.0, "WEEK 24", 168.0, "TREATMENT", "2013-01-11", 174.0]
["CDISCPILOT01", "QS", "01-701-1192", 5004.0, "ACITM04", "COMMANDS", "ADAS-COG", "", "0", "", "0", 0.0, "", "", "", "Y", "", 3.0, "BASELINE", 1.0, "TREATMENT", "2012-07-22", 1.0]
["CDISCPILOT01", "QS", "01-701-1192", 5019.0, "ACITM04", "COMMANDS", "ADAS-COG", "", "0", "", "0", 0.0, "", "", "", "", "", 8.0, "WEEK 8", 56.0, "TREATMENT", "2012-09-23", 64.0]
["CDISCPILOT01", "QS", "01-701-1192", 5034.0, "ACITM04", "COMMANDS", "ADAS-COG", "", "0", "", "0", 0.0, "", "", "", "", "", 10.0, "WEEK 16", 112.0, "TREATMENT", "2012-11-15", 117.0]
["CDISCPILOT01", "QS", "01-701-1192", 5049.0, "ACITM04", "COMMANDS", "ADAS-COG", "", "0", "", "0", 0.0, "", "", "", "", "", 12.0, "WEEK 24", 168.0, "TREATMENT", "2013-01-11", 174.0]
["CDISCPILOT01", "QS", "01-701-1192", 5005.0, "ACITM05", "CONSTRUCTIONAL PRAXIS", "ADAS-COG", "", "2", "", "2", 2.0, "", "", "", "Y", "", 3.0, "BASELINE", 1.0, "TREATMENT", "2012-07-22", 1.0]
["CDISCPILOT01", "QS", "01-701-1192", 5020.0, "ACITM05", "CONSTRUCTIONAL PRAXIS", "ADAS-COG", "", "1", "", "1", 1.0, "", "", "", "", "", 8.0, "WEEK 8", 56.0, "TREATMENT", "2012-09-23", 64.0]
["CDISCPILOT01", "QS", "01-701-1192", 5035.0, "ACITM05", "CONSTRUCTIONAL PRAXIS", "ADAS-COG", "", "3", "", "3", 3.0, "", "", "", "", "", 10.0, "WEEK 16", 112.0, "TREATMENT", "2012-11-15", 117.0]
["CDISCPILOT01", "QS", "01-701-1192", 5050.0, "ACITM05", "CONSTRUCTIONAL PRAXIS", "ADAS-COG", "", "3", "", "3", 3.0, "", "", "", "", "", 12.0, "WEEK 24", 168.0, "TREATMENT", "2013-01-11", 174.0]
["CDISCPILOT01", "QS", "01-701-1192", 5006.0, "ACITM06", "IDEATIONAL PRAXIS", "ADAS-COG", "", "0", "", "0", 0.0, "", "", "", "Y", "", 3.0, "BASELINE", 1.0, "TREATMENT", "2012-07-22", 1.0]
["CDISCPILOT01", "QS", "01-701-1192", 5021.0, "ACITM06", "IDEATIONAL PRAXIS", "ADAS-COG", "", "0", "", "0", 0.0, "", "", "", "", "", 8.0, "WEEK 8", 56.0, "TREATMENT", "2012-09-23", 64.0]
["CDISCPILOT01", "QS", "01-701-1192", 5036.0, "ACITM06", "IDEATIONAL PRAXIS", "ADAS-COG", "", "0", "", "0", 0.0, "", "", "", "", "", 10.0, "WEEK 16", 112.0, "TREATMENT", "2012-11-15", 117.0]
["CDISCPILOT01", "QS", "01-701-1192", 5051.0, "ACITM06", "IDEATIONAL PRAXIS", "ADAS-COG", "", "0", "", "0", 0.0, "", "", "", "", "", 12.0, "WEEK 24", 168.0, "TREATMENT", "2013-01-11", 174.0]
["CDISCPILOT01", "QS", "01-701-1192", 5007.0, "ACITM07", "ORIENTATION", "ADAS-COG", "", "3", "", "3", 3.0, "", "", "", "Y", "", 3.0, "BASELINE", 1.0, "TREATMENT", "2012-07-22", 1.0]
["CDISCPILOT01", "QS", "01-701-1192", 5022.0, "ACITM07", "ORIENTATION", "ADAS-COG", "", "3", "", "3", 3.0, "", "", "", "", "", 8.0, "WEEK 8", 56.0, "TREATMENT", "2012-09-23", 64.0]
["CDISCPILOT01", "QS", "01-701-1192", 5037.0, "ACITM07", "ORIENTATION", "ADAS-COG", "", "2", "", "2", 2.0, "", "", "", "", "", 10.0, "WEEK 16", 112.0, "TREATMENT", "2012-11-15", 117.0]
["CDISCPILOT01", "QS", "01-701-1192", 5052.0, "ACITM07", "ORIENTATION", "ADAS-COG", "", "2", "", "2", 2.0, "", "", "", "", "", 12.0, "WEEK 24", 168.0, "TREATMENT", "2013-01-11", 174.0]
["CDISCPILOT01", "QS", "01-701-1192", 5008.0, "ACITM08", "WORD RECOGNITION", "ADAS-COG", "", "1", "", "1", 1.0, "", "", "", "Y", "", 3.0, "BASELINE", 1.0, "TREATMENT", "2012-07-22", 1.0]
["CDISCPILOT01", "QS", "01-701-1192", 5023.0, "ACITM08", "WORD RECOGNITION", "ADAS-COG", "", "1", "", "1", 1.0, "", "", "", "", "", 8.0, "WEEK 8", 56.0, "TREATMENT", "2012-09-23", 64.0]
["CDISCPILOT01", "QS", "01-701-1192", 5038.0, "ACITM08", "WORD RECOGNITION", "ADAS-COG", "", "2", "", "2", 2.0, "", "", "", "", "", 10.0, "WEEK 16", 112.0, "TREATMENT", "2012-11-15", 117.0]
["CDISCPILOT01", "QS", "01-701-1192", 5053.0, "ACITM08", "WORD RECOGNITION", "ADAS-COG", "", "1", "", "1", 1.0, "", "", "", "", "", 12.0, "WEEK 24", 168.0, "TREATMENT", "2013-01-11", 174.0]
["CDISCPILOT01", "QS", "01-701-1192", 5009.0, "ACITM09", "ATTENTION/VISUAL SEARCH TASK", "ADAS-COG", "", "35", "", "35", 35.0, "", "", "", "Y", "", 3.0, "BASELINE", 1.0, "TREATMENT", "2012-07-22", 1.0]
["CDISCPILOT01", "QS", "01-701-1192", 5024.0, "ACITM09", "ATTENTION/VISUAL SEARCH TASK", "ADAS-COG", "", "34", "", "34", 34.0, "", "", "", "", "", 8.0, "WEEK 8", 56.0, "TREATMENT", "2012-09-23", 64.0]
["CDISCPILOT01", "QS", "01-701-1192", 5039.0, "ACITM09", "ATTENTION/VISUAL SEARCH TASK", "ADAS-COG", "", "33", "", "33", 33.0, "", "", "", "", "", 10.0, "WEEK 16", 112.0, "TREATMENT", "2012-11-15", 117.0]
["CDISCPILOT01", "QS", "01-701-1192", 5054.0, "ACITM09", "ATTENTION/VISUAL SEARCH TASK", "ADAS-COG", "", "37", "", "37", 37.0, "", "", "", "", "", 12.0, "WEEK 24", 168.0, "TREATMENT", "2013-01-11", 174.0]
["CDISCPILOT01", "QS", "01-701-1192", 5010.0, "ACITM10", "MAZE SOLUTION", "ADAS-COG", "", "3", "sec", "3", 3.0, "sec", "", "", "Y", "", 3.0, "BASELINE", 1.0, "TREATMENT", "2012-07-22", 1.0]
["CDISCPILOT01", "QS", "01-701-1192", 5025.0, "ACITM10", "MAZE SOLUTION", "ADAS-COG", "", "4", "sec", "4", 4.0, "sec", "", "", "", "", 8.0, "WEEK 8", 56.0, "TREATMENT", "2012-09-23", 64.0]
["CDISCPILOT01", "QS", "01-701-1192", 5040.0, "ACITM10", "MAZE SOLUTION", "ADAS-COG", "", "10", "sec", "10", 10.0, "sec", "", "", "", "", 10.0, "WEEK 16", 112.0, "TREATMENT", "2012-11-15", 117.0]
["CDISCPILOT01", "QS", "01-701-1192", 5055.0, "ACITM10", "MAZE SOLUTION", "ADAS-COG", "", "5", "sec", "5", 5.0, "sec", "", "", "", "", 12.0, "WEEK 24", 168.0, "TREATMENT", "2013-01-11", 174.0]
["CDISCPILOT01", "QS", "01-701-1192", 5011.0, "ACITM11", "SPOKEN LANGUAGE ABILITY", "ADAS-COG", "", "0", "", "0", 0.0, "", "", "", "Y", "", 3.0, "BASELINE", 1.0, "TREATMENT", "2012-07-22", 1.0]
["CDISCPILOT01", "QS", "01-701-1192", 5026.0, "ACITM11", "SPOKEN LANGUAGE ABILITY", "ADAS-COG", "", "0", "", "0", 0.0, "", "", "", "", "", 8.0, "WEEK 8", 56.0, "TREATMENT", "2012-09-23", 64.0]
["CDISCPILOT01", "QS", "01-701-1192", 5041.0, "ACITM11", "SPOKEN LANGUAGE ABILITY", "ADAS-COG", "", "1", "", "1", 1.0, "", "", "", "", "", 10.0, "WEEK 16", 112.0, "TREATMENT", "2012-11-15", 117.0]
["CDISCPILOT01", "QS", "01-701-1192", 5056.0, "ACITM11", "SPOKEN LANGUAGE ABILITY", "ADAS-COG", "", "1", "", "1", 1.0, "", "", "", "", "", 12.0, "WEEK 24", 168.0, "TREATMENT", "2013-01-11", 174.0]
["CDISCPILOT01", "QS", "01-701-1192", 5012.0, "ACITM12", "COMPREHENSION OF SPOKEN LANGUAGE", "ADAS-COG", "", "0", "", "0", 0.0, "", "", "", "Y", "", 3.0, "BASELINE", 1.0, "TREATMENT", "2012-07-22", 1.0]
["CDISCPILOT01", "QS", "01-701-1192", 5027.0, "ACITM12", "COMPREHENSION OF SPOKEN LANGUAGE", "ADAS-COG", "", "0", "", "0", 0.0, "", "", "", "", "", 8.0, "WEEK 8", 56.0, "TREATMENT", "2012-09-23", 64.0]
["CDISCPILOT01", "QS", "01-701-1192", 5042.0, "ACITM12", "COMPREHENSION OF SPOKEN LANGUAGE", "ADAS-COG", "", "1", "", "1", 1.0, "", "", "", "", "", 10.0, "WEEK 16", 112.0, "TREATMENT", "2012-11-15", 117.0]
["CDISCPILOT01", "QS", "01-701-1192", 5057.0, "ACITM12", "COMPREHENSION OF SPOKEN LANGUAGE", "ADAS-COG", "", "1", "", "1", 1.0, "", "", "", "", "", 12.0, "WEEK 24", 168.0, "TREATMENT", "2013-01-11", 174.0]
["CDISCPILOT01", "QS", "01-701-1192", 5013.0, "ACITM13", "WORD FINDING DIFFICULTY IN SPONTANEOUS S", "ADAS-COG", "", "0", "", "0", 0.0, "", "", "", "Y", "", 3.0, "BASELINE", 1.0, "TREATMENT", "2012-07-22", 1.0]
["CDISCPILOT01", "QS", "01-701-1192", 5028.0, "ACITM13", "WORD FINDING DIFFICULTY IN SPONTANEOUS S", "ADAS-COG", "", "0", "", "0", 0.0, "", "", "", "", "", 8.0, "WEEK 8", 56.0, "TREATMENT", "2012-09-23", 64.0]
["CDISCPILOT01", "QS", "01-701-1192", 5043.0, "ACITM13", "WORD FINDING DIFFICULTY IN SPONTANEOUS S", "ADAS-COG", "", "1", "", "1", 1.0, "", "", "", "", "", 10.0, "WEEK 16", 112.0, "TREATMENT", "2012-11-15", 117.0]
["CDISCPILOT01", "QS", "01-701-1192", 5058.0, "ACITM13", "WORD FINDING DIFFICULTY IN SPONTANEOUS S", "ADAS-COG", "", "0", "", "0", 0.0, "", "", "", "", "", 12.0, "WEEK 24", 168.0, "TREATMENT", "2013-01-11", 174.0]
["CDISCPILOT01", "QS", "01-701-1192", 5014.0, "ACITM14", "RECALL OF TEST INSTRUCTIONS", "ADAS-COG", "", "0", "", "0", 0.0, "", "", "", "Y", "", 3.0, "BASELINE", 1.0, "TREATMENT", "2012-07-22", 1.0]
["CDISCPILOT01", "QS", "01-701-1192", 5029.0, "ACITM14", "RECALL OF TEST INSTRUCTIONS", "ADAS-COG", "", "0", "", "0", 0.0, "", "", "", "", "", 8.0, "WEEK 8", 56.0, "TREATMENT", "2012-09-23", 64.0]
["CDISCPILOT01", "QS", "01-701-1192", 5044.0, "ACITM14", "RECALL OF TEST INSTRUCTIONS", "ADAS-COG", "", "1", "", "1", 1.0, "", "", "", "", "", 10.0, "WEEK 16", 112.0, "TREATMENT", "2012-11-15", 117.0]
["CDISCPILOT01", "QS", "01-701-1192", 5059.0, "ACITM14", "RECALL OF TEST INSTRUCTIONS", "ADAS-COG", "", "0", "", "0", 0.0, "", "", "", "", "", 12.0, "WEEK 24", 168.0, "TREATMENT", "2013-01-11", 174.0]
["CDISCPILOT01", "QS", "01-701-1192", 5015.0, "ACTOT", "ADAS-COG(11) Subscore", "ADAS-COG", "", "", "", "9", 9.0, "", "", "", "Y", "Y", 3.0, "BASELINE", 1.0, "TREATMENT", "2012-07-22", 1.0]
["CDISCPILOT01", "QS", "01-701-1192", 5030.0, "ACTOT", "ADAS-COG(11) Subscore", "ADAS-COG", "", "", "", "12", 12.0, "", "", "", "", "Y", 8.0, "WEEK 8", 56.0, "TREATMENT", "2012-09-23", 64.0]
["CDISCPILOT01", "QS", "01-701-1192", 5045.0, "ACTOT", "ADAS-COG(11) Subscore", "ADAS-COG", "", "", "", "15", 15.0, "", "", "", "", "Y", 10.0, "WEEK 16", 112.0, "TREATMENT", "2012-11-15", 117.0]
["CDISCPILOT01", "QS", "01-701-1192", 5060.0, "ACTOT", "ADAS-COG(11) Subscore", "ADAS-COG", "", "", "", "12", 12.0, "", "", "", "", "Y", 12.0, "WEEK 24", 168.0, "TREATMENT", "2013-01-11", 174.0]
["CDISCPILOT01", "QS", "01-701-1203", 5001.0, "ACITM01", "WORD RECALL TASK", "ADAS-COG", "", "5", "", "5", 5.0, "", "", "", "Y", "", 3.0, "BASELINE", 1.0, "TREATMENT", "2013-02-02", 1.0]
["CDISCPILOT01", "QS", "01-701-1203", 5016.0, "ACITM01", "WORD RECALL TASK", "ADAS-COG", "", "6", "", "6", 6.0, "", "", "", "", "", 8.0, "WEEK 8", 56.0, "TREATMENT", "2013-03-30", 57.0]
["CDISCPILOT01", "QS", "01-701-1203", 5031.0, "ACITM01", "WORD RECALL TASK", "ADAS-COG", "", "6", "", "6", 6.0, "", "", "", "", "", 10.0, "WEEK 16", 112.0, "TREATMENT", "2013-05-25", 113.0]
["CDISCPILOT01", "QS", "01-701-1203", 5046.0, "ACITM01", "WORD RECALL TASK", "ADAS-COG", "", "6", "", "6", 6.0, "", "", "", "", "", 12.0, "WEEK 24", 168.0, "TREATMENT", "2013-07-22", 171.0]
["CDISCPILOT01", "QS", "01-701-1203", 5002.0, "ACITM02", "NAMING OBJECTS AND FINGERS (REFER TO 5 C", "ADAS-COG", "", "1", "", "1", 1.0, "", "", "", "Y", "", 3.0, "BASELINE", 1.0, "TREATMENT", "2013-02-02", 1.0]
["CDISCPILOT01", "QS", "01-701-1203", 5017.0, "ACITM02", "NAMING OBJECTS AND FINGERS (REFER TO 5 C", "ADAS-COG", "", "1", "", "1", 1.0, "", "", "", "", "", 8.0, "WEEK 8", 56.0, "TREATMENT", "2013-03-30", 57.0]
["CDISCPILOT01", "QS", "01-701-1203", 5032.0, "ACITM02", "NAMING OBJECTS AND FINGERS (REFER TO 5 C", "ADAS-COG", "", "1", "", "1", 1.0, "", "", "", "", "", 10.0, "WEEK 16", 112.0, "TREATMENT", "2013-05-25", 113.0]
["CDISCPILOT01", "QS", "01-701-1203", 5047.0, "ACITM02", "NAMING OBJECTS AND FINGERS (REFER TO 5 C", "ADAS-COG", "", "1", "", "1", 1.0, "", "", "", "", "", 12.0, "WEEK 24", 168.0, "TREATMENT", "2013-07-22", 171.0]
["CDISCPILOT01", "QS", "01-701-1203", 5003.0, "ACITM03", "DELAYED WORD RECALL", "ADAS-COG", "", "10", "", "10", 10.0, "", "", "", "Y", "", 3.0, "BASELINE", 1.0, "TREATMENT", "2013-02-02", 1.0]
["CDISCPILOT01", "QS", "01-701-1203", 5018.0, "ACITM03", "DELAYED WORD RECALL", "ADAS-COG", "", "10", "", "10", 10.0, "", "", "", "", "", 8.0, "WEEK 8", 56.0, "TREATMENT", "2013-03-30", 57.0]
["CDISCPILOT01", "QS", "01-701-1203", 5033.0, "ACITM03", "DELAYED WORD RECALL", "ADAS-COG", "", "10", "", "10", 10.0, "", "", "", "", "", 10.0, "WEEK 16", 112.0, "TREATMENT", "2013-05-25", 113.0]
["CDISCPILOT01", "QS", "01-701-1203", 5048.0, "ACITM03", "DELAYED WORD RECALL", "ADAS-COG", "", "10", "", "10", 10.0, "", "", "", "", "", 12.0, "WEEK 24", 168.0, "TREATMENT", "2013-07-22", 171.0]
["CDISCPILOT01", "QS", "01-701-1203", 5004.0, "ACITM04", "COMMANDS", "ADAS-COG", "", "1", "", "1", 1.0, "", "", "", "Y", "", 3.0, "BASELINE", 1.0, "TREATMENT", "2013-02-02", 1.0]
["CDISCPILOT01", "QS", "01-701-1203", 5019.0, "ACITM04", "COMMANDS", "ADAS-COG", "", "0", "", "0", 0.0, "", "", "", "", "", 8.0, "WEEK 8", 56.0, "TREATMENT", "2013-03-30", 57.0]
["CDISCPILOT01", "QS", "01-701-1203", 5034.0, "ACITM04", "COMMANDS", "ADAS-COG", "", "0", "", "0", 0.0, "", "", "", "", "", 10.0, "WEEK 16", 112.0, "TREATMENT", "2013-05-25", 113.0]
["CDISCPILOT01", "QS", "01-701-1203", 5049.0, "ACITM04", "COMMANDS", "ADAS-COG", "", "0", "", "0", 0.0, "", "", "", "", "", 12.0, "WEEK 24", 168.0, "TREATMENT", "2013-07-22", 171.0]
["CDISCPILOT01", "QS", "01-701-1203", 5005.0, "ACITM05", "CONSTRUCTIONAL PRAXIS", "ADAS-COG", "", "2", "", "2", 2.0, "", "", "", "Y", "", 3.0, "BASELINE", 1.0, "TREATMENT", "2013-02-02", 1.0]
["CDISCPILOT01", "QS", "01-701-1203", 5020.0, "ACITM05", "CONSTRUCTIONAL PRAXIS", "ADAS-COG", "", "2", "", "2", 2.0, "", "", "", "", "", 8.0, "WEEK 8", 56.0, "TREATMENT", "2013-03-30", 57.0]
["CDISCPILOT01", "QS", "01-701-1203", 5035.0, "ACITM05", "CONSTRUCTIONAL PRAXIS", "ADAS-COG", "", "2", "", "2", 2.0, "", "", "", "", "", 10.0, "WEEK 16", 112.0, "TREATMENT", "2013-05-25", 113.0]
["CDISCPILOT01", "QS", "01-701-1203", 5050.0, "ACITM05", "CONSTRUCTIONAL PRAXIS", "ADAS-COG", "", "1", "", "1", 1.0, "", "", "", "", "", 12.0, "WEEK 24", 168.0, "TREATMENT", "2013-07-22", 171.0]
["CDISCPILOT01", "QS", "01-701-1203", 5006.0, "ACITM06", "IDEATIONAL PRAXIS", "ADAS-COG", "", "0", "", "0", 0.0, "", "", "", "Y", "", 3.0, "BASELINE", 1.0, "TREATMENT", "2013-02-02", 1.0]
["CDISCPILOT01", "QS", "01-701-1203", 5021.0, "ACITM06", "IDEATIONAL PRAXIS", "ADAS-COG", "", "1", "", "1", 1.0, "", "", "", "", "", 8.0, "WEEK 8", 56.0, "TREATMENT", "2013-03-30", 57.0]
["CDISCPILOT01", "QS", "01-701-1203", 5036.0, "ACITM06", "IDEATIONAL PRAXIS", "ADAS-COG", "", "0", "", "0", 0.0, "", "", "", "", "", 10.0, "WEEK 16", 112.0, "TREATMENT", "2013-05-25", 113.0]
["CDISCPILOT01", "QS", "01-701-1203", 5051.0, "ACITM06", "IDEATIONAL PRAXIS", "ADAS-COG", "", "0", "", "0", 0.0, "", "", "", "", "", 12.0, "WEEK 24", 168.0, "TREATMENT", "2013-07-22", 171.0]
["CDISCPILOT01", "QS", "01-701-1203", 5007.0, "ACITM07", "ORIENTATION", "ADAS-COG", "", "2", "", "2", 2.0, "", "", "", "Y", "", 3.0, "BASELINE", 1.0, "TREATMENT", "2013-02-02", 1.0]
["CDISCPILOT01", "QS", "01-701-1203", 5022.0, "ACITM07", "ORIENTATION", "ADAS-COG", "", "2", "", "2", 2.0, "", "", "", "", "", 8.0, "WEEK 8", 56.0, "TREATMENT", "2013-03-30", 57.0]
["CDISCPILOT01", "QS", "01-701-1203", 5037.0, "ACITM07", "ORIENTATION", "ADAS-COG", "", "3", "", "3", 3.0, "", "", "", "", "", 10.0, "WEEK 16", 112.0, "TREATMENT", "2013-05-25", 113.0]
["CDISCPILOT01", "QS", "01-701-1203", 5052.0, "ACITM07", "ORIENTATION", "ADAS-COG", "", "1", "", "1", 1.0, "", "", "", "", "", 12.0, "WEEK 24", 168.0, "TREATMENT", "2013-07-22", 171.0]
["CDISCPILOT01", "QS", "01-701-1203", 5008.0, "ACITM08", "WORD RECOGNITION", "ADAS-COG", "", "8", "", "8", 8.0, "", "", "", "Y", "", 3.0, "BASELINE", 1.0, "TREATMENT", "2013-02-02", 1.0]
["CDISCPILOT01", "QS", "01-701-1203", 5023.0, "ACITM08", "WORD RECOGNITION", "ADAS-COG", "", "4", "", "4", 4.0, "", "", "", "", "", 8.0, "WEEK 8", 56.0, "TREATMENT", "2013-03-30", 57.0]
["CDISCPILOT01", "QS", "01-701-1203", 5038.0, "ACITM08", "WORD RECOGNITION", "ADAS-COG", "", "8", "", "8", 8.0, "", "", "", "", "", 10.0, "WEEK 16", 112.0, "TREATMENT", "2013-05-25", 113.0]
["CDISCPILOT01", "QS", "01-701-1203", 5053.0, "ACITM08", "WORD RECOGNITION", "ADAS-COG", "", "6", "", "6", 6.0, "", "", "", "", "", 12.0, "WEEK 24", 168.0, "TREATMENT", "2013-07-22", 171.0]
["CDISCPILOT01", "QS", "01-701-1203", 5009.0, "ACITM09", "ATTENTION/VISUAL SEARCH TASK", "ADAS-COG", "", "30", "", "30", 30.0, "", "", "", "Y", "", 3.0, "BASELINE", 1.0, "TREATMENT", "2013-02-02", 1.0]
["CDISCPILOT01", "QS", "01-701-1203", 5024.0, "ACITM09", "ATTENTION/VISUAL SEARCH TASK", "ADAS-COG", "", "24", "", "24", 24.0, "", "", "", "", "", 8.0, "WEEK 8", 56.0, "TREATMENT", "2013-03-30", 57.0]
["CDISCPILOT01", "QS", "01-701-1203", 5039.0, "ACITM09", "ATTENTION/VISUAL SEARCH TASK", "ADAS-COG", "", "27", "", "27", 27.0, "", "", "", "", "", 10.0, "WEEK 16", 112.0, "TREATMENT", "2013-05-25", 113.0]
["CDISCPILOT01", "QS", "01-701-1203", 5054.0, "ACITM09", "ATTENTION/VISUAL SEARCH TASK", "ADAS-COG", "", "21", "", "21", 21.0, "", "", "", "", "", 12.0, "WEEK 24", 168.0, "TREATMENT", "2013-07-22", 171.0]
["CDISCPILOT01", "QS", "01-701-1203", 5010.0, "ACITM10", "MAZE SOLUTION", "ADAS-COG", "", "10", "sec", "10", 10.0, "sec", "", "", "Y", "", 3.0, "BASELINE", 1.0, "TREATMENT", "2013-02-02", 1.0]
