{"datasetJSONCreationDateTime": "2025-10-13T16:15:17", "datasetJSONVersion": "1.1.0", "itemGroupOID": "{QSDA", "records": 32920, "name": "QSDA", "label": "QSDA", "columns": [{"itemOID": "IT.STUDYID", "name": "STUDYID", "label": "Study Identifier", "dataType": "string"}, {"itemOID": "IT.DOMAIN", "name": "DOMAIN", "label": "Domain Abbreviation", "dataType": "string"}, {"itemOID": "IT.USUBJID", "name": "USUBJID", "label": "Unique Subject Identifier", "dataType": "string"}, {"itemOID": "IT.QSSEQ", "name": "QSSEQ", "label": "Sequence Number", "dataType": "double"}, {"itemOID": "IT.QSTESTCD", "name": "QSTESTCD", "label": "Question Short Name", "dataType": "string"}, {"itemOID": "IT.QSTEST", "name": "QSTEST", "label": "Question Name", "dataType": "string"}, {"itemOID": "IT.QSCAT", "name": "QSCAT", "label": "Category of Question", "dataType": "string"}, {"itemOID": "IT.QSSCAT", "name": "QSSCAT", "label": "Subcategory for Question", "dataType": "string"}, {"itemOID": "IT.QSORRES", "name": "QSORRES", "label": "Finding in Original Units", "dataType": "string"}, {"itemOID": "IT.QSORRESU", "name": "QSORRESU", "label": "Original Units", "dataType": "string"}, {"itemOID": "IT.QSSTRESC", "name": "QSSTRESC", "label": "Result or Finding in Standard Format", "dataType": "string"}, {"itemOID": "IT.QSSTRESN", "name": "QSSTRESN", "label": "Numeric Finding in Standard Units", "dataType": "double"}, {"itemOID": "IT.QSSTRESU", "name": "QSSTRESU", "label": "Standard Units", "dataType": "string"}, {"itemOID": "IT.QSSTAT", "name": "QSSTAT", "label": "Completion Status", "dataType": "string"}, {"itemOID": "IT.QSREASND", "name": "QSREASND", "label": "Reason Not Performed", "dataType": "string"}, {"itemOID": "IT.QSBLFL", "name": "QSBLFL", "label": "Baseline Flag", "dataType": "string"}, {"itemOID": "IT.QSDRVFL", "name": "QSDRVFL", "label": "Derived Flag", "dataType": "string"}, {"itemOID": "IT.VISITNUM", "name": "VISITNUM", "label": "Visit Number", "dataType": "double"}, {"itemOID": "IT.VISIT", "name": "VISIT", "label": "Visit Name", "dataType": "string"}, {"itemOID": "IT.VISITDY", "name": "VISITDY", "label": "Planned Study Day of Visit", "dataType": "double"}, {"itemOID": "IT.EPOCH", "name": "EPOCH", "label": "Epoch", "dataType": "string"}, {"itemOID": "IT.QSDTC", "name": "QSDTC", "label": "Date/Time of Finding", "dataType": "string"}, {"itemOID": "IT.QSDY", "name": "QSDY", "label": "Study Day of Finding", "dataType": "double"}]}
["CDISCPILOT01", "QS", "01-701-1015", 4001.0, "DAITM01", "UNDERTAKE TO WASH HIMSELF/HERSELF", "DAD", "HYGIENE", "Y", "", "1", 1.0, "", "", "", "Y", "", 3.0, "BASELINE", 1.0, "TREATMENT", "2014-01-02", 1.0]
["CDISCPILOT01", "QS", "01-701-1015", 4041.0, "DAITM01", "UNDERTAKE TO WASH HIMSELF/HERSELF", "DAD", "HYGIENE", "Y", "", "1", 1.0, "", "", "", "", "", 8.0, "WEEK 8", 56.0, "TREATMENT", "2014-03-05", 63.0]
["CDISCPILOT01", "QS", "01-701-1015", 4081.0, "DAITM01", "UNDERTAKE TO WASH HIMSELF/HERSELF", "DAD", "HYGIENE", "Y", "", "1", 1.0, "", "", "", "", "", 10.0, "WEEK 16", 112.0, "TREATMENT", "2014-05-07", 126.0]
["CDISCPILOT01", "QS", "01-701-1015", 4121.0, "DAITM01", "UNDERTAKE TO WASH HIMSELF/HERSELF", "DAD", "HYGIENE", "Y", "", "1", 1.0, "", "", "", "", "", 12.0, "WEEK 24", 168.0, "TREATMENT", "2014-06-18", 168.0]
["CDISCPILOT01", "QS", "01-701-1015", 4002.0, "DAITM02", "UNDERTAKE TO BRUSH HIS/HER TEETH", "DAD", "HYGIENE", "Y", "", "1", 1.0, "", "", "", "Y", "", 3.0, "BASELINE", 1.0, "TREATMENT", "2014-01-02", 1.0]
["CDISCPILOT01", "QS", "01-701-1015", 4042.0, "DAITM02", "UNDERTAKE TO BRUSH HIS/HER TEETH", "DAD", "HYGIENE", "Y", "", "1", 1.0, "", "", "", "", "", 8.0, "WEEK 8", 56.0, "TREATMENT", "2014-03-05", 63.0]
["CDISCPILOT01", "QS", "01-701-1015", 4082.0, "DAITM02", "UNDERTAKE TO BRUSH HIS/HER TEETH", "DAD", "HYGIENE", "Y", "", "1", 1.0, "", "", "", "", "", 10.0, "WEEK 16", 112.0, "TREATMENT", "2014-05-07", 126.0]
["CDISCPILOT01", "QS", "01-701-1015", 4122.0, "DAITM02", "UNDERTAKE TO BRUSH HIS/HER TEETH", "DAD", "HYGIENE", "Y", "", "1", 1.0, "", "", "", "", "", 12.0, "WEEK 24", 168.0, "TREATMENT", "2014-06-18", 168.0]
["CDISCPILOT01", "QS", "01-701-1015", 4003.0, "DAITM03", "DECIDE TO CARE FOR HIS/HER HAIR", "DAD", "HYGIENE", "Y", "", "1", 1.0, "", "", "", "Y", "", 3.0, "BASELINE", 1.0, "TREATMENT", "2014-01-02", 1.0]
["CDISCPILOT01", "QS", "01-701-1015", 4043.0, "DAITM03", "DECIDE TO CARE FOR HIS/HER HAIR", "DAD", "HYGIENE", "Y", "", "1", 1.0, "", "", "", "", "", 8.0, "WEEK 8", 56.0, "TREATMENT", "2014-03-05", 63.0]
["CDISCPILOT01", "QS", "01-701-1015", 4083.0, "DAITM03", "DECIDE TO CARE FOR HIS/HER HAIR", "DAD", "HYGIENE", "Y", "", "1", 1.0, "", "", "", "", "", 10.0, "WEEK 16", 112.0, "TREATMENT", "2014-05-07", 126.0]
["CDISCPILOT01", "QS", "01-701-1015", 4123.0, "DAITM03", "DECIDE TO CARE FOR HIS/HER HAIR", "DAD", "HYGIENE", "Y", "", "1", 1.0, "", "", "", "", "", 12.0, "WEEK 24", 168.0, "TREATMENT", "2014-06-18", 168.0]
["CDISCPILOT01", "QS", "01-701-1015", 4004.0, "DAITM04", "PREPARE FOR WASHING, TAKING A BATH", "DAD", "HYGIENE", "Y", "", "1", 1.0, "", "", "", "Y", "", 3.0, "BASELINE", 1.0, "TREATMENT", "2014-01-02", 1.0]
["CDISCPILOT01", "QS", "01-701-1015", 4044.0, "DAITM04", "PREPARE FOR WASHING, TAKING A BATH", "DAD", "HYGIENE", "Y", "", "1", 1.0, "", "", "", "", "", 8.0, "WEEK 8", 56.0, "TREATMENT", "2014-03-05", 63.0]
["CDISCPILOT01", "QS", "01-701-1015", 4084.0, "DAITM04", "PREPARE FOR WASHING, TAKING A BATH", "DAD", "HYGIENE", "Y", "", "1", 1.0, "", "", "", "", "", 10.0, "WEEK 16", 112.0, "TREATMENT", "2014-05-07", 126.0]
["CDISCPILOT01", "QS", "01-701-1015", 4124.0, "DAITM04", "PREPARE FOR WASHING, TAKING A BATH", "DAD", "HYGIENE", "Y", "", "1", 1.0, "", "", "", "", "", 12.0, "WEEK 24", 168.0, "TREATMENT", "2014-06-18", 168.0]
["CDISCPILOT01", "QS", "01-701-1015", 4005.0, "DAITM05", "WASH AND DRY COMPLETELY SAFELY", "DAD", "HYGIENE", "Y", "", "1", 1.0, "", "", "", "Y", "", 3.0, "BASELINE", 1.0, "TREATMENT", "2014-01-02", 1.0]
["CDISCPILOT01", "QS", "01-701-1015", 4045.0, "DAITM05", "WASH AND DRY COMPLETELY SAFELY", "DAD", "HYGIENE", "Y", "", "1", 1.0, "", "", "", "", "", 8.0, "WEEK 8", 56.0, "TREATMENT", "2014-03-05", 63.0]
["CDISCPILOT01", "QS", "01-701-1015", 4085.0, "DAITM05", "WASH AND DRY COMPLETELY SAFELY", "DAD", "HYGIENE", "Y", "", "1", 1.0, "", "", "", "", "", 10.0, "WEEK 16", 112.0, "TREATMENT", "2014-05-07", 126.0]
["CDISCPILOT01", "QS", "01-701-1015", 4125.0, "DAITM05", "WASH AND DRY COMPLETELY SAFELY", "DAD", "HYGIENE", "Y", "", "1", 1.0, "", "", "", "", "", 12.0, "WEEK 24", 168.0, "TREATMENT", "2014-06-18", 168.0]
["CDISCPILOT01", "QS", "01-701-1015", 4006.0, "DAITM06", "BRUSH HIS/HER TEETH", "DAD", "HYGIENE", "Y", "", "1", 1.0, "", "", "", "Y", "", 3.0, "BASELINE", 1.0, "TREATMENT", "2014-01-02", 1.0]
["CDISCPILOT01", "QS", "01-701-1015", 4046.0, "DAITM06", "BRUSH HIS/HER TEETH", "DAD", "HYGIENE", "Y", "", "1", 1.0, "", "", "", "", "", 8.0, "WEEK 8", 56.0, "TREATMENT", "2014-03-05", 63.0]
["CDISCPILOT01", "QS", "01-701-1015", 4086.0, "DAITM06", "BRUSH HIS/HER TEETH", "DAD", "HYGIENE", "Y", "", "1", 1.0, "", "", "", "", "", 10.0, "WEEK 16", 112.0, "TREATMENT", "2014-05-07", 126.0]
["CDISCPILOT01", "QS", "01-701-1015", 4126.0, "DAITM06", "BRUSH HIS/HER TEETH", "DAD", "HYGIENE", "Y", "", "1", 1.0, "", "", "", "", "", 12.0, "WEEK 24", 168.0, "TREATMENT", "2014-06-18", 168.0]
["CDISCPILOT01", "QS", "01-701-1015", 4007.0, "DAITM07", "CARE FOR HIS/HER HAIR", "DAD", "HYGIENE", "Y", "", "1", 1.0, "", "", "", "Y", "", 3.0, "BASELINE", 1.0, "TREATMENT", "2014-01-02", 1.0]
["CDISCPILOT01", "QS", "01-701-1015", 4047.0, "DAITM07", "CARE FOR HIS/HER HAIR", "DAD", "HYGIENE", "Y", "", "1", 1.0, "", "", "", "", "", 8.0, "WEEK 8", 56.0, "TREATMENT", "2014-03-05", 63.0]
["CDISCPILOT01", "QS", "01-701-1015", 4087.0, "DAITM07", "CARE FOR HIS/HER HAIR", "DAD", "HYGIENE", "Y", "", "1", 1.0, "", "", "", "", "", 10.0, "WEEK 16", 112.0, "TREATMENT", "2014-05-07", 126.0]
["CDISCPILOT01", "QS", "01-701-1015", 4127.0, "DAITM07", "CARE FOR HIS/HER HAIR", "DAD", "HYGIENE", "Y", "", "1", 1.0, "", "", "", "", "", 12.0, "WEEK 24", 168.0, "TREATMENT", "2014-06-18", 168.0]
["CDISCPILOT01", "QS", "01-701-1015", 4008.0, "DAITM08", "UNDERTAKE TO DRESS HIMSELF/HERSELF", "DAD", "DRESSING", "Y", "", "1", 1.0, "", "", "", "Y", "", 3.0, "BASELINE", 1.0, "TREATMENT", "2014-01-02", 1.0]
["CDISCPILOT01", "QS", "01-701-1015", 4048.0, "DAITM08", "UNDERTAKE TO DRESS HIMSELF/HERSELF", "DAD", "DRESSING", "Y", "", "1", 1.0, "", "", "", "", "", 8.0, "WEEK 8", 56.0, "TREATMENT", "2014-03-05", 63.0]
["CDISCPILOT01", "QS", "01-701-1015", 4088.0, "DAITM08", "UNDERTAKE TO DRESS HIMSELF/HERSELF", "DAD", "DRESSING", "Y", "", "1", 1.0, "", "", "", "", "", 10.0, "WEEK 16", 112.0, "TREATMENT", "2014-05-07", 126.0]
["CDISCPILOT01", "QS", "01-701-1015", 4128.0, "DAITM08", "UNDERTAKE TO DRESS HIMSELF/HERSELF", "DAD", "DRESSING", "Y", "", "1", 1.0, "", "", "", "", "", 12.0, "WEEK 24", 168.0, "TREATMENT", "2014-06-18", 168.0]
["CDISCPILOT01", "QS", "01-701-1015", 4009.0, "DAITM09", "CHOOSE APPROPRIATE CLOTHING", "DAD", "DRESSING", "Y", "", "1", 1.0, "", "", "", "Y", "", 3.0, "BASELINE", 1.0, "TREATMENT", "2014-01-02", 1.0]
["CDISCPILOT01", "QS", "01-701-1015", 4049.0, "DAITM09", "CHOOSE APPROPRIATE CLOTHING", "DAD", "DRESSING", "Y", "", "1", 1.0, "", "", "", "", "", 8.0, "WEEK 8", 56.0, "TREATMENT", "2014-03-05", 63.0]
["CDISCPILOT01", "QS", "01-701-1015", 4089.0, "DAITM09", "CHOOSE APPROPRIATE CLOTHING", "DAD", "DRESSING", "Y", "", "1", 1.0, "", "", "", "", "", 10.0, "WEEK 16", 112.0, "TREATMENT", "2014-05-07", 126.0]
["CDISCPILOT01", "QS", "01-701-1015", 4129.0, "DAITM09", "CHOOSE APPROPRIATE CLOTHING", "DAD", "DRESSING", "Y", "", "1", 1.0, "", "", "", "", "", 12.0, "WEEK 24", 168.0, "TREATMENT", "2014-06-18", 168.0]
["CDISCPILOT01", "QS", "01-701-1015", 4010.0, "DAITM10", "DRESS HIMSELF/HERSELF", "DAD", "DRESSING", "Y", "", "1", 1.0, "", "", "", "Y", "", 3.0, "BASELINE", 1.0, "TREATMENT", "2014-01-02", 1.0]
["CDISCPILOT01", "QS", "01-701-1015", 4050.0, "DAITM10", "DRESS HIMSELF/HERSELF", "DAD", "DRESSING", "Y", "", "1", 1.0, "", "", "", "", "", 8.0, "WEEK 8", 56.0, "TREATMENT", "2014-03-05", 63.0]
["CDISCPILOT01", "QS", "01-701-1015", 4090.0, "DAITM10", "DRESS HIMSELF/HERSELF", "DAD", "DRESSING", "Y", "", "1", 1.0, "", "", "", "", "", 10.0, "WEEK 16", 112.0, "TREATMENT", "2014-05-07", 126.0]
["CDISCPILOT01", "QS", "01-701-1015", 4130.0, "DAITM10", "DRESS HIMSELF/HERSELF", "DAD", "DRESSING", "Y", "", "1", 1.0, "", "", "", "", "", 12.0, "WEEK 24", 168.0, "TREATMENT", "2014-06-18", 168.0]
["CDISCPILOT01", "QS", "01-701-1015", 4011.0, "DAITM11", "DRESS HIMSELF/HERSELF COMPLETELY", "DAD", "DRESSING", "Y", "", "1", 1.0, "", "", "", "Y", "", 3.0, "BASELINE", 1.0, "TREATMENT", "2014-01-02", 1.0]
["CDISCPILOT01", "QS", "01-701-1015", 4051.0, "DAITM11", "DRESS HIMSELF/HERSELF COMPLETELY", "DAD", "DRESSING", "Y", "", "1", 1.0, "", "", "", "", "", 8.0, "WEEK 8", 56.0, "TREATMENT", "2014-03-05", 63.0]
["CDISCPILOT01", "QS", "01-701-1015", 4091.0, "DAITM11", "DRESS HIMSELF/HERSELF COMPLETELY", "DAD", "DRESSING", "Y", "", "1", 1.0, "", "", "", "", "", 10.0, "WEEK 16", 112.0, "TREATMENT", "2014-05-07", 126.0]
["CDISCPILOT01", "QS", "01-701-1015", 4131.0, "DAITM11", "DRESS HIMSELF/HERSELF COMPLETELY", "DAD", "DRESSING", "Y", "", "1", 1.0, "", "", "", "", "", 12.0, "WEEK 24", 168.0, "TREATMENT", "2014-06-18", 168.0]
["CDISCPILOT01", "QS", "01-701-1015", 4012.0, "DAITM12", "UNDRESS HIMSELF/HERSELF COMPLETELY", "DAD", "DRESSING", "Y", "", "1", 1.0, "", "", "", "Y", "", 3.0, "BASELINE", 1.0, "TREATMENT", "2014-01-02", 1.0]
["CDISCPILOT01", "QS", "01-701-1015", 4052.0, "DAITM12", "UNDRESS HIMSELF/HERSELF COMPLETELY", "DAD", "DRESSING", "Y", "", "1", 1.0, "", "", "", "", "", 8.0, "WEEK 8", 56.0, "TREATMENT", "2014-03-05", 63.0]
["CDISCPILOT01", "QS", "01-701-1015", 4092.0, "DAITM12", "UNDRESS HIMSELF/HERSELF COMPLETELY", "DAD", "DRESSING", "Y", "", "1", 1.0, "", "", "", "", "", 10.0, "WEEK 16", 112.0, "TREATMENT", "2014-05-07", 126.0]
["CDISCPILOT01", "QS", "01-701-1015", 4132.0, "DAITM12", "UNDRESS HIMSELF/HERSELF COMPLETELY", "DAD", "DRESSING", "Y", "", "1", 1.0, "", "", "", "", "", 12.0, "WEEK 24", 168.0, "TREATMENT", "2014-06-18", 168.0]
["CDISCPILOT01", "QS", "01-701-1015", 4013.0, "DAITM13", "DECIDE TO USE THE TOILET AT APPROPRIATE", "DAD", "CONTINENCE", "Y", "", "1", 1.0, "", "", "", "Y", "", 3.0, "BASELINE", 1.0, "TREATMENT", "2014-01-02", 1.0]
["CDISCPILOT01", "QS", "01-701-1015", 4053.0, "DAITM13", "DECIDE TO USE THE TOILET AT APPROPRIATE", "DAD", "CONTINENCE", "Y", "", "1", 1.0, "", "", "", "", "", 8.0, "WEEK 8", 56.0, "TREATMENT", "2014-03-05", 63.0]
["CDISCPILOT01", "QS", "01-701-1015", 4093.0, "DAITM13", "DECIDE TO USE THE TOILET AT APPROPRIATE", "DAD", "CONTINENCE", "Y", "", "1", 1.0, "", "", "", "", "", 10.0, "WEEK 16", 112.0, "TREATMENT", "2014-05-07", 126.0]
["CDISCPILOT01", "QS", "01-701-1015", 4133.0, "DAITM13", "DECIDE TO USE THE TOILET AT APPROPRIATE", "DAD", "CONTINENCE", "Y", "", "1", 1.0, "", "", "", "", "", 12.0, "WEEK 24", 168.0, "TREATMENT", "2014-06-18", 168.0]
["CDISCPILOT01", "QS", "01-701-1015", 4014.0, "DAITM14", "USE THE TOILET WITHOUT \"ACCIDENTS\"", "DAD", "CONTINENCE", "Y", "", "1", 1.0, "", "", "", "Y", "", 3.0, "BASELINE", 1.0, "TREATMENT", "2014-01-02", 1.0]
["CDISCPILOT01", "QS", "01-701-1015", 4054.0, "DAITM14", "USE THE TOILET WITHOUT \"ACCIDENTS\"", "DAD", "CONTINENCE", "Y", "", "1", 1.0, "", "", "", "", "", 8.0, "WEEK 8", 56.0, "TREATMENT", "2014-03-05", 63.0]
["CDISCPILOT01", "QS", "01-701-1015", 4094.0, "DAITM14", "USE THE TOILET WITHOUT \"ACCIDENTS\"", "DAD", "CONTINENCE", "Y", "", "1", 1.0, "", "", "", "", "", 10.0, "WEEK 16", 112.0, "TREATMENT", "2014-05-07", 126.0]
["CDISCPILOT01", "QS", "01-701-1015", 4134.0, "DAITM14", "USE THE TOILET WITHOUT \"ACCIDENTS\"", "DAD", "CONTINENCE", "Y", "", "1", 1.0, "", "", "", "", "", 12.0, "WEEK 24", 168.0, "TREATMENT", "2014-06-18", 168.0]
["CDISCPILOT01", "QS", "01-701-1015", 4015.0, "DAITM15", "DECIDE THAT HE/SHE NEEDS TO EAT", "DAD", "EATING", "Y", "", "1", 1.0, "", "", "", "Y", "", 3.0, "BASELINE", 1.0, "TREATMENT", "2014-01-02", 1.0]
["CDISCPILOT01", "QS", "01-701-1015", 4055.0, "DAITM15", "DECIDE THAT HE/SHE NEEDS TO EAT", "DAD", "EATING", "Y", "", "1", 1.0, "", "", "", "", "", 8.0, "WEEK 8", 56.0, "TREATMENT", "2014-03-05", 63.0]
["CDISCPILOT01", "QS", "01-701-1015", 4095.0, "DAITM15", "DECIDE THAT HE/SHE NEEDS TO EAT", "DAD", "EATING", "Y", "", "1", 1.0, "", "", "", "", "", 10.0, "WEEK 16", 112.0, "TREATMENT", "2014-05-07", 126.0]
["CDISCPILOT01", "QS", "01-701-1015", 4135.0, "DAITM15", "DECIDE THAT HE/SHE NEEDS TO EAT", "DAD", "EATING", "Y", "", "1", 1.0, "", "", "", "", "", 12.0, "WEEK 24", 168.0, "TREATMENT", "2014-06-18", 168.0]
["CDISCPILOT01", "QS", "01-701-1015", 4016.0, "DAITM16", "CHOOSE APPROPRIATE UTENSILS", "DAD", "EATING", "Y", "", "1", 1.0, "", "", "", "Y", "", 3.0, "BASELINE", 1.0, "TREATMENT", "2014-01-02", 1.0]
["CDISCPILOT01", "QS", "01-701-1015", 4056.0, "DAITM16", "CHOOSE APPROPRIATE UTENSILS", "DAD", "EATING", "Y", "", "1", 1.0, "", "", "", "", "", 8.0, "WEEK 8", 56.0, "TREATMENT", "2014-03-05", 63.0]
["CDISCPILOT01", "QS", "01-701-1015", 4096.0, "DAITM16", "CHOOSE APPROPRIATE UTENSILS", "DAD", "EATING", "Y", "", "1", 1.0, "", "", "", "", "", 10.0, "WEEK 16", 112.0, "TREATMENT", "2014-05-07", 126.0]
["CDISCPILOT01", "QS", "01-701-1015", 4136.0, "DAITM16", "CHOOSE APPROPRIATE UTENSILS", "DAD", "EATING", "Y", "", "1", 1.0, "", "", "", "", "", 12.0, "WEEK 24", 168.0, "TREATMENT", "2014-06-18", 168.0]
["CDISCPILOT01", "QS", "01-701-1015", 4017.0, "DAITM17", "EAT HIS/HER MEALS AT A NORMAL PACE", "DAD", "EATING", "Y", "", "1", 1.0, "", "", "", "Y", "", 3.0, "BASELINE", 1.0, "TREATMENT", "2014-01-02", 1.0]
["CDISCPILOT01", "QS", "01-701-1015", 4057.0, "DAITM17", "EAT HIS/HER MEALS AT A NORMAL PACE", "DAD", "EATING", "Y", "", "1", 1.0, "", "", "", "", "", 8.0, "WEEK 8", 56.0, "TREATMENT", "2014-03-05", 63.0]
["CDISCPILOT01", "QS", "01-701-1015", 4097.0, "DAITM17", "EAT HIS/HER MEALS AT A NORMAL PACE", "DAD", "EATING", "Y", "", "1", 1.0, "", "", "", "", "", 10.0, "WEEK 16", 112.0, "TREATMENT", "2014-05-07", 126.0]
["CDISCPILOT01", "QS", "01-701-1015", 4137.0, "DAITM17", "EAT HIS/HER MEALS AT A NORMAL PACE", "DAD", "EATING", "Y", "", "1", 1.0, "", "", "", "", "", 12.0, "WEEK 24", 168.0, "TREATMENT", "2014-06-18", 168.0]
["CDISCPILOT01", "QS", "01-701-1015", 4018.0, "DAITM18", "UNDERTAKE TO PREPARE A LIGHT MEAL", "DAD", "MEAL PREPARATION", "Y", "", "1", 1.0, "", "", "", "Y", "", 3.0, "BASELINE", 1.0, "TREATMENT", "2014-01-02", 1.0]
["CDISCPILOT01", "QS", "01-701-1015", 4058.0, "DAITM18", "UNDERTAKE TO PREPARE A LIGHT MEAL", "DAD", "MEAL PREPARATION", "Y", "", "1", 1.0, "", "", "", "", "", 8.0, "WEEK 8", 56.0, "TREATMENT", "2014-03-05", 63.0]
["CDISCPILOT01", "QS", "01-701-1015", 4098.0, "DAITM18", "UNDERTAKE TO PREPARE A LIGHT MEAL", "DAD", "MEAL PREPARATION", "Y", "", "1", 1.0, "", "", "", "", "", 10.0, "WEEK 16", 112.0, "TREATMENT", "2014-05-07", 126.0]
["CDISCPILOT01", "QS", "01-701-1015", 4138.0, "DAITM18", "UNDERTAKE TO PREPARE A LIGHT MEAL", "DAD", "MEAL PREPARATION", "Y", "", "1", 1.0, "", "", "", "", "", 12.0, "WEEK 24", 168.0, "TREATMENT", "2014-06-18", 168.0]
["CDISCPILOT01", "QS", "01-701-1015", 4019.0, "DAITM19", "ADEQUATELY PLAN A LIGHT MEAL OR SNACK", "DAD", "MEAL PREPARATION", "Y", "", "1", 1.0, "", "", "", "Y", "", 3.0, "BASELINE", 1.0, "TREATMENT", "2014-01-02", 1.0]
["CDISCPILOT01", "QS", "01-701-1015", 4059.0, "DAITM19", "ADEQUATELY PLAN A LIGHT MEAL OR SNACK", "DAD", "MEAL PREPARATION", "Y", "", "1", 1.0, "", "", "", "", "", 8.0, "WEEK 8", 56.0, "TREATMENT", "2014-03-05", 63.0]
["CDISCPILOT01", "QS", "01-701-1015", 4099.0, "DAITM19", "ADEQUATELY PLAN A LIGHT MEAL OR SNACK", "DAD", "MEAL PREPARATION", "Y", "", "1", 1.0, "", "", "", "", "", 10.0, "WEEK 16", 112.0, "TREATMENT", "2014-05-07", 126.0]
["CDISCPILOT01", "QS", "01-701-1015", 4139.0, "DAITM19", "ADEQUATELY PLAN A LIGHT MEAL OR SNACK", "DAD", "MEAL PREPARATION", "Y", "", "1", 1.0, "", "", "", "", "", 12.0, "WEEK 24", 168.0, "TREATMENT", "2014-06-18", 168.0]
["CDISCPILOT01", "QS", "01-701-1015", 4020.0, "DAITM20", "PREPARE OR COOK A LIGHT MEAL OR A SNACK", "DAD", "MEAL PREPARATION", "Y", "", "1", 1.0, "", "", "", "Y", "", 3.0, "BASELINE", 1.0, "TREATMENT", "2014-01-02", 1.0]
["CDISCPILOT01", "QS", "01-701-1015", 4060.0, "DAITM20", "PREPARE OR COOK A LIGHT MEAL OR A SNACK", "DAD", "MEAL PREPARATION", "Y", "", "1", 1.0, "", "", "", "", "", 8.0, "WEEK 8", 56.0, "TREATMENT", "2014-03-05", 63.0]
["CDISCPILOT01", "QS", "01-701-1015", 4100.0, "DAITM20", "PREPARE OR COOK A LIGHT MEAL OR A SNACK", "DAD", "MEAL PREPARATION", "Y", "", "1", 1.0, "", "", "", "", "", 10.0, "WEEK 16", 112.0, "TREATMENT", "2014-05-07", 126.0]
["CDISCPILOT01", "QS", "01-701-1015", 4140.0, "DAITM20", "PREPARE OR COOK A LIGHT MEAL OR A SNACK", "DAD", "MEAL PREPARATION", "Y", "", "1", 1.0, "", "", "", "", "", 12.0, "WEEK 24", 168.0, "TREATMENT", "2014-06-18", 168.0]
["CDISCPILOT01", "QS", "01-701-1015", 4021.0, "DAITM21", "ATTEMPT TO TELEPHONE SOMEONE", "DAD", "TELEPHONING", "Y", "", "1", 1.0, "", "", "", "Y", "", 3.0, "BASELINE", 1.0, "TREATMENT", "2014-01-02", 1.0]
["CDISCPILOT01", "QS", "01-701-1015", 4061.0, "DAITM21", "ATTEMPT TO TELEPHONE SOMEONE", "DAD", "TELEPHONING", "Y", "", "1", 1.0, "", "", "", "", "", 8.0, "WEEK 8", 56.0, "TREATMENT", "2014-03-05", 63.0]
["CDISCPILOT01", "QS", "01-701-1015", 4101.0, "DAITM21", "ATTEMPT TO TELEPHONE SOMEONE", "DAD", "TELEPHONING", "Y", "", "1", 1.0, "", "", "", "", "", 10.0, "WEEK 16", 112.0, "TREATMENT", "2014-05-07", 126.0]
["CDISCPILOT01", "QS", "01-701-1015", 4141.0, "DAITM21", "ATTEMPT TO TELEPHONE SOMEONE", "DAD", "TELEPHONING", "Y", "", "1", 1.0, "", "", "", "", "", 12.0, "WEEK 24", 168.0, "TREATMENT", "2014-06-18", 168.0]
["CDISCPILOT01", "QS", "01-701-1015", 4022.0, "DAITM22", "FIND AND DIAL A TELEPHONE NUMBER CORRECT", "DAD", "TELEPHONING", "Y", "", "1", 1.0, "", "", "", "Y", "", 3.0, "BASELINE", 1.0, "TREATMENT", "2014-01-02", 1.0]
["CDISCPILOT01", "QS", "01-701-1015", 4062.0, "DAITM22", "FIND AND DIAL A TELEPHONE NUMBER CORRECT", "DAD", "TELEPHONING", "Y", "", "1", 1.0, "", "", "", "", "", 8.0, "WEEK 8", 56.0, "TREATMENT", "2014-03-05", 63.0]
["CDISCPILOT01", "QS", "01-701-1015", 4102.0, "DAITM22", "FIND AND DIAL A TELEPHONE NUMBER CORRECT", "DAD", "TELEPHONING", "Y", "", "1", 1.0, "", "", "", "", "", 10.0, "WEEK 16", 112.0, "TREATMENT", "2014-05-07", 126.0]
["CDISCPILOT01", "QS", "01-701-1015", 4142.0, "DAITM22", "FIND AND DIAL A TELEPHONE NUMBER CORRECT", "DAD", "TELEPHONING", "Y", "", "1", 1.0, "", "", "", "", "", 12.0, "WEEK 24", 168.0, "TREATMENT", "2014-06-18", 168.0]
["CDISCPILOT01", "QS", "01-701-1015", 4023.0, "DAITM23", "CARRY OUT A TELEPHONE CONVERSATION", "DAD", "TELEPHONING", "Y", "", "1", 1.0, "", "", "", "Y", "", 3.0, "BASELINE", 1.0, "TREATMENT", "2014-01-02", 1.0]
["CDISCPILOT01", "QS", "01-701-1015", 4063.0, "DAITM23", "CARRY OUT A TELEPHONE CONVERSATION", "DAD", "TELEPHONING", "Y", "", "1", 1.0, "", "", "", "", "", 8.0, "WEEK 8", 56.0, "TREATMENT", "2014-03-05", 63.0]
["CDISCPILOT01", "QS", "01-701-1015", 4103.0, "DAITM23", "CARRY OUT A TELEPHONE CONVERSATION", "DAD", "TELEPHONING", "Y", "", "1", 1.0, "", "", "", "", "", 10.0, "WEEK 16", 112.0, "TREATMENT", "2014-05-07", 126.0]
["CDISCPILOT01", "QS", "01-701-1015", 4143.0, "DAITM23", "CARRY OUT A TELEPHONE CONVERSATION", "DAD", "TELEPHONING", "Y", "", "1", 1.0, "", "", "", "", "", 12.0, "WEEK 24", 168.0, "TREATMENT", "2014-06-18", 168.0]
["CDISCPILOT01", "QS", "01-701-1015", 4024.0, "DAITM24", "WRITE AND CONVEY A TELEPHONE MESSAGE", "DAD", "TELEPHONING", "Y", "", "1", 1.0, "", "", "", "Y", "", 3.0, "BASELINE", 1.0, "TREATMENT", "2014-01-02", 1.0]
["CDISCPILOT01", "QS", "01-701-1015", 4064.0, "DAITM24", "WRITE AND CONVEY A TELEPHONE MESSAGE", "DAD", "TELEPHONING", "Y", "", "1", 1.0, "", "", "", "", "", 8.0, "WEEK 8", 56.0, "TREATMENT", "2014-03-05", 63.0]
["CDISCPILOT01", "QS", "01-701-1015", 4104.0, "DAITM24", "WRITE AND CONVEY A TELEPHONE MESSAGE", "DAD", "TELEPHONING", "Y", "", "1", 1.0, "", "", "", "", "", 10.0, "WEEK 16", 112.0, "TREATMENT", "2014-05-07", 126.0]
["CDISCPILOT01", "QS", "01-701-1015", 4144.0, "DAITM24", "WRITE AND CONVEY A TELEPHONE MESSAGE", "DAD", "TELEPHONING", "Y", "", "1", 1.0, "", "", "", "", "", 12.0, "WEEK 24", 168.0, "TREATMENT", "2014-06-18", 168.0]
["CDISCPILOT01", "QS", "01-701-1015", 4025.0, "DAITM25", "UNDERTAKE TO GO OUT", "DAD", "GOING ON AN OUTING", "Y", "", "1", 1.0, "", "", "", "Y", "", 3.0, "BASELINE", 1.0, "TREATMENT", "2014-01-02", 1.0]
["CDISCPILOT01", "QS", "01-701-1015", 4065.0, "DAITM25", "UNDERTAKE TO GO OUT", "DAD", "GOING ON AN OUTING", "Y", "", "1", 1.0, "", "", "", "", "", 8.0, "WEEK 8", 56.0, "TREATMENT", "2014-03-05", 63.0]
["CDISCPILOT01", "QS", "01-701-1015", 4105.0, "DAITM25", "UNDERTAKE TO GO OUT", "DAD", "GOING ON AN OUTING", "Y", "", "1", 1.0, "", "", "", "", "", 10.0, "WEEK 16", 112.0, "TREATMENT", "2014-05-07", 126.0]
["CDISCPILOT01", "QS", "01-701-1015", 4145.0, "DAITM25", "UNDERTAKE TO GO OUT", "DAD", "GOING ON AN OUTING", "Y", "", "1", 1.0, "", "", "", "", "", 12.0, "WEEK 24", 168.0, "TREATMENT", "2014-06-18", 168.0]
["CDISCPILOT01", "QS", "01-701-1015", 4026.0, "DAITM26", "ADEQUATELY ORGANIZE AN OUTING", "DAD", "GOING ON AN OUTING", "Y", "", "1", 1.0, "", "", "", "Y", "", 3.0, "BASELINE", 1.0, "TREATMENT", "2014-01-02", 1.0]
["CDISCPILOT01", "QS", "01-701-1015", 4066.0, "DAITM26", "ADEQUATELY ORGANIZE AN OUTING", "DAD", "GOING ON AN OUTING", "Y", "", "1", 1.0, "", "", "", "", "", 8.0, "WEEK 8", 56.0, "TREATMENT", "2014-03-05", 63.0]
["CDISCPILOT01", "QS", "01-701-1015", 4106.0, "DAITM26", "ADEQUATELY ORGANIZE AN OUTING", "DAD", "GOING ON AN OUTING", "Y", "", "1", 1.0, "", "", "", "", "", 10.0, "WEEK 16", 112.0, "TREATMENT", "2014-05-07", 126.0]
["CDISCPILOT01", "QS", "01-701-1015", 4146.0, "DAITM26", "ADEQUATELY ORGANIZE AN OUTING", "DAD", "GOING ON AN OUTING", "Y", "", "1", 1.0, "", "", "", "", "", 12.0, "WEEK 24", 168.0, "TREATMENT", "2014-06-18", 168.0]
["CDISCPILOT01", "QS", "01-701-1015", 4027.0, "DAITM27", "GO OUT AND REACH A FAMILIAR DESTINATION", "DAD", "GOING ON AN OUTING", "Y", "", "1", 1.0, "", "", "", "Y", "", 3.0, "BASELINE", 1.0, "TREATMENT", "2014-01-02", 1.0]
["CDISCPILOT01", "QS", "01-701-1015", 4067.0, "DAITM27", "GO OUT AND REACH A FAMILIAR DESTINATION", "DAD", "GOING ON AN OUTING", "Y", "", "1", 1.0, "", "", "", "", "", 8.0, "WEEK 8", 56.0, "TREATMENT", "2014-03-05", 63.0]
["CDISCPILOT01", "QS", "01-701-1015", 4107.0, "DAITM27", "GO OUT AND REACH A FAMILIAR DESTINATION", "DAD", "GOING ON AN OUTING", "Y", "", "1", 1.0, "", "", "", "", "", 10.0, "WEEK 16", 112.0, "TREATMENT", "2014-05-07", 126.0]
["CDISCPILOT01", "QS", "01-701-1015", 4147.0, "DAITM27", "GO OUT AND REACH A FAMILIAR DESTINATION", "DAD", "GOING ON AN OUTING", "Y", "", "1", 1.0, "", "", "", "", "", 12.0, "WEEK 24", 168.0, "TREATMENT", "2014-06-18", 168.0]
["CDISCPILOT01", "QS", "01-701-1015", 4028.0, "DAITM28", "SAFELY TAKE CAR, BUS, TAXI", "DAD", "GOING ON AN OUTING", "Y", "", "1", 1.0, "", "", "", "Y", "", 3.0, "BASELINE", 1.0, "TREATMENT", "2014-01-02", 1.0]
["CDISCPILOT01", "QS", "01-701-1015", 4068.0, "DAITM28", "SAFELY TAKE CAR, BUS, TAXI", "DAD", "GOING ON AN OUTING", "Y", "", "1", 1.0, "", "", "", "", "", 8.0, "WEEK 8", 56.0, "TREATMENT", "2014-03-05", 63.0]
["CDISCPILOT01", "QS", "01-701-1015", 4108.0, "DAITM28", "SAFELY TAKE CAR, BUS, TAXI", "DAD", "GOING ON AN OUTING", "Y", "", "1", 1.0, "", "", "", "", "", 10.0, "WEEK 16", 112.0, "TREATMENT", "2014-05-07", 126.0]
["CDISCPILOT01", "QS", "01-701-1015", 4148.0, "DAITM28", "SAFELY TAKE CAR, BUS, TAXI", "DAD", "GOING ON AN OUTING", "Y", "", "1", 1.0, "", "", "", "", "", 12.0, "WEEK 24", 168.0, "TREATMENT", "2014-06-18", 168.0]
["CDISCPILOT01", "QS", "01-701-1015", 4029.0, "DAITM29", "RETURN FROM THE STORE", "DAD", "GOING ON AN OUTING", "Y", "", "1", 1.0, "", "", "", "Y", "", 3.0, "BASELINE", 1.0, "TREATMENT", "2014-01-02", 1.0]
["CDISCPILOT01", "QS", "01-701-1015", 4069.0, "DAITM29", "RETURN FROM THE STORE", "DAD", "GOING ON AN OUTING", "Y", "", "1", 1.0, "", "", "", "", "", 8.0, "WEEK 8", 56.0, "TREATMENT", "2014-03-05", 63.0]
["CDISCPILOT01", "QS", "01-701-1015", 4109.0, "DAITM29", "RETURN FROM THE STORE", "DAD", "GOING ON AN OUTING", "Y", "", "1", 1.0, "", "", "", "", "", 10.0, "WEEK 16", 112.0, "TREATMENT", "2014-05-07", 126.0]
["CDISCPILOT01", "QS", "01-701-1015", 4149.0, "DAITM29", "RETURN FROM THE STORE", "DAD", "GOING ON AN OUTING", "Y", "", "1", 1.0, "", "", "", "", "", 12.0, "WEEK 24", 168.0, "TREATMENT", "2014-06-18", 168.0]
["CDISCPILOT01", "QS", "01-701-1015", 4030.0, "DAITM30", "INTEREST IN HIS/HER PERSONAL AFFAIRS", "DAD", "FINANCE AND CORRESPONDE", "Y", "", "1", 1.0, "", "", "", "Y", "", 3.0, "BASELINE", 1.0, "TREATMENT", "2014-01-02", 1.0]
["CDISCPILOT01", "QS", "01-701-1015", 4070.0, "DAITM30", "INTEREST IN HIS/HER PERSONAL AFFAIRS", "DAD", "FINANCE AND CORRESPONDE", "Y", "", "1", 1.0, "", "", "", "", "", 8.0, "WEEK 8", 56.0, "TREATMENT", "2014-03-05", 63.0]
["CDISCPILOT01", "QS", "01-701-1015", 4110.0, "DAITM30", "INTEREST IN HIS/HER PERSONAL AFFAIRS", "DAD", "FINANCE AND CORRESPONDE", "Y", "", "1", 1.0, "", "", "", "", "", 10.0, "WEEK 16", 112.0, "TREATMENT", "2014-05-07", 126.0]
["CDISCPILOT01", "QS", "01-701-1015", 4150.0, "DAITM30", "INTEREST IN HIS/HER PERSONAL AFFAIRS", "DAD", "FINANCE AND CORRESPONDE", "Y", "", "1", 1.0, "", "", "", "", "", 12.0, "WEEK 24", 168.0, "TREATMENT", "2014-06-18", 168.0]
["CDISCPILOT01", "QS", "01-701-1015", 4031.0, "DAITM31", "PAY HIS/HER BILLS", "DAD", "FINANCE AND CORRESPONDE", "Y", "", "1", 1.0, "", "", "", "Y", "", 3.0, "BASELINE", 1.0, "TREATMENT", "2014-01-02", 1.0]
["CDISCPILOT01", "QS", "01-701-1015", 4071.0, "DAITM31", "PAY HIS/HER BILLS", "DAD", "FINANCE AND CORRESPONDE", "Y", "", "1", 1.0, "", "", "", "", "", 8.0, "WEEK 8", 56.0, "TREATMENT", "2014-03-05", 63.0]
["CDISCPILOT01", "QS", "01-701-1015", 4111.0, "DAITM31", "PAY HIS/HER BILLS", "DAD", "FINANCE AND CORRESPONDE", "Y", "", "1", 1.0, "", "", "", "", "", 10.0, "WEEK 16", 112.0, "TREATMENT", "2014-05-07", 126.0]
["CDISCPILOT01", "QS", "01-701-1015", 4151.0, "DAITM31", "PAY HIS/HER BILLS", "DAD", "FINANCE AND CORRESPONDE", "Y", "", "1", 1.0, "", "", "", "", "", 12.0, "WEEK 24", 168.0, "TREATMENT", "2014-06-18", 168.0]
["CDISCPILOT01", "QS", "01-701-1015", 4032.0, "DAITM32", "ORGANIZE HIS/HER CORRESPONDENCE", "DAD", "FINANCE AND CORRESPONDE", "Y", "", "1", 1.0, "", "", "", "Y", "", 3.0, "BASELINE", 1.0, "TREATMENT", "2014-01-02", 1.0]
["CDISCPILOT01", "QS", "01-701-1015", 4072.0, "DAITM32", "ORGANIZE HIS/HER CORRESPONDENCE", "DAD", "FINANCE AND CORRESPONDE", "Y", "", "1", 1.0, "", "", "", "", "", 8.0, "WEEK 8", 56.0, "TREATMENT", "2014-03-05", 63.0]
["CDISCPILOT01", "QS", "01-701-1015", 4112.0, "DAITM32", "ORGANIZE HIS/HER CORRESPONDENCE", "DAD", "FINANCE AND CORRESPONDE", "Y", "", "1", 1.0, "", "", "", "", "", 10.0, "WEEK 16", 112.0, "TREATMENT", "2014-05-07", 126.0]
["CDISCPILOT01", "QS", "01-701-1015", 4152.0, "DAITM32", "ORGANIZE HIS/HER CORRESPONDENCE", "DAD", "FINANCE AND CORRESPONDE", "Y", "", "1", 1.0, "", "", "", "", "", 12.0, "WEEK 24", 168.0, "TREATMENT", "2014-06-18", 168.0]
["CDISCPILOT01", "QS", "01-701-1015", 4033.0, "DAITM33", "HANDLE ADEQUATELY HIS/HER MONEY", "DAD", "FINANCE AND CORRESPONDE", "Y", "", "1", 1.0, "", "", "", "Y", "", 3.0, "BASELINE", 1.0, "TREATMENT", "2014-01-02", 1.0]
["CDISCPILOT01", "QS", "01-701-1015", 4073.0, "DAITM33", "HANDLE ADEQUATELY HIS/HER MONEY", "DAD", "FINANCE AND CORRESPONDE", "Y", "", "1", 1.0, "", "", "", "", "", 8.0, "WEEK 8", 56.0, "TREATMENT", "2014-03-05", 63.0]
["CDISCPILOT01", "QS", "01-701-1015", 4113.0, "DAITM33", "HANDLE ADEQUATELY HIS/HER MONEY", "DAD", "FINANCE AND CORRESPONDE", "Y", "", "1", 1.0, "", "", "", "", "", 10.0, "WEEK 16", 112.0, "TREATMENT", "2014-05-07", 126.0]
["CDISCPILOT01", "QS", "01-701-1015", 4153.0, "DAITM33", "HANDLE ADEQUATELY HIS/HER MONEY", "DAD", "FINANCE AND CORRESPONDE", "Y", "", "1", 1.0, "", "", "", "", "", 12.0, "WEEK 24", 168.0, "TREATMENT", "2014-06-18", 168.0]
["CDISCPILOT01", "QS", "01-701-1015", 4034.0, "DAITM34", "DECIDE TO TAKE HIS/HER MEDICATIONS", "DAD", "MEDICATIONS", "Y", "", "1", 1.0, "", "", "", "Y", "", 3.0, "BASELINE", 1.0, "TREATMENT", "2014-01-02", 1.0]
["CDISCPILOT01", "QS", "01-701-1015", 4074.0, "DAITM34", "DECIDE TO TAKE HIS/HER MEDICATIONS", "DAD", "MEDICATIONS", "Y", "", "1", 1.0, "", "", "", "", "", 8.0, "WEEK 8", 56.0, "TREATMENT", "2014-03-05", 63.0]
["CDISCPILOT01", "QS", "01-701-1015", 4114.0, "DAITM34", "DECIDE TO TAKE HIS/HER MEDICATIONS", "DAD", "MEDICATIONS", "Y", "", "1", 1.0, "", "", "", "", "", 10.0, "WEEK 16", 112.0, "TREATMENT", "2014-05-07", 126.0]
["CDISCPILOT01", "QS", "01-701-1015", 4154.0, "DAITM34", "DECIDE TO TAKE HIS/HER MEDICATIONS", "DAD", "MEDICATIONS", "Y", "", "1", 1.0, "", "", "", "", "", 12.0, "WEEK 24", 168.0, "TREATMENT", "2014-06-18", 168.0]
["CDISCPILOT01", "QS", "01-701-1015", 4035.0, "DAITM35", "TAKE HIS/HER MEDICATIONS AS PRESCRIBED", "DAD", "MEDICATIONS", "Y", "", "1", 1.0, "", "", "", "Y", "", 3.0, "BASELINE", 1.0, "TREATMENT", "2014-01-02", 1.0]
["CDISCPILOT01", "QS", "01-701-1015", 4075.0, "DAITM35", "TAKE HIS/HER MEDICATIONS AS PRESCRIBED", "DAD", "MEDICATIONS", "Y", "", "1", 1.0, "", "", "", "", "", 8.0, "WEEK 8", 56.0, "TREATMENT", "2014-03-05", 63.0]
["CDISCPILOT01", "QS", "01-701-1015", 4115.0, "DAITM35", "TAKE HIS/HER MEDICATIONS AS PRESCRIBED", "DAD", "MEDICATIONS", "Y", "", "1", 1.0, "", "", "", "", "", 10.0, "WEEK 16", 112.0, "TREATMENT", "2014-05-07", 126.0]
["CDISCPILOT01", "QS", "01-701-1015", 4155.0, "DAITM35", "TAKE HIS/HER MEDICATIONS AS PRESCRIBED", "DAD", "MEDICATIONS", "Y", "", "1", 1.0, "", "", "", "", "", 12.0, "WEEK 24", 168.0, "TREATMENT", "2014-06-18", 168.0]
["CDISCPILOT01", "QS", "01-701-1015", 4036.0, "DAITM36", "SHOW AN INTEREST IN LEISURE ACTIVITY", "DAD", "LEISURE AND HOUSEWORK", "Y", "", "1", 1.0, "", "", "", "Y", "", 3.0, "BASELINE", 1.0, "TREATMENT", "2014-01-02", 1.0]
["CDISCPILOT01", "QS", "01-701-1015", 4076.0, "DAITM36", "SHOW AN INTEREST IN LEISURE ACTIVITY", "DAD", "LEISURE AND HOUSEWORK", "Y", "", "1", 1.0, "", "", "", "", "", 8.0, "WEEK 8", 56.0, "TREATMENT", "2014-03-05", 63.0]
["CDISCPILOT01", "QS", "01-701-1015", 4116.0, "DAITM36", "SHOW AN INTEREST IN LEISURE ACTIVITY", "DAD", "LEISURE AND HOUSEWORK", "Y", "", "1", 1.0, "", "", "", "", "", 10.0, "WEEK 16", 112.0, "TREATMENT", "2014-05-07", 126.0]
["CDISCPILOT01", "QS", "01-701-1015", 4156.0, "DAITM36", "SHOW AN INTEREST IN LEISURE ACTIVITY", "DAD", "LEISURE AND HOUSEWORK", "Y", "", "1", 1.0, "", "", "", "", "", 12.0, "WEEK 24", 168.0, "TREATMENT", "2014-06-18", 168.0]
["CDISCPILOT01", "QS", "01-701-1015", 4037.0, "DAITM37", "TAKE AN INTEREST IN HOUSEHOLD CHORES", "DAD", "LEISURE AND HOUSEWORK", "Y", "", "1", 1.0, "", "", "", "Y", "", 3.0, "BASELINE", 1.0, "TREATMENT", "2014-01-02", 1.0]
["CDISCPILOT01", "QS", "01-701-1015", 4077.0, "DAITM37", "TAKE AN INTEREST IN HOUSEHOLD CHORES", "DAD", "LEISURE AND HOUSEWORK", "Y", "", "1", 1.0, "", "", "", "", "", 8.0, "WEEK 8", 56.0, "TREATMENT", "2014-03-05", 63.0]
["CDISCPILOT01", "QS", "01-701-1015", 4117.0, "DAITM37", "TAKE AN INTEREST IN HOUSEHOLD CHORES", "DAD", "LEISURE AND HOUSEWORK", "Y", "", "1", 1.0, "", "", "", "", "", 10.0, "WEEK 16", 112.0, "TREATMENT", "2014-05-07", 126.0]
["CDISCPILOT01", "QS", "01-701-1015", 4157.0, "DAITM37", "TAKE AN INTEREST IN HOUSEHOLD CHORES", "DAD", "LEISURE AND HOUSEWORK", "Y", "", "1", 1.0, "", "", "", "", "", 12.0, "WEEK 24", 168.0, "TREATMENT", "2014-06-18", 168.0]
["CDISCPILOT01", "QS", "01-701-1015", 4038.0, "DAITM38", "PLAN AND ORGANIZE HOUSEHOLD CHORES", "DAD", "LEISURE AND HOUSEWORK", "Y", "", "1", 1.0, "", "", "", "Y", "", 3.0, "BASELINE", 1.0, "TREATMENT", "2014-01-02", 1.0]
["CDISCPILOT01", "QS", "01-701-1015", 4078.0, "DAITM38", "PLAN AND ORGANIZE HOUSEHOLD CHORES", "DAD", "LEISURE AND HOUSEWORK", "Y", "", "1", 1.0, "", "", "", "", "", 8.0, "WEEK 8", 56.0, "TREATMENT", "2014-03-05", 63.0]
["CDISCPILOT01", "QS", "01-701-1015", 4118.0, "DAITM38", "PLAN AND ORGANIZE HOUSEHOLD CHORES", "DAD", "LEISURE AND HOUSEWORK", "Y", "", "1", 1.0, "", "", "", "", "", 10.0, "WEEK 16", 112.0, "TREATMENT", "2014-05-07", 126.0]
["CDISCPILOT01", "QS", "01-701-1015", 4158.0, "DAITM38", "PLAN AND ORGANIZE HOUSEHOLD CHORES", "DAD", "LEISURE AND HOUSEWORK", "Y", "", "1", 1.0, "", "", "", "", "", 12.0, "WEEK 24", 168.0, "TREATMENT", "2014-06-18", 168.0]
["CDISCPILOT01", "QS", "01-701-1015", 4039.0, "DAITM39", "COMPLETE HOUSEHOLD CHORES", "DAD", "LEISURE AND HOUSEWORK", "Y", "", "1", 1.0, "", "", "", "Y", "", 3.0, "BASELINE", 1.0, "TREATMENT", "2014-01-02", 1.0]
["CDISCPILOT01", "QS", "01-701-1015", 4079.0, "DAITM39", "COMPLETE HOUSEHOLD CHORES", "DAD", "LEISURE AND HOUSEWORK", "Y", "", "1", 1.0, "", "", "", "", "", 8.0, "WEEK 8", 56.0, "TREATMENT", "2014-03-05", 63.0]
["CDISCPILOT01", "QS", "01-701-1015", 4119.0, "DAITM39", "COMPLETE HOUSEHOLD CHORES", "DAD", "LEISURE AND HOUSEWORK", "Y", "", "1", 1.0, "", "", "", "", "", 10.0, "WEEK 16", 112.0, "TREATMENT", "2014-05-07", 126.0]
["CDISCPILOT01", "QS", "01-701-1015", 4159.0, "DAITM39", "COMPLETE HOUSEHOLD CHORES", "DAD", "LEISURE AND HOUSEWORK", "Y", "", "1", 1.0, "", "", "", "", "", 12.0, "WEEK 24", 168.0, "TREATMENT", "2014-06-18", 168.0]
["CDISCPILOT01", "QS", "01-701-1015", 4040.0, "DAITM40", "STAY SAFELY AT HOME BY HIMSELF/HERSELF", "DAD", "LEISURE AND HOUSEWORK", "Y", "", "1", 1.0, "", "", "", "Y", "", 3.0, "BASELINE", 1.0, "TREATMENT", "2014-01-02", 1.0]
["CDISCPILOT01", "QS", "01-701-1015", 4080.0, "DAITM40", "STAY SAFELY AT HOME BY HIMSELF/HERSELF", "DAD", "LEISURE AND HOUSEWORK", "Y", "", "1", 1.0, "", "", "", "", "", 8.0, "WEEK 8", 56.0, "TREATMENT", "2014-03-05", 63.0]
["CDISCPILOT01", "QS", "01-701-1015", 4120.0, "DAITM40", "STAY SAFELY AT HOME BY HIMSELF/HERSELF", "DAD", "LEISURE AND HOUSEWORK", "Y", "", "1", 1.0, "", "", "", "", "", 10.0, "WEEK 16", 112.0, "TREATMENT", "2014-05-07", 126.0]
["CDISCPILOT01", "QS", "01-701-1015", 4160.0, "DAITM40", "STAY SAFELY AT HOME BY HIMSELF/HERSELF", "DAD", "LEISURE AND HOUSEWORK", "Y", "", "1", 1.0, "", "", "", "", "", 12.0, "WEEK 24", 168.0, "TREATMENT", "2014-06-18", 168.0]
["CDISCPILOT01", "QS", "01-701-1023", 4001.0, "DAITM01", "UNDERTAKE TO WASH HIMSELF/HERSELF", "DAD", "HYGIENE", "Y", "", "1", 1.0, "", "", "", "Y", "", 3.0, "BASELINE", 1.0, "TREATMENT", "2012-08-05", 1.0]
["CDISCPILOT01", "QS", "01-701-1023", 4041.0, "DAITM01", "UNDERTAKE TO WASH HIMSELF/HERSELF", "DAD", "HYGIENE", "Y", "", "1", 1.0, "", "", "", "", "", 5.0, "WEEK 4", 28.0, "TREATMENT", "2012-09-02", 29.0]
["CDISCPILOT01", "QS", "01-701-1023", 4081.0, "DAITM01", "UNDERTAKE TO WASH HIMSELF/HERSELF", "DAD", "HYGIENE", "Y", "", "1", 1.0, "", "", "", "", "", 201.0, "RETRIEVAL", 168.0, "TREATMENT", "2013-02-18", 198.0]
["CDISCPILOT01", "QS", "01-701-1023", 4002.0, "DAITM02", "UNDERTAKE TO BRUSH HIS/HER TEETH", "DAD", "HYGIENE", "Y", "", "1", 1.0, "", "", "", "Y", "", 3.0, "BASELINE", 1.0, "TREATMENT", "2012-08-05", 1.0]
["CDISCPILOT01", "QS", "01-701-1023", 4042.0, "DAITM02", "UNDERTAKE TO BRUSH HIS/HER TEETH", "DAD", "HYGIENE", "Y", "", "1", 1.0, "", "", "", "", "", 5.0, "WEEK 4", 28.0, "TREATMENT", "2012-09-02", 29.0]
["CDISCPILOT01", "QS", "01-701-1023", 4082.0, "DAITM02", "UNDERTAKE TO BRUSH HIS/HER TEETH", "DAD", "HYGIENE", "Y", "", "1", 1.0, "", "", "", "", "", 201.0, "RETRIEVAL", 168.0, "TREATMENT", "2013-02-18", 198.0]
["CDISCPILOT01", "QS", "01-701-1023", 4003.0, "DAITM03", "DECIDE TO CARE FOR HIS/HER HAIR", "DAD", "HYGIENE", "Y", "", "1", 1.0, "", "", "", "Y", "", 3.0, "BASELINE", 1.0, "TREATMENT", "2012-08-05", 1.0]
["CDISCPILOT01", "QS", "01-701-1023", 4043.0, "DAITM03", "DECIDE TO CARE FOR HIS/HER HAIR", "DAD", "HYGIENE", "Y", "", "1", 1.0, "", "", "", "", "", 5.0, "WEEK 4", 28.0, "TREATMENT", "2012-09-02", 29.0]
["CDISCPILOT01", "QS", "01-701-1023", 4083.0, "DAITM03", "DECIDE TO CARE FOR HIS/HER HAIR", "DAD", "HYGIENE", "Y", "", "1", 1.0, "", "", "", "", "", 201.0, "RETRIEVAL", 168.0, "TREATMENT", "2013-02-18", 198.0]
["CDISCPILOT01", "QS", "01-701-1023", 4004.0, "DAITM04", "PREPARE FOR WASHING, TAKING A BATH", "DAD", "HYGIENE", "Y", "", "1", 1.0, "", "", "", "Y", "", 3.0, "BASELINE", 1.0, "TREATMENT", "2012-08-05", 1.0]
["CDISCPILOT01", "QS", "01-701-1023", 4044.0, "DAITM04", "PREPARE FOR WASHING, TAKING A BATH", "DAD", "HYGIENE", "Y", "", "1", 1.0, "", "", "", "", "", 5.0, "WEEK 4", 28.0, "TREATMENT", "2012-09-02", 29.0]
["CDISCPILOT01", "QS", "01-701-1023", 4084.0, "DAITM04", "PREPARE FOR WASHING, TAKING A BATH", "DAD", "HYGIENE", "Y", "", "1", 1.0, "", "", "", "", "", 201.0, "RETRIEVAL", 168.0, "TREATMENT", "2013-02-18", 198.0]
["CDISCPILOT01", "QS", "01-701-1023", 4005.0, "DAITM05", "WASH AND DRY COMPLETELY SAFELY", "DAD", "HYGIENE", "Y", "", "1", 1.0, "", "", "", "Y", "", 3.0, "BASELINE", 1.0, "TREATMENT", "2012-08-05", 1.0]
["CDISCPILOT01", "QS", "01-701-1023", 4045.0, "DAITM05", "WASH AND DRY COMPLETELY SAFELY", "DAD", "HYGIENE", "Y", "", "1", 1.0, "", "", "", "", "", 5.0, "WEEK 4", 28.0, "TREATMENT", "2012-09-02", 29.0]
["CDISCPILOT01", "QS", "01-701-1023", 4085.0, "DAITM05", "WASH AND DRY COMPLETELY SAFELY", "DAD", "HYGIENE", "Y", "", "1", 1.0, "", "", "", "", "", 201.0, "RETRIEVAL", 168.0, "TREATMENT", "2013-02-18", 198.0]
["CDISCPILOT01", "QS", "01-701-1023", 4006.0, "DAITM06", "BRUSH HIS/HER TEETH", "DAD", "HYGIENE", "Y", "", "1", 1.0, "", "", "", "Y", "", 3.0, "BASELINE", 1.0, "TREATMENT", "2012-08-05", 1.0]
["CDISCPILOT01", "QS", "01-701-1023", 4046.0, "DAITM06", "BRUSH HIS/HER TEETH", "DAD", "HYGIENE", "Y", "", "1", 1.0, "", "", "", "", "", 5.0, "WEEK 4", 28.0, "TREATMENT", "2012-09-02", 29.0]
["CDISCPILOT01", "QS", "01-701-1023", 4086.0, "DAITM06", "BRUSH HIS/HER TEETH", "DAD", "HYGIENE", "Y", "", "1", 1.0, "", "", "", "", "", 201.0, "RETRIEVAL", 168.0, "TREATMENT", "2013-02-18", 198.0]
["CDISCPILOT01", "QS", "01-701-1023", 4007.0, "DAITM07", "CARE FOR HIS/HER HAIR", "DAD", "HYGIENE", "Y", "", "1", 1.0, "", "", "", "Y", "", 3.0, "BASELINE", 1.0, "TREATMENT", "2012-08-05", 1.0]
["CDISCPILOT01", "QS", "01-701-1023", 4047.0, "DAITM07", "CARE FOR HIS/HER HAIR", "DAD", "HYGIENE", "Y", "", "1", 1.0, "", "", "", "", "", 5.0, "WEEK 4", 28.0, "TREATMENT", "2012-09-02", 29.0]
["CDISCPILOT01", "QS", "01-701-1023", 4087.0, "DAITM07", "CARE FOR HIS/HER HAIR", "DAD", "HYGIENE", "Y", "", "1", 1.0, "", "", "", "", "", 201.0, "RETRIEVAL", 168.0, "TREATMENT", "2013-02-18", 198.0]
["CDISCPILOT01", "QS", "01-701-1023", 4008.0, "DAITM08", "UNDERTAKE TO DRESS HIMSELF/HERSELF", "DAD", "DRESSING", "Y", "", "1", 1.0, "", "", "", "Y", "", 3.0, "BASELINE", 1.0, "TREATMENT", "2012-08-05", 1.0]
["CDISCPILOT01", "QS", "01-701-1023", 4048.0, "DAITM08", "UNDERTAKE TO DRESS HIMSELF/HERSELF", "DAD", "DRESSING", "Y", "", "1", 1.0, "", "", "", "", "", 5.0, "WEEK 4", 28.0, "TREATMENT", "2012-09-02", 29.0]
["CDISCPILOT01", "QS", "01-701-1023", 4088.0, "DAITM08", "UNDERTAKE TO DRESS HIMSELF/HERSELF", "DAD", "DRESSING", "Y", "", "1", 1.0, "", "", "", "", "", 201.0, "RETRIEVAL", 168.0, "TREATMENT", "2013-02-18", 198.0]
["CDISCPILOT01", "QS", "01-701-1023", 4009.0, "DAITM09", "CHOOSE APPROPRIATE CLOTHING", "DAD", "DRESSING", "Y", "", "1", 1.0, "", "", "", "Y", "", 3.0, "BASELINE", 1.0, "TREATMENT", "2012-08-05", 1.0]
["CDISCPILOT01", "QS", "01-701-1023", 4049.0, "DAITM09", "CHOOSE APPROPRIATE CLOTHING", "DAD", "DRESSING", "Y", "", "1", 1.0, "", "", "", "", "", 5.0, "WEEK 4", 28.0, "TREATMENT", "2012-09-02", 29.0]
["CDISCPILOT01", "QS", "01-701-1023", 4089.0, "DAITM09", "CHOOSE APPROPRIATE CLOTHING", "DAD", "DRESSING", "Y", "", "1", 1.0, "", "", "", "", "", 201.0, "RETRIEVAL", 168.0, "TREATMENT", "2013-02-18", 198.0]
["CDISCPILOT01", "QS", "01-701-1023", 4010.0, "DAITM10", "DRESS HIMSELF/HERSELF", "DAD", "DRESSING", "Y", "", "1", 1.0, "", "", "", "Y", "", 3.0, "BASELINE", 1.0, "TREATMENT", "2012-08-05", 1.0]
["CDISCPILOT01", "QS", "01-701-1023", 4050.0, "DAITM10", "DRESS HIMSELF/HERSELF", "DAD", "DRESSING", "Y", "", "1", 1.0, "", "", "", "", "", 5.0, "WEEK 4", 28.0, "TREATMENT", "2012-09-02", 29.0]
["CDISCPILOT01", "QS", "01-701-1023", 4090.0, "DAITM10", "DRESS HIMSELF/HERSELF", "DAD", "DRESSING", "Y", "", "1", 1.0, "", "", "", "", "", 201.0, "RETRIEVAL", 168.0, "TREATMENT", "2013-02-18", 198.0]
["CDISCPILOT01", "QS", "01-701-1023", 4011.0, "DAITM11", "DRESS HIMSELF/HERSELF COMPLETELY", "DAD", "DRESSING", "Y", "", "1", 1.0, "", "", "", "Y", "", 3.0, "BASELINE", 1.0, "TREATMENT", "2012-08-05", 1.0]
["CDISCPILOT01", "QS", "01-701-1023", 4051.0, "DAITM11", "DRESS HIMSELF/HERSELF COMPLETELY", "DAD", "DRESSING", "Y", "", "1", 1.0, "", "", "", "", "", 5.0, "WEEK 4", 28.0, "TREATMENT", "2012-09-02", 29.0]
["CDISCPILOT01", "QS", "01-701-1023", 4091.0, "DAITM11", "DRESS HIMSELF/HERSELF COMPLETELY", "DAD", "DRESSING", "Y", "", "1", 1.0, "", "", "", "", "", 201.0, "RETRIEVAL", 168.0, "TREATMENT", "2013-02-18", 198.0]
["CDISCPILOT01", "QS", "01-701-1023", 4012.0, "DAITM12", "UNDRESS HIMSELF/HERSELF COMPLETELY", "DAD", "DRESSING", "Y", "", "1", 1.0, "", "", "", "Y", "", 3.0, "BASELINE", 1.0, "TREATMENT", "2012-08-05", 1.0]
["CDISCPILOT01", "QS", "01-701-1023", 4052.0, "DAITM12", "UNDRESS HIMSELF/HERSELF COMPLETELY", "DAD", "DRESSING", "Y", "", "1", 1.0, "", "", "", "", "", 5.0, "WEEK 4", 28.0, "TREATMENT", "2012-09-02", 29.0]
["CDISCPILOT01", "QS", "01-701-1023", 4092.0, "DAITM12", "UNDRESS HIMSELF/HERSELF COMPLETELY", "DAD", "DRESSING", "Y", "", "1", 1.0, "", "", "", "", "", 201.0, "RETRIEVAL", 168.0, "TREATMENT", "2013-02-18", 198.0]
["CDISCPILOT01", "QS", "01-701-1023", 4013.0, "DAITM13", "DECIDE TO USE THE TOILET AT APPROPRIATE", "DAD", "CONTINENCE", "Y", "", "1", 1.0, "", "", "", "Y", "", 3.0, "BASELINE", 1.0, "TREATMENT", "2012-08-05", 1.0]
["CDISCPILOT01", "QS", "01-701-1023", 4053.0, "DAITM13", "DECIDE TO USE THE TOILET AT APPROPRIATE", "DAD", "CONTINENCE", "Y", "", "1", 1.0, "", "", "", "", "", 5.0, "WEEK 4", 28.0, "TREATMENT", "2012-09-02", 29.0]
["CDISCPILOT01", "QS", "01-701-1023", 4093.0, "DAITM13", "DECIDE TO USE THE TOILET AT APPROPRIATE", "DAD", "CONTINENCE", "Y", "", "1", 1.0, "", "", "", "", "", 201.0, "RETRIEVAL", 168.0, "TREATMENT", "2013-02-18", 198.0]
["CDISCPILOT01", "QS", "01-701-1023", 4014.0, "DAITM14", "USE THE TOILET WITHOUT \"ACCIDENTS\"", "DAD", "CONTINENCE", "Y", "", "1", 1.0, "", "", "", "Y", "", 3.0, "BASELINE", 1.0, "TREATMENT", "2012-08-05", 1.0]
["CDISCPILOT01", "QS", "01-701-1023", 4054.0, "DAITM14", "USE THE TOILET WITHOUT \"ACCIDENTS\"", "DAD", "CONTINENCE", "Y", "", "1", 1.0, "", "", "", "", "", 5.0, "WEEK 4", 28.0, "TREATMENT", "2012-09-02", 29.0]
["CDISCPILOT01", "QS", "01-701-1023", 4094.0, "DAITM14", "USE THE TOILET WITHOUT \"ACCIDENTS\"", "DAD", "CONTINENCE", "Y", "", "1", 1.0, "", "", "", "", "", 201.0, "RETRIEVAL", 168.0, "TREATMENT", "2013-02-18", 198.0]
["CDISCPILOT01", "QS", "01-701-1023", 4015.0, "DAITM15", "DECIDE THAT HE/SHE NEEDS TO EAT", "DAD", "EATING", "Y", "", "1", 1.0, "", "", "", "Y", "", 3.0, "BASELINE", 1.0, "TREATMENT", "2012-08-05", 1.0]
["CDISCPILOT01", "QS", "01-701-1023", 4055.0, "DAITM15", "DECIDE THAT HE/SHE NEEDS TO EAT", "DAD", "EATING", "Y", "", "1", 1.0, "", "", "", "", "", 5.0, "WEEK 4", 28.0, "TREATMENT", "2012-09-02", 29.0]
["CDISCPILOT01", "QS", "01-701-1023", 4095.0, "DAITM15", "DECIDE THAT HE/SHE NEEDS TO EAT", "DAD", "EATING", "Y", "", "1", 1.0, "", "", "", "", "", 201.0, "RETRIEVAL", 168.0, "TREATMENT", "2013-02-18", 198.0]
["CDISCPILOT01", "QS", "01-701-1023", 4016.0, "DAITM16", "CHOOSE APPROPRIATE UTENSILS", "DAD", "EATING", "Y", "", "1", 1.0, "", "", "", "Y", "", 3.0, "BASELINE", 1.0, "TREATMENT", "2012-08-05", 1.0]
["CDISCPILOT01", "QS", "01-701-1023", 4056.0, "DAITM16", "CHOOSE APPROPRIATE UTENSILS", "DAD", "EATING", "Y", "", "1", 1.0, "", "", "", "", "", 5.0, "WEEK 4", 28.0, "TREATMENT", "2012-09-02", 29.0]
["CDISCPILOT01", "QS", "01-701-1023", 4096.0, "DAITM16", "CHOOSE APPROPRIATE UTENSILS", "DAD", "EATING", "N", "", "0", 0.0, "", "", "", "", "", 201.0, "RETRIEVAL", 168.0, "TREATMENT", "2013-02-18", 198.0]
["CDISCPILOT01", "QS", "01-701-1023", 4017.0, "DAITM17", "EAT HIS/HER MEALS AT A NORMAL PACE", "DAD", "EATING", "Y", "", "1", 1.0, "", "", "", "Y", "", 3.0, "BASELINE", 1.0, "TREATMENT", "2012-08-05", 1.0]
["CDISCPILOT01", "QS", "01-701-1023", 4057.0, "DAITM17", "EAT HIS/HER MEALS AT A NORMAL PACE", "DAD", "EATING", "Y", "", "1", 1.0, "", "", "", "", "", 5.0, "WEEK 4", 28.0, "TREATMENT", "2012-09-02", 29.0]
["CDISCPILOT01", "QS", "01-701-1023", 4097.0, "DAITM17", "EAT HIS/HER MEALS AT A NORMAL PACE", "DAD", "EATING", "Y", "", "1", 1.0, "", "", "", "", "", 201.0, "RETRIEVAL", 168.0, "TREATMENT", "2013-02-18", 198.0]
["CDISCPILOT01", "QS", "01-701-1023", 4018.0, "DAITM18", "UNDERTAKE TO PREPARE A LIGHT MEAL", "DAD", "MEAL PREPARATION", "Y", "", "1", 1.0, "", "", "", "Y", "", 3.0, "BASELINE", 1.0, "TREATMENT", "2012-08-05", 1.0]
["CDISCPILOT01", "QS", "01-701-1023", 4058.0, "DAITM18", "UNDERTAKE TO PREPARE A LIGHT MEAL", "DAD", "MEAL PREPARATION", "Y", "", "1", 1.0, "", "", "", "", "", 5.0, "WEEK 4", 28.0, "TREATMENT", "2012-09-02", 29.0]
["CDISCPILOT01", "QS", "01-701-1023", 4098.0, "DAITM18", "UNDERTAKE TO PREPARE A LIGHT MEAL", "DAD", "MEAL PREPARATION", "Y", "", "1", 1.0, "", "", "", "", "", 201.0, "RETRIEVAL", 168.0, "TREATMENT", "2013-02-18", 198.0]
["CDISCPILOT01", "QS", "01-701-1023", 4019.0, "DAITM19", "ADEQUATELY PLAN A LIGHT MEAL OR SNACK", "DAD", "MEAL PREPARATION", "Y", "", "1", 1.0, "", "", "", "Y", "", 3.0, "BASELINE", 1.0, "TREATMENT", "2012-08-05", 1.0]
["CDISCPILOT01", "QS", "01-701-1023", 4059.0, "DAITM19", "ADEQUATELY PLAN A LIGHT MEAL OR SNACK", "DAD", "MEAL PREPARATION", "Y", "", "1", 1.0, "", "", "", "", "", 5.0, "WEEK 4", 28.0, "TREATMENT", "2012-09-02", 29.0]
["CDISCPILOT01", "QS", "01-701-1023", 4099.0, "DAITM19", "ADEQUATELY PLAN A LIGHT MEAL OR SNACK", "DAD", "MEAL PREPARATION", "Y", "", "1", 1.0, "", "", "", "", "", 201.0, "RETRIEVAL", 168.0, "TREATMENT", "2013-02-18", 198.0]
["CDISCPILOT01", "QS", "01-701-1023", 4020.0, "DAITM20", "PREPARE OR COOK A LIGHT MEAL OR A SNACK", "DAD", "MEAL PREPARATION", "Y", "", "1", 1.0, "", "", "", "Y", "", 3.0, "BASELINE", 1.0, "TREATMENT", "2012-08-05", 1.0]
["CDISCPILOT01", "QS", "01-701-1023", 4060.0, "DAITM20", "PREPARE OR COOK A LIGHT MEAL OR A SNACK", "DAD", "MEAL PREPARATION", "Y", "", "1", 1.0, "", "", "", "", "", 5.0, "WEEK 4", 28.0, "TREATMENT", "2012-09-02", 29.0]
["CDISCPILOT01", "QS", "01-701-1023", 4100.0, "DAITM20", "PREPARE OR COOK A LIGHT MEAL OR A SNACK", "DAD", "MEAL PREPARATION", "Y", "", "1", 1.0, "", "", "", "", "", 201.0, "RETRIEVAL", 168.0, "TREATMENT", "2013-02-18", 198.0]
["CDISCPILOT01", "QS", "01-701-1023", 4021.0, "DAITM21", "ATTEMPT TO TELEPHONE SOMEONE", "DAD", "TELEPHONING", "Y", "", "1", 1.0, "", "", "", "Y", "", 3.0, "BASELINE", 1.0, "TREATMENT", "2012-08-05", 1.0]
["CDISCPILOT01", "QS", "01-701-1023", 4061.0, "DAITM21", "ATTEMPT TO TELEPHONE SOMEONE", "DAD", "TELEPHONING", "Y", "", "1", 1.0, "", "", "", "", "", 5.0, "WEEK 4", 28.0, "TREATMENT", "2012-09-02", 29.0]
["CDISCPILOT01", "QS", "01-701-1023", 4101.0, "DAITM21", "ATTEMPT TO TELEPHONE SOMEONE", "DAD", "TELEPHONING", "Y", "", "1", 1.0, "", "", "", "", "", 201.0, "RETRIEVAL", 168.0, "TREATMENT", "2013-02-18", 198.0]
["CDISCPILOT01", "QS", "01-701-1023", 4022.0, "DAITM22", "FIND AND DIAL A TELEPHONE NUMBER CORRECT", "DAD", "TELEPHONING", "Y", "", "1", 1.0, "", "", "", "Y", "", 3.0, "BASELINE", 1.0, "TREATMENT", "2012-08-05", 1.0]
["CDISCPILOT01", "QS", "01-701-1023", 4062.0, "DAITM22", "FIND AND DIAL A TELEPHONE NUMBER CORRECT", "DAD", "TELEPHONING", "Y", "", "1", 1.0, "", "", "", "", "", 5.0, "WEEK 4", 28.0, "TREATMENT", "2012-09-02", 29.0]
["CDISCPILOT01", "QS", "01-701-1023", 4102.0, "DAITM22", "FIND AND DIAL A TELEPHONE NUMBER CORRECT", "DAD", "TELEPHONING", "Y", "", "1", 1.0, "", "", "", "", "", 201.0, "RETRIEVAL", 168.0, "TREATMENT", "2013-02-18", 198.0]
["CDISCPILOT01", "QS", "01-701-1023", 4023.0, "DAITM23", "CARRY OUT A TELEPHONE CONVERSATION", "DAD", "TELEPHONING", "Y", "", "1", 1.0, "", "", "", "Y", "", 3.0, "BASELINE", 1.0, "TREATMENT", "2012-08-05", 1.0]
["CDISCPILOT01", "QS", "01-701-1023", 4063.0, "DAITM23", "CARRY OUT A TELEPHONE CONVERSATION", "DAD", "TELEPHONING", "Y", "", "1", 1.0, "", "", "", "", "", 5.0, "WEEK 4", 28.0, "TREATMENT", "2012-09-02", 29.0]
["CDISCPILOT01", "QS", "01-701-1023", 4103.0, "DAITM23", "CARRY OUT A TELEPHONE CONVERSATION", "DAD", "TELEPHONING", "Y", "", "1", 1.0, "", "", "", "", "", 201.0, "RETRIEVAL", 168.0, "TREATMENT", "2013-02-18", 198.0]
["CDISCPILOT01", "QS", "01-701-1023", 4024.0, "DAITM24", "WRITE AND CONVEY A TELEPHONE MESSAGE", "DAD", "TELEPHONING", "Y", "", "1", 1.0, "", "", "", "Y", "", 3.0, "BASELINE", 1.0, "TREATMENT", "2012-08-05", 1.0]
["CDISCPILOT01", "QS", "01-701-1023", 4064.0, "DAITM24", "WRITE AND CONVEY A TELEPHONE MESSAGE", "DAD", "TELEPHONING", "Y", "", "1", 1.0, "", "", "", "", "", 5.0, "WEEK 4", 28.0, "TREATMENT", "2012-09-02", 29.0]
["CDISCPILOT01", "QS", "01-701-1023", 4104.0, "DAITM24", "WRITE AND CONVEY A TELEPHONE MESSAGE", "DAD", "TELEPHONING", "N", "", "0", 0.0, "", "", "", "", "", 201.0, "RETRIEVAL", 168.0, "TREATMENT", "2013-02-18", 198.0]
["CDISCPILOT01", "QS", "01-701-1023", 4025.0, "DAITM25", "UNDERTAKE TO GO OUT", "DAD", "GOING ON AN OUTING", "Y", "", "1", 1.0, "", "", "", "Y", "", 3.0, "BASELINE", 1.0, "TREATMENT", "2012-08-05", 1.0]
["CDISCPILOT01", "QS", "01-701-1023", 4065.0, "DAITM25", "UNDERTAKE TO GO OUT", "DAD", "GOING ON AN OUTING", "Y", "", "1", 1.0, "", "", "", "", "", 5.0, "WEEK 4", 28.0, "TREATMENT", "2012-09-02", 29.0]
["CDISCPILOT01", "QS", "01-701-1023", 4105.0, "DAITM25", "UNDERTAKE TO GO OUT", "DAD", "GOING ON AN OUTING", "Y", "", "1", 1.0, "", "", "", "", "", 201.0, "RETRIEVAL", 168.0, "TREATMENT", "2013-02-18", 198.0]
["CDISCPILOT01", "QS", "01-701-1023", 4026.0, "DAITM26", "ADEQUATELY ORGANIZE AN OUTING", "DAD", "GOING ON AN OUTING", "Y", "", "1", 1.0, "", "", "", "Y", "", 3.0, "BASELINE", 1.0, "TREATMENT", "2012-08-05", 1.0]
["CDISCPILOT01", "QS", "01-701-1023", 4066.0, "DAITM26", "ADEQUATELY ORGANIZE AN OUTING", "DAD", "GOING ON AN OUTING", "Y", "", "1", 1.0, "", "", "", "", "", 5.0, "WEEK 4", 28.0, "TREATMENT", "2012-09-02", 29.0]
["CDISCPILOT01", "QS", "01-701-1023", 4106.0, "DAITM26", "ADEQUATELY ORGANIZE AN OUTING", "DAD", "GOING ON AN OUTING", "Y", "", "1", 1.0, "", "", "", "", "", 201.0, "RETRIEVAL", 168.0, "TREATMENT", "2013-02-18", 198.0]
["CDISCPILOT01", "QS", "01-701-1023", 4027.0, "DAITM27", "GO OUT AND REACH A FAMILIAR DESTINATION", "DAD", "GOING ON AN OUTING", "Y", "", "1", 1.0, "", "", "", "Y", "", 3.0, "BASELINE", 1.0, "TREATMENT", "2012-08-05", 1.0]
["CDISCPILOT01", "QS", "01-701-1023", 4067.0, "DAITM27", "GO OUT AND REACH A FAMILIAR DESTINATION", "DAD", "GOING ON AN OUTING", "Y", "", "1", 1.0, "", "", "", "", "", 5.0, "WEEK 4", 28.0, "TREATMENT", "2012-09-02", 29.0]
["CDISCPILOT01", "QS", "01-701-1023", 4107.0, "DAITM27", "GO OUT AND REACH A FAMILIAR DESTINATION", "DAD", "GOING ON AN OUTING", "Y", "", "1", 1.0, "", "", "", "", "", 201.0, "RETRIEVAL", 168.0, "TREATMENT", "2013-02-18", 198.0]
["CDISCPILOT01", "QS", "01-701-1023", 4028.0, "DAITM28", "SAFELY TAKE CAR, BUS, TAXI", "DAD", "GOING ON AN OUTING", "Y", "", "1", 1.0, "", "", "", "Y", "", 3.0, "BASELINE", 1.0, "TREATMENT", "2012-08-05", 1.0]
["CDISCPILOT01", "QS", "01-701-1023", 4068.0, "DAITM28", "SAFELY TAKE CAR, BUS, TAXI", "DAD", "GOING ON AN OUTING", "Y", "", "1", 1.0, "", "", "", "", "", 5.0, "WEEK 4", 28.0, "TREATMENT", "2012-09-02", 29.0]
["CDISCPILOT01", "QS", "01-701-1023", 4108.0, "DAITM28", "SAFELY TAKE CAR, BUS, TAXI", "DAD", "GOING ON AN OUTING", "Y", "", "1", 1.0, "", "", "", "", "", 201.0, "RETRIEVAL", 168.0, "TREATMENT", "2013-02-18", 198.0]
["CDISCPILOT01", "QS", "01-701-1023", 4029.0, "DAITM29", "RETURN FROM THE STORE", "DAD", "GOING ON AN OUTING", "Y", "", "1", 1.0, "", "", "", "Y", "", 3.0, "BASELINE", 1.0, "TREATMENT", "2012-08-05", 1.0]
["CDISCPILOT01", "QS", "01-701-1023", 4069.0, "DAITM29", "RETURN FROM THE STORE", "DAD", "GOING ON AN OUTING", "Y", "", "1", 1.0, "", "", "", "", "", 5.0, "WEEK 4", 28.0, "TREATMENT", "2012-09-02", 29.0]
["CDISCPILOT01", "QS", "01-701-1023", 4109.0, "DAITM29", "RETURN FROM THE STORE", "DAD", "GOING ON AN OUTING", "N", "", "0", 0.0, "", "", "", "", "", 201.0, "RETRIEVAL", 168.0, "TREATMENT", "2013-02-18", 198.0]
["CDISCPILOT01", "QS", "01-701-1023", 4030.0, "DAITM30", "INTEREST IN HIS/HER PERSONAL AFFAIRS", "DAD", "FINANCE AND CORRESPONDE", "Y", "", "1", 1.0, "", "", "", "Y", "", 3.0, "BASELINE", 1.0, "TREATMENT", "2012-08-05", 1.0]
["CDISCPILOT01", "QS", "01-701-1023", 4070.0, "DAITM30", "INTEREST IN HIS/HER PERSONAL AFFAIRS", "DAD", "FINANCE AND CORRESPONDE", "Y", "", "1", 1.0, "", "", "", "", "", 5.0, "WEEK 4", 28.0, "TREATMENT", "2012-09-02", 29.0]
["CDISCPILOT01", "QS", "01-701-1023", 4110.0, "DAITM30", "INTEREST IN HIS/HER PERSONAL AFFAIRS", "DAD", "FINANCE AND CORRESPONDE", "Y", "", "1", 1.0, "", "", "", "", "", 201.0, "RETRIEVAL", 168.0, "TREATMENT", "2013-02-18", 198.0]
["CDISCPILOT01", "QS", "01-701-1023", 4031.0, "DAITM31", "PAY HIS/HER BILLS", "DAD", "FINANCE AND CORRESPONDE", "Y", "", "1", 1.0, "", "", "", "Y", "", 3.0, "BASELINE", 1.0, "TREATMENT", "2012-08-05", 1.0]
["CDISCPILOT01", "QS", "01-701-1023", 4071.0, "DAITM31", "PAY HIS/HER BILLS", "DAD", "FINANCE AND CORRESPONDE", "Y", "", "1", 1.0, "", "", "", "", "", 5.0, "WEEK 4", 28.0, "TREATMENT", "2012-09-02", 29.0]
["CDISCPILOT01", "QS", "01-701-1023", 4111.0, "DAITM31", "PAY HIS/HER BILLS", "DAD", "FINANCE AND CORRESPONDE", "NA", "", "96", 96.0, "", "", "", "", "", 201.0, "RETRIEVAL", 168.0, "TREATMENT", "2013-02-18", 198.0]
["CDISCPILOT01", "QS", "01-701-1023", 4032.0, "DAITM32", "ORGANIZE HIS/HER CORRESPONDENCE", "DAD", "FINANCE AND CORRESPONDE", "Y", "", "1", 1.0, "", "", "", "Y", "", 3.0, "BASELINE", 1.0, "TREATMENT", "2012-08-05", 1.0]
["CDISCPILOT01", "QS", "01-701-1023", 4072.0, "DAITM32", "ORGANIZE HIS/HER CORRESPONDENCE", "DAD", "FINANCE AND CORRESPONDE", "Y", "", "1", 1.0, "", "", "", "", "", 5.0, "WEEK 4", 28.0, "TREATMENT", "2012-09-02", 29.0]
["CDISCPILOT01", "QS", "01-701-1023", 4112.0, "DAITM32", "ORGANIZE HIS/HER CORRESPONDENCE", "DAD", "FINANCE AND CORRESPONDE", "Y", "", "1", 1.0, "", "", "", "", "", 201.0, "RETRIEVAL", 168.0, "TREATMENT", "2013-02-18", 198.0]
["CDISCPILOT01", "QS", "01-701-1023", 4033.0, "DAITM33", "HANDLE ADEQUATELY HIS/HER MONEY", "DAD", "FINANCE AND CORRESPONDE", "Y", "", "1", 1.0, "", "", "", "Y", "", 3.0, "BASELINE", 1.0, "TREATMENT", "2012-08-05", 1.0]
["CDISCPILOT01", "QS", "01-701-1023", 4073.0, "DAITM33", "HANDLE ADEQUATELY HIS/HER MONEY", "DAD", "FINANCE AND CORRESPONDE", "Y", "", "1", 1.0, "", "", "", "", "", 5.0, "WEEK 4", 28.0, "TREATMENT", "2012-09-02", 29.0]
["CDISCPILOT01", "QS", "01-701-1023", 4113.0, "DAITM33", "HANDLE ADEQUATELY HIS/HER MONEY", "DAD", "FINANCE AND CORRESPONDE", "N", "", "0", 0.0, "", "", "", "", "", 201.0, "RETRIEVAL", 168.0, "TREATMENT", "2013-02-18", 198.0]
["CDISCPILOT01", "QS", "01-701-1023", 4034.0, "DAITM34", "DECIDE TO TAKE HIS/HER MEDICATIONS", "DAD", "MEDICATIONS", "Y", "", "1", 1.0, "", "", "", "Y", "", 3.0, "BASELINE", 1.0, "TREATMENT", "2012-08-05", 1.0]
["CDISCPILOT01", "QS", "01-701-1023", 4074.0, "DAITM34", "DECIDE TO TAKE HIS/HER MEDICATIONS", "DAD", "MEDICATIONS", "Y", "", "1", 1.0, "", "", "", "", "", 5.0, "WEEK 4", 28.0, "TREATMENT", "2012-09-02", 29.0]
["CDISCPILOT01", "QS", "01-701-1023", 4114.0, "DAITM34", "DECIDE TO TAKE HIS/HER MEDICATIONS", "DAD", "MEDICATIONS", "N", "", "0", 0.0, "", "", "", "", "", 201.0, "RETRIEVAL", 168.0, "TREATMENT", "2013-02-18", 198.0]
["CDISCPILOT01", "QS", "01-701-1023", 4035.0, "DAITM35", "TAKE HIS/HER MEDICATIONS AS PRESCRIBED", "DAD", "MEDICATIONS", "Y", "", "1", 1.0, "", "", "", "Y", "", 3.0, "BASELINE", 1.0, "TREATMENT", "2012-08-05", 1.0]
["CDISCPILOT01", "QS", "01-701-1023", 4075.0, "DAITM35", "TAKE HIS/HER MEDICATIONS AS PRESCRIBED", "DAD", "MEDICATIONS", "Y", "", "1", 1.0, "", "", "", "", "", 5.0, "WEEK 4", 28.0, "TREATMENT", "2012-09-02", 29.0]
["CDISCPILOT01", "QS", "01-701-1023", 4115.0, "DAITM35", "TAKE HIS/HER MEDICATIONS AS PRESCRIBED", "DAD", "MEDICATIONS", "N", "", "0", 0.0, "", "", "", "", "", 201.0, "RETRIEVAL", 168.0, "TREATMENT", "2013-02-18", 198.0]
["CDISCPILOT01", "QS", "01-701-1023", 4036.0, "DAITM36", "SHOW AN INTEREST IN LEISURE ACTIVITY", "DAD", "LEISURE AND HOUSEWORK", "Y", "", "1", 1.0, "", "", "", "Y", "", 3.0, "BASELINE", 1.0, "TREATMENT", "2012-08-05", 1.0]
["CDISCPILOT01", "QS", "01-701-1023", 4076.0, "DAITM36", "SHOW AN INTEREST IN LEISURE ACTIVITY", "DAD", "LEISURE AND HOUSEWORK", "Y", "", "1", 1.0, "", "", "", "", "", 5.0, "WEEK 4", 28.0, "TREATMENT", "2012-09-02", 29.0]
["CDISCPILOT01", "QS", "01-701-1023", 4116.0, "DAITM36", "SHOW AN INTEREST IN LEISURE ACTIVITY", "DAD", "LEISURE AND HOUSEWORK", "N", "", "0", 0.0, "", "", "", "", "", 201.0, "RETRIEVAL", 168.0, "TREATMENT", "2013-02-18", 198.0]
["CDISCPILOT01", "QS", "01-701-1023", 4037.0, "DAITM37", "TAKE AN INTEREST IN HOUSEHOLD CHORES", "DAD", "LEISURE AND HOUSEWORK", "Y", "", "1", 1.0, "", "", "", "Y", "", 3.0, "BASELINE", 1.0, "TREATMENT", "2012-08-05", 1.0]
["CDISCPILOT01", "QS", "01-701-1023", 4077.0, "DAITM37", "TAKE AN INTEREST IN HOUSEHOLD CHORES", "DAD", "LEISURE AND HOUSEWORK", "Y", "", "1", 1.0, "", "", "", "", "", 5.0, "WEEK 4", 28.0, "TREATMENT", "2012-09-02", 29.0]
["CDISCPILOT01", "QS", "01-701-1023", 4117.0, "DAITM37", "TAKE AN INTEREST IN HOUSEHOLD CHORES", "DAD", "LEISURE AND HOUSEWORK", "N", "", "0", 0.0, "", "", "", "", "", 201.0, "RETRIEVAL", 168.0, "TREATMENT", "2013-02-18", 198.0]
["CDISCPILOT01", "QS", "01-701-1023", 4038.0, "DAITM38", "PLAN AND ORGANIZE HOUSEHOLD CHORES", "DAD", "LEISURE AND HOUSEWORK", "Y", "", "1", 1.0, "", "", "", "Y", "", 3.0, "BASELINE", 1.0, "TREATMENT", "2012-08-05", 1.0]
["CDISCPILOT01", "QS", "01-701-1023", 4078.0, "DAITM38", "PLAN AND ORGANIZE HOUSEHOLD CHORES", "DAD", "LEISURE AND HOUSEWORK", "Y", "", "1", 1.0, "", "", "", "", "", 5.0, "WEEK 4", 28.0, "TREATMENT", "2012-09-02", 29.0]
["CDISCPILOT01", "QS", "01-701-1023", 4118.0, "DAITM38", "PLAN AND ORGANIZE HOUSEHOLD CHORES", "DAD", "LEISURE AND HOUSEWORK", "N", "", "0", 0.0, "", "", "", "", "", 201.0, "RETRIEVAL", 168.0, "TREATMENT", "2013-02-18", 198.0]
["CDISCPILOT01", "QS", "01-701-1023", 4039.0, "DAITM39", "COMPLETE HOUSEHOLD CHORES", "DAD", "LEISURE AND HOUSEWORK", "Y", "", "1", 1.0, "", "", "", "Y", "", 3.0, "BASELINE", 1.0, "TREATMENT", "2012-08-05", 1.0]
["CDISCPILOT01", "QS", "01-701-1023", 4079.0, "DAITM39", "COMPLETE HOUSEHOLD CHORES", "DAD", "LEISURE AND HOUSEWORK", "Y", "", "1", 1.0, "", "", "", "", "", 5.0, "WEEK 4", 28.0, "TREATMENT", "2012-09-02", 29.0]
["CDISCPILOT01", "QS", "01-701-1023", 4119.0, "DAITM39", "COMPLETE HOUSEHOLD CHORES", "DAD", "LEISURE AND HOUSEWORK", "N", "", "0", 0.0, "", "", "", "", "", 201.0, "RETRIEVAL", 168.0, "TREATMENT", "2013-02-18", 198.0]
["CDISCPILOT01", "QS", "01-701-1023", 4040.0, "DAITM40", "STAY SAFELY AT HOME BY HIMSELF/HERSELF", "DAD", "LEISURE AND HOUSEWORK", "Y", "", "1", 1.0, "", "", "", "Y", "", 3.0, "BASELINE", 1.0, "TREATMENT", "2012-08-05", 1.0]
["CDISCPILOT01", "QS", "01-701-1023", 4080.0, "DAITM40", "STAY SAFELY AT HOME BY HIMSELF/HERSELF", "DAD", "LEISURE AND HOUSEWORK", "Y", "", "1", 1.0, "", "", "", "", "", 5.0, "WEEK 4", 28.0, "TREATMENT", "2012-09-02", 29.0]
["CDISCPILOT01", "QS", "01-701-1023", 4120.0, "DAITM40", "STAY SAFELY AT HOME BY HIMSELF/HERSELF", "DAD", "LEISURE AND HOUSEWORK", "N", "", "0", 0.0, "", "", "", "", "", 201.0, "RETRIEVAL", 168.0, "TREATMENT", "2013-02-18", 198.0]
["CDISCPILOT01", "QS", "01-701-1028", 4001.0, "DAITM01", "UNDERTAKE TO WASH HIMSELF/HERSELF", "DAD", "HYGIENE", "Y", "", "1", 1.0, "", "", "", "Y", "", 3.0, "BASELINE", 1.0, "TREATMENT", "2013-07-19", 1.0]
["CDISCPILOT01", "QS", "01-701-1028", 4041.0, "DAITM01", "UNDERTAKE TO WASH HIMSELF/HERSELF", "DAD", "HYGIENE", "Y", "", "1", 1.0, "", "", "", "", "", 8.0, "WEEK 8", 56.0, "TREATMENT", "2013-09-10", 54.0]
["CDISCPILOT01", "QS", "01-701-1028", 4081.0, "DAITM01", "UNDERTAKE TO WASH HIMSELF/HERSELF", "DAD", "HYGIENE", "Y", "", "1", 1.0, "", "", "", "", "", 10.0, "WEEK 16", 112.0, "TREATMENT", "2013-11-06", 111.0]
["CDISCPILOT01", "QS", "01-701-1028", 4121.0, "DAITM01", "UNDERTAKE TO WASH HIMSELF/HERSELF", "DAD", "HYGIENE", "Y", "", "1", 1.0, "", "", "", "", "", 12.0, "WEEK 24", 168.0, "TREATMENT", "2014-01-06", 172.0]
["CDISCPILOT01", "QS", "01-701-1028", 4002.0, "DAITM02", "UNDERTAKE TO BRUSH HIS/HER TEETH", "DAD", "HYGIENE", "Y", "", "1", 1.0, "", "", "", "Y", "", 3.0, "BASELINE", 1.0, "TREATMENT", "2013-07-19", 1.0]
["CDISCPILOT01", "QS", "01-701-1028", 4042.0, "DAITM02", "UNDERTAKE TO BRUSH HIS/HER TEETH", "DAD", "HYGIENE", "Y", "", "1", 1.0, "", "", "", "", "", 8.0, "WEEK 8", 56.0, "TREATMENT", "2013-09-10", 54.0]
["CDISCPILOT01", "QS", "01-701-1028", 4082.0, "DAITM02", "UNDERTAKE TO BRUSH HIS/HER TEETH", "DAD", "HYGIENE", "Y", "", "1", 1.0, "", "", "", "", "", 10.0, "WEEK 16", 112.0, "TREATMENT", "2013-11-06", 111.0]
["CDISCPILOT01", "QS", "01-701-1028", 4122.0, "DAITM02", "UNDERTAKE TO BRUSH HIS/HER TEETH", "DAD", "HYGIENE", "Y", "", "1", 1.0, "", "", "", "", "", 12.0, "WEEK 24", 168.0, "TREATMENT", "2014-01-06", 172.0]
["CDISCPILOT01", "QS", "01-701-1028", 4003.0, "DAITM03", "DECIDE TO CARE FOR HIS/HER HAIR", "DAD", "HYGIENE", "Y", "", "1", 1.0, "", "", "", "Y", "", 3.0, "BASELINE", 1.0, "TREATMENT", "2013-07-19", 1.0]
["CDISCPILOT01", "QS", "01-701-1028", 4043.0, "DAITM03", "DECIDE TO CARE FOR HIS/HER HAIR", "DAD", "HYGIENE", "Y", "", "1", 1.0, "", "", "", "", "", 8.0, "WEEK 8", 56.0, "TREATMENT", "2013-09-10", 54.0]
["CDISCPILOT01", "QS", "01-701-1028", 4083.0, "DAITM03", "DECIDE TO CARE FOR HIS/HER HAIR", "DAD", "HYGIENE", "Y", "", "1", 1.0, "", "", "", "", "", 10.0, "WEEK 16", 112.0, "TREATMENT", "2013-11-06", 111.0]
["CDISCPILOT01", "QS", "01-701-1028", 4123.0, "DAITM03", "DECIDE TO CARE FOR HIS/HER HAIR", "DAD", "HYGIENE", "Y", "", "1", 1.0, "", "", "", "", "", 12.0, "WEEK 24", 168.0, "TREATMENT", "2014-01-06", 172.0]
["CDISCPILOT01", "QS", "01-701-1028", 4004.0, "DAITM04", "PREPARE FOR WASHING, TAKING A BATH", "DAD", "HYGIENE", "Y", "", "1", 1.0, "", "", "", "Y", "", 3.0, "BASELINE", 1.0, "TREATMENT", "2013-07-19", 1.0]
["CDISCPILOT01", "QS", "01-701-1028", 4044.0, "DAITM04", "PREPARE FOR WASHING, TAKING A BATH", "DAD", "HYGIENE", "Y", "", "1", 1.0, "", "", "", "", "", 8.0, "WEEK 8", 56.0, "TREATMENT", "2013-09-10", 54.0]
["CDISCPILOT01", "QS", "01-701-1028", 4084.0, "DAITM04", "PREPARE FOR WASHING, TAKING A BATH", "DAD", "HYGIENE", "Y", "", "1", 1.0, "", "", "", "", "", 10.0, "WEEK 16", 112.0, "TREATMENT", "2013-11-06", 111.0]
["CDISCPILOT01", "QS", "01-701-1028", 4124.0, "DAITM04", "PREPARE FOR WASHING, TAKING A BATH", "DAD", "HYGIENE", "Y", "", "1", 1.0, "", "", "", "", "", 12.0, "WEEK 24", 168.0, "TREATMENT", "2014-01-06", 172.0]
["CDISCPILOT01", "QS", "01-701-1028", 4005.0, "DAITM05", "WASH AND DRY COMPLETELY SAFELY", "DAD", "HYGIENE", "Y", "", "1", 1.0, "", "", "", "Y", "", 3.0, "BASELINE", 1.0, "TREATMENT", "2013-07-19", 1.0]
["CDISCPILOT01", "QS", "01-701-1028", 4045.0, "DAITM05", "WASH AND DRY COMPLETELY SAFELY", "DAD", "HYGIENE", "Y", "", "1", 1.0, "", "", "", "", "", 8.0, "WEEK 8", 56.0, "TREATMENT", "2013-09-10", 54.0]
["CDISCPILOT01", "QS", "01-701-1028", 4085.0, "DAITM05", "WASH AND DRY COMPLETELY SAFELY", "DAD", "HYGIENE", "Y", "", "1", 1.0, "", "", "", "", "", 10.0, "WEEK 16", 112.0, "TREATMENT", "2013-11-06", 111.0]
["CDISCPILOT01", "QS", "01-701-1028", 4125.0, "DAITM05", "WASH AND DRY COMPLETELY SAFELY", "DAD", "HYGIENE", "Y", "", "1", 1.0, "", "", "", "", "", 12.0, "WEEK 24", 168.0, "TREATMENT", "2014-01-06", 172.0]
["CDISCPILOT01", "QS", "01-701-1028", 4006.0, "DAITM06", "BRUSH HIS/HER TEETH", "DAD", "HYGIENE", "Y", "", "1", 1.0, "", "", "", "Y", "", 3.0, "BASELINE", 1.0, "TREATMENT", "2013-07-19", 1.0]
["CDISCPILOT01", "QS", "01-701-1028", 4046.0, "DAITM06", "BRUSH HIS/HER TEETH", "DAD", "HYGIENE", "Y", "", "1", 1.0, "", "", "", "", "", 8.0, "WEEK 8", 56.0, "TREATMENT", "2013-09-10", 54.0]
["CDISCPILOT01", "QS", "01-701-1028", 4086.0, "DAITM06", "BRUSH HIS/HER TEETH", "DAD", "HYGIENE", "N", "", "0", 0.0, "", "", "", "", "", 10.0, "WEEK 16", 112.0, "TREATMENT", "2013-11-06", 111.0]
["CDISCPILOT01", "QS", "01-701-1028", 4126.0, "DAITM06", "BRUSH HIS/HER TEETH", "DAD", "HYGIENE", "Y", "", "1", 1.0, "", "", "", "", "", 12.0, "WEEK 24", 168.0, "TREATMENT", "2014-01-06", 172.0]
["CDISCPILOT01", "QS", "01-701-1028", 4007.0, "DAITM07", "CARE FOR HIS/HER HAIR", "DAD", "HYGIENE", "Y", "", "1", 1.0, "", "", "", "Y", "", 3.0, "BASELINE", 1.0, "TREATMENT", "2013-07-19", 1.0]
["CDISCPILOT01", "QS", "01-701-1028", 4047.0, "DAITM07", "CARE FOR HIS/HER HAIR", "DAD", "HYGIENE", "Y", "", "1", 1.0, "", "", "", "", "", 8.0, "WEEK 8", 56.0, "TREATMENT", "2013-09-10", 54.0]
["CDISCPILOT01", "QS", "01-701-1028", 4087.0, "DAITM07", "CARE FOR HIS/HER HAIR", "DAD", "HYGIENE", "Y", "", "1", 1.0, "", "", "", "", "", 10.0, "WEEK 16", 112.0, "TREATMENT", "2013-11-06", 111.0]
["CDISCPILOT01", "QS", "01-701-1028", 4127.0, "DAITM07", "CARE FOR HIS/HER HAIR", "DAD", "HYGIENE", "Y", "", "1", 1.0, "", "", "", "", "", 12.0, "WEEK 24", 168.0, "TREATMENT", "2014-01-06", 172.0]
["CDISCPILOT01", "QS", "01-701-1028", 4008.0, "DAITM08", "UNDERTAKE TO DRESS HIMSELF/HERSELF", "DAD", "DRESSING", "Y", "", "1", 1.0, "", "", "", "Y", "", 3.0, "BASELINE", 1.0, "TREATMENT", "2013-07-19", 1.0]
["CDISCPILOT01", "QS", "01-701-1028", 4048.0, "DAITM08", "UNDERTAKE TO DRESS HIMSELF/HERSELF", "DAD", "DRESSING", "Y", "", "1", 1.0, "", "", "", "", "", 8.0, "WEEK 8", 56.0, "TREATMENT", "2013-09-10", 54.0]
["CDISCPILOT01", "QS", "01-701-1028", 4088.0, "DAITM08", "UNDERTAKE TO DRESS HIMSELF/HERSELF", "DAD", "DRESSING", "Y", "", "1", 1.0, "", "", "", "", "", 10.0, "WEEK 16", 112.0, "TREATMENT", "2013-11-06", 111.0]
["CDISCPILOT01", "QS", "01-701-1028", 4128.0, "DAITM08", "UNDERTAKE TO DRESS HIMSELF/HERSELF", "DAD", "DRESSING", "Y", "", "1", 1.0, "", "", "", "", "", 12.0, "WEEK 24", 168.0, "TREATMENT", "2014-01-06", 172.0]
["CDISCPILOT01", "QS", "01-701-1028", 4009.0, "DAITM09", "CHOOSE APPROPRIATE CLOTHING", "DAD", "DRESSING", "Y", "", "1", 1.0, "", "", "", "Y", "", 3.0, "BASELINE", 1.0, "TREATMENT", "2013-07-19", 1.0]
["CDISCPILOT01", "QS", "01-701-1028", 4049.0, "DAITM09", "CHOOSE APPROPRIATE CLOTHING", "DAD", "DRESSING", "N", "", "0", 0.0, "", "", "", "", "", 8.0, "WEEK 8", 56.0, "TREATMENT", "2013-09-10", 54.0]
["CDISCPILOT01", "QS", "01-701-1028", 4089.0, "DAITM09", "CHOOSE APPROPRIATE CLOTHING", "DAD", "DRESSING", "Y", "", "1", 1.0, "", "", "", "", "", 10.0, "WEEK 16", 112.0, "TREATMENT", "2013-11-06", 111.0]
["CDISCPILOT01", "QS", "01-701-1028", 4129.0, "DAITM09", "CHOOSE APPROPRIATE CLOTHING", "DAD", "DRESSING", "Y", "", "1", 1.0, "", "", "", "", "", 12.0, "WEEK 24", 168.0, "TREATMENT", "2014-01-06", 172.0]
["CDISCPILOT01", "QS", "01-701-1028", 4010.0, "DAITM10", "DRESS HIMSELF/HERSELF", "DAD", "DRESSING", "Y", "", "1", 1.0, "", "", "", "Y", "", 3.0, "BASELINE", 1.0, "TREATMENT", "2013-07-19", 1.0]
["CDISCPILOT01", "QS", "01-701-1028", 4050.0, "DAITM10", "DRESS HIMSELF/HERSELF", "DAD", "DRESSING", "Y", "", "1", 1.0, "", "", "", "", "", 8.0, "WEEK 8", 56.0, "TREATMENT", "2013-09-10", 54.0]
["CDISCPILOT01", "QS", "01-701-1028", 4090.0, "DAITM10", "DRESS HIMSELF/HERSELF", "DAD", "DRESSING", "Y", "", "1", 1.0, "", "", "", "", "", 10.0, "WEEK 16", 112.0, "TREATMENT", "2013-11-06", 111.0]
["CDISCPILOT01", "QS", "01-701-1028", 4130.0, "DAITM10", "DRESS HIMSELF/HERSELF", "DAD", "DRESSING", "Y", "", "1", 1.0, "", "", "", "", "", 12.0, "WEEK 24", 168.0, "TREATMENT", "2014-01-06", 172.0]
["CDISCPILOT01", "QS", "01-701-1028", 4011.0, "DAITM11", "DRESS HIMSELF/HERSELF COMPLETELY", "DAD", "DRESSING", "Y", "", "1", 1.0, "", "", "", "Y", "", 3.0, "BASELINE", 1.0, "TREATMENT", "2013-07-19", 1.0]
["CDISCPILOT01", "QS", "01-701-1028", 4051.0, "DAITM11", "DRESS HIMSELF/HERSELF COMPLETELY", "DAD", "DRESSING", "Y", "", "1", 1.0, "", "", "", "", "", 8.0, "WEEK 8", 56.0, "TREATMENT", "2013-09-10", 54.0]
["CDISCPILOT01", "QS", "01-701-1028", 4091.0, "DAITM11", "DRESS HIMSELF/HERSELF COMPLETELY", "DAD", "DRESSING", "Y", "", "1", 1.0, "", "", "", "", "", 10.0, "WEEK 16", 112.0, "TREATMENT", "2013-11-06", 111.0]
["CDISCPILOT01", "QS", "01-701-1028", 4131.0, "DAITM11", "DRESS HIMSELF/HERSELF COMPLETELY", "DAD", "DRESSING", "Y", "", "1", 1.0, "", "", "", "", "", 12.0, "WEEK 24", 168.0, "TREATMENT", "2014-01-06", 172.0]
["CDISCPILOT01", "QS", "01-701-1028", 4012.0, "DAITM12", "UNDRESS HIMSELF/HERSELF COMPLETELY", "DAD", "DRESSING", "Y", "", "1", 1.0, "", "", "", "Y", "", 3.0, "BASELINE", 1.0, "TREATMENT", "2013-07-19", 1.0]
["CDISCPILOT01", "QS", "01-701-1028", 4052.0, "DAITM12", "UNDRESS HIMSELF/HERSELF COMPLETELY", "DAD", "DRESSING", "Y", "", "1", 1.0, "", "", "", "", "", 8.0, "WEEK 8", 56.0, "TREATMENT", "2013-09-10", 54.0]
["CDISCPILOT01", "QS", "01-701-1028", 4092.0, "DAITM12", "UNDRESS HIMSELF/HERSELF COMPLETELY", "DAD", "DRESSING", "Y", "", "1", 1.0, "", "", "", "", "", 10.0, "WEEK 16", 112.0, "TREATMENT", "2013-11-06", 111.0]
["CDISCPILOT01", "QS", "01-701-1028", 4132.0, "DAITM12", "UNDRESS HIMSELF/HERSELF COMPLETELY", "DAD", "DRESSING", "Y", "", "1", 1.0, "", "", "", "", "", 12.0, "WEEK 24", 168.0, "TREATMENT", "2014-01-06", 172.0]
["CDISCPILOT01", "QS", "01-701-1028", 4013.0, "DAITM13", "DECIDE TO USE THE TOILET AT APPROPRIATE", "DAD", "CONTINENCE", "Y", "", "1", 1.0, "", "", "", "Y", "", 3.0, "BASELINE", 1.0, "TREATMENT", "2013-07-19", 1.0]
["CDISCPILOT01", "QS", "01-701-1028", 4053.0, "DAITM13", "DECIDE TO USE THE TOILET AT APPROPRIATE", "DAD", "CONTINENCE", "Y", "", "1", 1.0, "", "", "", "", "", 8.0, "WEEK 8", 56.0, "TREATMENT", "2013-09-10", 54.0]
["CDISCPILOT01", "QS", "01-701-1028", 4093.0, "DAITM13", "DECIDE TO USE THE TOILET AT APPROPRIATE", "DAD", "CONTINENCE", "Y", "", "1", 1.0, "", "", "", "", "", 10.0, "WEEK 16", 112.0, "TREATMENT", "2013-11-06", 111.0]
["CDISCPILOT01", "QS", "01-701-1028", 4133.0, "DAITM13", "DECIDE TO USE THE TOILET AT APPROPRIATE", "DAD", "CONTINENCE", "Y", "", "1", 1.0, "", "", "", "", "", 12.0, "WEEK 24", 168.0, "TREATMENT", "2014-01-06", 172.0]
["CDISCPILOT01", "QS", "01-701-1028", 4014.0, "DAITM14", "USE THE TOILET WITHOUT \"ACCIDENTS\"", "DAD", "CONTINENCE", "Y", "", "1", 1.0, "", "", "", "Y", "", 3.0, "BASELINE", 1.0, "TREATMENT", "2013-07-19", 1.0]
["CDISCPILOT01", "QS", "01-701-1028", 4054.0, "DAITM14", "USE THE TOILET WITHOUT \"ACCIDENTS\"", "DAD", "CONTINENCE", "Y", "", "1", 1.0, "", "", "", "", "", 8.0, "WEEK 8", 56.0, "TREATMENT", "2013-09-10", 54.0]
["CDISCPILOT01", "QS", "01-701-1028", 4094.0, "DAITM14", "USE THE TOILET WITHOUT \"ACCIDENTS\"", "DAD", "CONTINENCE", "Y", "", "1", 1.0, "", "", "", "", "", 10.0, "WEEK 16", 112.0, "TREATMENT", "2013-11-06", 111.0]
["CDISCPILOT01", "QS", "01-701-1028", 4134.0, "DAITM14", "USE THE TOILET WITHOUT \"ACCIDENTS\"", "DAD", "CONTINENCE", "Y", "", "1", 1.0, "", "", "", "", "", 12.0, "WEEK 24", 168.0, "TREATMENT", "2014-01-06", 172.0]
["CDISCPILOT01", "QS", "01-701-1028", 4015.0, "DAITM15", "DECIDE THAT HE/SHE NEEDS TO EAT", "DAD", "EATING", "Y", "", "1", 1.0, "", "", "", "Y", "", 3.0, "BASELINE", 1.0, "TREATMENT", "2013-07-19", 1.0]
["CDISCPILOT01", "QS", "01-701-1028", 4055.0, "DAITM15", "DECIDE THAT HE/SHE NEEDS TO EAT", "DAD", "EATING", "Y", "", "1", 1.0, "", "", "", "", "", 8.0, "WEEK 8", 56.0, "TREATMENT", "2013-09-10", 54.0]
["CDISCPILOT01", "QS", "01-701-1028", 4095.0, "DAITM15", "DECIDE THAT HE/SHE NEEDS TO EAT", "DAD", "EATING", "Y", "", "1", 1.0, "", "", "", "", "", 10.0, "WEEK 16", 112.0, "TREATMENT", "2013-11-06", 111.0]
["CDISCPILOT01", "QS", "01-701-1028", 4135.0, "DAITM15", "DECIDE THAT HE/SHE NEEDS TO EAT", "DAD", "EATING", "Y", "", "1", 1.0, "", "", "", "", "", 12.0, "WEEK 24", 168.0, "TREATMENT", "2014-01-06", 172.0]
["CDISCPILOT01", "QS", "01-701-1028", 4016.0, "DAITM16", "CHOOSE APPROPRIATE UTENSILS", "DAD", "EATING", "Y", "", "1", 1.0, "", "", "", "Y", "", 3.0, "BASELINE", 1.0, "TREATMENT", "2013-07-19", 1.0]
["CDISCPILOT01", "QS", "01-701-1028", 4056.0, "DAITM16", "CHOOSE APPROPRIATE UTENSILS", "DAD", "EATING", "Y", "", "1", 1.0, "", "", "", "", "", 8.0, "WEEK 8", 56.0, "TREATMENT", "2013-09-10", 54.0]
["CDISCPILOT01", "QS", "01-701-1028", 4096.0, "DAITM16", "CHOOSE APPROPRIATE UTENSILS", "DAD", "EATING", "Y", "", "1", 1.0, "", "", "", "", "", 10.0, "WEEK 16", 112.0, "TREATMENT", "2013-11-06", 111.0]
["CDISCPILOT01", "QS", "01-701-1028", 4136.0, "DAITM16", "CHOOSE APPROPRIATE UTENSILS", "DAD", "EATING", "Y", "", "1", 1.0, "", "", "", "", "", 12.0, "WEEK 24", 168.0, "TREATMENT", "2014-01-06", 172.0]
["CDISCPILOT01", "QS", "01-701-1028", 4017.0, "DAITM17", "EAT HIS/HER MEALS AT A NORMAL PACE", "DAD", "EATING", "Y", "", "1", 1.0, "", "", "", "Y", "", 3.0, "BASELINE", 1.0, "TREATMENT", "2013-07-19", 1.0]
["CDISCPILOT01", "QS", "01-701-1028", 4057.0, "DAITM17", "EAT HIS/HER MEALS AT A NORMAL PACE", "DAD", "EATING", "Y", "", "1", 1.0, "", "", "", "", "", 8.0, "WEEK 8", 56.0, "TREATMENT", "2013-09-10", 54.0]
["CDISCPILOT01", "QS", "01-701-1028", 4097.0, "DAITM17", "EAT HIS/HER MEALS AT A NORMAL PACE", "DAD", "EATING", "Y", "", "1", 1.0, "", "", "", "", "", 10.0, "WEEK 16", 112.0, "TREATMENT", "2013-11-06", 111.0]
["CDISCPILOT01", "QS", "01-701-1028", 4137.0, "DAITM17", "EAT HIS/HER MEALS AT A NORMAL PACE", "DAD", "EATING", "Y", "", "1", 1.0, "", "", "", "", "", 12.0, "WEEK 24", 168.0, "TREATMENT", "2014-01-06", 172.0]
["CDISCPILOT01", "QS", "01-701-1028", 4018.0, "DAITM18", "UNDERTAKE TO PREPARE A LIGHT MEAL", "DAD", "MEAL PREPARATION", "Y", "", "1", 1.0, "", "", "", "Y", "", 3.0, "BASELINE", 1.0, "TREATMENT", "2013-07-19", 1.0]
["CDISCPILOT01", "QS", "01-701-1028", 4058.0, "DAITM18", "UNDERTAKE TO PREPARE A LIGHT MEAL", "DAD", "MEAL PREPARATION", "Y", "", "1", 1.0, "", "", "", "", "", 8.0, "WEEK 8", 56.0, "TREATMENT", "2013-09-10", 54.0]
["CDISCPILOT01", "QS", "01-701-1028", 4098.0, "DAITM18", "UNDERTAKE TO PREPARE A LIGHT MEAL", "DAD", "MEAL PREPARATION", "Y", "", "1", 1.0, "", "", "", "", "", 10.0, "WEEK 16", 112.0, "TREATMENT", "2013-11-06", 111.0]
["CDISCPILOT01", "QS", "01-701-1028", 4138.0, "DAITM18", "UNDERTAKE TO PREPARE A LIGHT MEAL", "DAD", "MEAL PREPARATION", "Y", "", "1", 1.0, "", "", "", "", "", 12.0, "WEEK 24", 168.0, "TREATMENT", "2014-01-06", 172.0]
["CDISCPILOT01", "QS", "01-701-1028", 4019.0, "DAITM19", "ADEQUATELY PLAN A LIGHT MEAL OR SNACK", "DAD", "MEAL PREPARATION", "Y", "", "1", 1.0, "", "", "", "Y", "", 3.0, "BASELINE", 1.0, "TREATMENT", "2013-07-19", 1.0]
["CDISCPILOT01", "QS", "01-701-1028", 4059.0, "DAITM19", "ADEQUATELY PLAN A LIGHT MEAL OR SNACK", "DAD", "MEAL PREPARATION", "Y", "", "1", 1.0, "", "", "", "", "", 8.0, "WEEK 8", 56.0, "TREATMENT", "2013-09-10", 54.0]
["CDISCPILOT01", "QS", "01-701-1028", 4099.0, "DAITM19", "ADEQUATELY PLAN A LIGHT MEAL OR SNACK", "DAD", "MEAL PREPARATION", "Y", "", "1", 1.0, "", "", "", "", "", 10.0, "WEEK 16", 112.0, "TREATMENT", "2013-11-06", 111.0]
["CDISCPILOT01", "QS", "01-701-1028", 4139.0, "DAITM19", "ADEQUATELY PLAN A LIGHT MEAL OR SNACK", "DAD", "MEAL PREPARATION", "Y", "", "1", 1.0, "", "", "", "", "", 12.0, "WEEK 24", 168.0, "TREATMENT", "2014-01-06", 172.0]
["CDISCPILOT01", "QS", "01-701-1028", 4020.0, "DAITM20", "PREPARE OR COOK A LIGHT MEAL OR A SNACK", "DAD", "MEAL PREPARATION", "Y", "", "1", 1.0, "", "", "", "Y", "", 3.0, "BASELINE", 1.0, "TREATMENT", "2013-07-19", 1.0]
["CDISCPILOT01", "QS", "01-701-1028", 4060.0, "DAITM20", "PREPARE OR COOK A LIGHT MEAL OR A SNACK", "DAD", "MEAL PREPARATION", "Y", "", "1", 1.0, "", "", "", "", "", 8.0, "WEEK 8", 56.0, "TREATMENT", "2013-09-10", 54.0]
["CDISCPILOT01", "QS", "01-701-1028", 4100.0, "DAITM20", "PREPARE OR COOK A LIGHT MEAL OR A SNACK", "DAD", "MEAL PREPARATION", "Y", "", "1", 1.0, "", "", "", "", "", 10.0, "WEEK 16", 112.0, "TREATMENT", "2013-11-06", 111.0]
["CDISCPILOT01", "QS", "01-701-1028", 4140.0, "DAITM20", "PREPARE OR COOK A LIGHT MEAL OR A SNACK", "DAD", "MEAL PREPARATION", "Y", "", "1", 1.0, "", "", "", "", "", 12.0, "WEEK 24", 168.0, "TREATMENT", "2014-01-06", 172.0]
["CDISCPILOT01", "QS", "01-701-1028", 4021.0, "DAITM21", "ATTEMPT TO TELEPHONE SOMEONE", "DAD", "TELEPHONING", "Y", "", "1", 1.0, "", "", "", "Y", "", 3.0, "BASELINE", 1.0, "TREATMENT", "2013-07-19", 1.0]
["CDISCPILOT01", "QS", "01-701-1028", 4061.0, "DAITM21", "ATTEMPT TO TELEPHONE SOMEONE", "DAD", "TELEPHONING", "Y", "", "1", 1.0, "", "", "", "", "", 8.0, "WEEK 8", 56.0, "TREATMENT", "2013-09-10", 54.0]
["CDISCPILOT01", "QS", "01-701-1028", 4101.0, "DAITM21", "ATTEMPT TO TELEPHONE SOMEONE", "DAD", "TELEPHONING", "Y", "", "1", 1.0, "", "", "", "", "", 10.0, "WEEK 16", 112.0, "TREATMENT", "2013-11-06", 111.0]
["CDISCPILOT01", "QS", "01-701-1028", 4141.0, "DAITM21", "ATTEMPT TO TELEPHONE SOMEONE", "DAD", "TELEPHONING", "Y", "", "1", 1.0, "", "", "", "", "", 12.0, "WEEK 24", 168.0, "TREATMENT", "2014-01-06", 172.0]
["CDISCPILOT01", "QS", "01-701-1028", 4022.0, "DAITM22", "FIND AND DIAL A TELEPHONE NUMBER CORRECT", "DAD", "TELEPHONING", "Y", "", "1", 1.0, "", "", "", "Y", "", 3.0, "BASELINE", 1.0, "TREATMENT", "2013-07-19", 1.0]
["CDISCPILOT01", "QS", "01-701-1028", 4062.0, "DAITM22", "FIND AND DIAL A TELEPHONE NUMBER CORRECT", "DAD", "TELEPHONING", "Y", "", "1", 1.0, "", "", "", "", "", 8.0, "WEEK 8", 56.0, "TREATMENT", "2013-09-10", 54.0]
["CDISCPILOT01", "QS", "01-701-1028", 4102.0, "DAITM22", "FIND AND DIAL A TELEPHONE NUMBER CORRECT", "DAD", "TELEPHONING", "Y", "", "1", 1.0, "", "", "", "", "", 10.0, "WEEK 16", 112.0, "TREATMENT", "2013-11-06", 111.0]
["CDISCPILOT01", "QS", "01-701-1028", 4142.0, "DAITM22", "FIND AND DIAL A TELEPHONE NUMBER CORRECT", "DAD", "TELEPHONING", "Y", "", "1", 1.0, "", "", "", "", "", 12.0, "WEEK 24", 168.0, "TREATMENT", "2014-01-06", 172.0]
["CDISCPILOT01", "QS", "01-701-1028", 4023.0, "DAITM23", "CARRY OUT A TELEPHONE CONVERSATION", "DAD", "TELEPHONING", "Y", "", "1", 1.0, "", "", "", "Y", "", 3.0, "BASELINE", 1.0, "TREATMENT", "2013-07-19", 1.0]
["CDISCPILOT01", "QS", "01-701-1028", 4063.0, "DAITM23", "CARRY OUT A TELEPHONE CONVERSATION", "DAD", "TELEPHONING", "Y", "", "1", 1.0, "", "", "", "", "", 8.0, "WEEK 8", 56.0, "TREATMENT", "2013-09-10", 54.0]
["CDISCPILOT01", "QS", "01-701-1028", 4103.0, "DAITM23", "CARRY OUT A TELEPHONE CONVERSATION", "DAD", "TELEPHONING", "Y", "", "1", 1.0, "", "", "", "", "", 10.0, "WEEK 16", 112.0, "TREATMENT", "2013-11-06", 111.0]
["CDISCPILOT01", "QS", "01-701-1028", 4143.0, "DAITM23", "CARRY OUT A TELEPHONE CONVERSATION", "DAD", "TELEPHONING", "Y", "", "1", 1.0, "", "", "", "", "", 12.0, "WEEK 24", 168.0, "TREATMENT", "2014-01-06", 172.0]
["CDISCPILOT01", "QS", "01-701-1028", 4024.0, "DAITM24", "WRITE AND CONVEY A TELEPHONE MESSAGE", "DAD", "TELEPHONING", "Y", "", "1", 1.0, "", "", "", "Y", "", 3.0, "BASELINE", 1.0, "TREATMENT", "2013-07-19", 1.0]
["CDISCPILOT01", "QS", "01-701-1028", 4064.0, "DAITM24", "WRITE AND CONVEY A TELEPHONE MESSAGE", "DAD", "TELEPHONING", "Y", "", "1", 1.0, "", "", "", "", "", 8.0, "WEEK 8", 56.0, "TREATMENT", "2013-09-10", 54.0]
["CDISCPILOT01", "QS", "01-701-1028", 4104.0, "DAITM24", "WRITE AND CONVEY A TELEPHONE MESSAGE", "DAD", "TELEPHONING", "Y", "", "1", 1.0, "", "", "", "", "", 10.0, "WEEK 16", 112.0, "TREATMENT", "2013-11-06", 111.0]
["CDISCPILOT01", "QS", "01-701-1028", 4144.0, "DAITM24", "WRITE AND CONVEY A TELEPHONE MESSAGE", "DAD", "TELEPHONING", "Y", "", "1", 1.0, "", "", "", "", "", 12.0, "WEEK 24", 168.0, "TREATMENT", "2014-01-06", 172.0]
["CDISCPILOT01", "QS", "01-701-1028", 4025.0, "DAITM25", "UNDERTAKE TO GO OUT", "DAD", "GOING ON AN OUTING", "Y", "", "1", 1.0, "", "", "", "Y", "", 3.0, "BASELINE", 1.0, "TREATMENT", "2013-07-19", 1.0]
["CDISCPILOT01", "QS", "01-701-1028", 4065.0, "DAITM25", "UNDERTAKE TO GO OUT", "DAD", "GOING ON AN OUTING", "Y", "", "1", 1.0, "", "", "", "", "", 8.0, "WEEK 8", 56.0, "TREATMENT", "2013-09-10", 54.0]
["CDISCPILOT01", "QS", "01-701-1028", 4105.0, "DAITM25", "UNDERTAKE TO GO OUT", "DAD", "GOING ON AN OUTING", "Y", "", "1", 1.0, "", "", "", "", "", 10.0, "WEEK 16", 112.0, "TREATMENT", "2013-11-06", 111.0]
["CDISCPILOT01", "QS", "01-701-1028", 4145.0, "DAITM25", "UNDERTAKE TO GO OUT", "DAD", "GOING ON AN OUTING", "Y", "", "1", 1.0, "", "", "", "", "", 12.0, "WEEK 24", 168.0, "TREATMENT", "2014-01-06", 172.0]
["CDISCPILOT01", "QS", "01-701-1028", 4026.0, "DAITM26", "ADEQUATELY ORGANIZE AN OUTING", "DAD", "GOING ON AN OUTING", "Y", "", "1", 1.0, "", "", "", "Y", "", 3.0, "BASELINE", 1.0, "TREATMENT", "2013-07-19", 1.0]
["CDISCPILOT01", "QS", "01-701-1028", 4066.0, "DAITM26", "ADEQUATELY ORGANIZE AN OUTING", "DAD", "GOING ON AN OUTING", "Y", "", "1", 1.0, "", "", "", "", "", 8.0, "WEEK 8", 56.0, "TREATMENT", "2013-09-10", 54.0]
["CDISCPILOT01", "QS", "01-701-1028", 4106.0, "DAITM26", "ADEQUATELY ORGANIZE AN OUTING", "DAD", "GOING ON AN OUTING", "Y", "", "1", 1.0, "", "", "", "", "", 10.0, "WEEK 16", 112.0, "TREATMENT", "2013-11-06", 111.0]
["CDISCPILOT01", "QS", "01-701-1028", 4146.0, "DAITM26", "ADEQUATELY ORGANIZE AN OUTING", "DAD", "GOING ON AN OUTING", "Y", "", "1", 1.0, "", "", "", "", "", 12.0, "WEEK 24", 168.0, "TREATMENT", "2014-01-06", 172.0]
["CDISCPILOT01", "QS", "01-701-1028", 4027.0, "DAITM27", "GO OUT AND REACH A FAMILIAR DESTINATION", "DAD", "GOING ON AN OUTING", "Y", "", "1", 1.0, "", "", "", "Y", "", 3.0, "BASELINE", 1.0, "TREATMENT", "2013-07-19", 1.0]
["CDISCPILOT01", "QS", "01-701-1028", 4067.0, "DAITM27", "GO OUT AND REACH A FAMILIAR DESTINATION", "DAD", "GOING ON AN OUTING", "Y", "", "1", 1.0, "", "", "", "", "", 8.0, "WEEK 8", 56.0, "TREATMENT", "2013-09-10", 54.0]
["CDISCPILOT01", "QS", "01-701-1028", 4107.0, "DAITM27", "GO OUT AND REACH A FAMILIAR DESTINATION", "DAD", "GOING ON AN OUTING", "Y", "", "1", 1.0, "", "", "", "", "", 10.0, "WEEK 16", 112.0, "TREATMENT", "2013-11-06", 111.0]
["CDISCPILOT01", "QS", "01-701-1028", 4147.0, "DAITM27", "GO OUT AND REACH A FAMILIAR DESTINATION", "DAD", "GOING ON AN OUTING", "Y", "", "1", 1.0, "", "", "", "", "", 12.0, "WEEK 24", 168.0, "TREATMENT", "2014-01-06", 172.0]
["CDISCPILOT01", "QS", "01-701-1028", 4028.0, "DAITM28", "SAFELY TAKE CAR, BUS, TAXI", "DAD", "GOING ON AN OUTING", "Y", "", "1", 1.0, "", "", "", "Y", "", 3.0, "BASELINE", 1.0, "TREATMENT", "2013-07-19", 1.0]
["CDISCPILOT01", "QS", "01-701-1028", 4068.0, "DAITM28", "SAFELY TAKE CAR, BUS, TAXI", "DAD", "GOING ON AN OUTING", "Y", "", "1", 1.0, "", "", "", "", "", 8.0, "WEEK 8", 56.0, "TREATMENT", "2013-09-10", 54.0]
["CDISCPILOT01", "QS", "01-701-1028", 4108.0, "DAITM28", "SAFELY TAKE CAR, BUS, TAXI", "DAD", "GOING ON AN OUTING", "Y", "", "1", 1.0, "", "", "", "", "", 10.0, "WEEK 16", 112.0, "TREATMENT", "2013-11-06", 111.0]
["CDISCPILOT01", "QS", "01-701-1028", 4148.0, "DAITM28", "SAFELY TAKE CAR, BUS, TAXI", "DAD", "GOING ON AN OUTING", "Y", "", "1", 1.0, "", "", "", "", "", 12.0, "WEEK 24", 168.0, "TREATMENT", "2014-01-06", 172.0]
["CDISCPILOT01", "QS", "01-701-1028", 4029.0, "DAITM29", "RETURN FROM THE STORE", "DAD", "GOING ON AN OUTING", "Y", "", "1", 1.0, "", "", "", "Y", "", 3.0, "BASELINE", 1.0, "TREATMENT", "2013-07-19", 1.0]
["CDISCPILOT01", "QS", "01-701-1028", 4069.0, "DAITM29", "RETURN FROM THE STORE", "DAD", "GOING ON AN OUTING", "Y", "", "1", 1.0, "", "", "", "", "", 8.0, "WEEK 8", 56.0, "TREATMENT", "2013-09-10", 54.0]
["CDISCPILOT01", "QS", "01-701-1028", 4109.0, "DAITM29", "RETURN FROM THE STORE", "DAD", "GOING ON AN OUTING", "Y", "", "1", 1.0, "", "", "", "", "", 10.0, "WEEK 16", 112.0, "TREATMENT", "2013-11-06", 111.0]
["CDISCPILOT01", "QS", "01-701-1028", 4149.0, "DAITM29", "RETURN FROM THE STORE", "DAD", "GOING ON AN OUTING", "Y", "", "1", 1.0, "", "", "", "", "", 12.0, "WEEK 24", 168.0, "TREATMENT", "2014-01-06", 172.0]
["CDISCPILOT01", "QS", "01-701-1028", 4030.0, "DAITM30", "INTEREST IN HIS/HER PERSONAL AFFAIRS", "DAD", "FINANCE AND CORRESPONDE", "Y", "", "1", 1.0, "", "", "", "Y", "", 3.0, "BASELINE", 1.0, "TREATMENT", "2013-07-19", 1.0]
["CDISCPILOT01", "QS", "01-701-1028", 4070.0, "DAITM30", "INTEREST IN HIS/HER PERSONAL AFFAIRS", "DAD", "FINANCE AND CORRESPONDE", "Y", "", "1", 1.0, "", "", "", "", "", 8.0, "WEEK 8", 56.0, "TREATMENT", "2013-09-10", 54.0]
["CDISCPILOT01", "QS", "01-701-1028", 4110.0, "DAITM30", "INTEREST IN HIS/HER PERSONAL AFFAIRS", "DAD", "FINANCE AND CORRESPONDE", "Y", "", "1", 1.0, "", "", "", "", "", 10.0, "WEEK 16", 112.0, "TREATMENT", "2013-11-06", 111.0]
["CDISCPILOT01", "QS", "01-701-1028", 4150.0, "DAITM30", "INTEREST IN HIS/HER PERSONAL AFFAIRS", "DAD", "FINANCE AND CORRESPONDE", "Y", "", "1", 1.0, "", "", "", "", "", 12.0, "WEEK 24", 168.0, "TREATMENT", "2014-01-06", 172.0]
["CDISCPILOT01", "QS", "01-701-1028", 4031.0, "DAITM31", "PAY HIS/HER BILLS", "DAD", "FINANCE AND CORRESPONDE", "Y", "", "1", 1.0, "", "", "", "Y", "", 3.0, "BASELINE", 1.0, "TREATMENT", "2013-07-19", 1.0]
["CDISCPILOT01", "QS", "01-701-1028", 4071.0, "DAITM31", "PAY HIS/HER BILLS", "DAD", "FINANCE AND CORRESPONDE", "Y", "", "1", 1.0, "", "", "", "", "", 8.0, "WEEK 8", 56.0, "TREATMENT", "2013-09-10", 54.0]
["CDISCPILOT01", "QS", "01-701-1028", 4111.0, "DAITM31", "PAY HIS/HER BILLS", "DAD", "FINANCE AND CORRESPONDE", "Y", "", "1", 1.0, "", "", "", "", "", 10.0, "WEEK 16", 112.0, "TREATMENT", "2013-11-06", 111.0]
["CDISCPILOT01", "QS", "01-701-1028", 4151.0, "DAITM31", "PAY HIS/HER BILLS", "DAD", "FINANCE AND CORRESPONDE", "Y", "", "1", 1.0, "", "", "", "", "", 12.0, "WEEK 24", 168.0, "TREATMENT", "2014-01-06", 172.0]
["CDISCPILOT01", "QS", "01-701-1028", 4032.0, "DAITM32", "ORGANIZE HIS/HER CORRESPONDENCE", "DAD", "FINANCE AND CORRESPONDE", "Y", "", "1", 1.0, "", "", "", "Y", "", 3.0, "BASELINE", 1.0, "TREATMENT", "2013-07-19", 1.0]
["CDISCPILOT01", "QS", "01-701-1028", 4072.0, "DAITM32", "ORGANIZE HIS/HER CORRESPONDENCE", "DAD", "FINANCE AND CORRESPONDE", "Y", "", "1", 1.0, "", "", "", "", "", 8.0, "WEEK 8", 56.0, "TREATMENT", "2013-09-10", 54.0]
["CDISCPILOT01", "QS", "01-701-1028", 4112.0, "DAITM32", "ORGANIZE HIS/HER CORRESPONDENCE", "DAD", "FINANCE AND CORRESPONDE", "Y", "", "1", 1.0, "", "", "", "", "", 10.0, "WEEK 16", 112.0, "TREATMENT", "2013-11-06", 111.0]
["CDISCPILOT01", "QS", "01-701-1028", 4152.0, "DAITM32", "ORGANIZE HIS/HER CORRESPONDENCE", "DAD", "FINANCE AND CORRESPONDE", "Y", "", "1", 1.0, "", "", "", "", "", 12.0, "WEEK 24", 168.0, "TREATMENT", "2014-01-06", 172.0]
["CDISCPILOT01", "QS", "01-701-1028", 4033.0, "DAITM33", "HANDLE ADEQUATELY HIS/HER MONEY", "DAD", "FINANCE AND CORRESPONDE", "Y", "", "1", 1.0, "", "", "", "Y", "", 3.0, "BASELINE", 1.0, "TREATMENT", "2013-07-19", 1.0]
["CDISCPILOT01", "QS", "01-701-1028", 4073.0, "DAITM33", "HANDLE ADEQUATELY HIS/HER MONEY", "DAD", "FINANCE AND CORRESPONDE", "Y", "", "1", 1.0, "", "", "", "", "", 8.0, "WEEK 8", 56.0, "TREATMENT", "2013-09-10", 54.0]
["CDISCPILOT01", "QS", "01-701-1028", 4113.0, "DAITM33", "HANDLE ADEQUATELY HIS/HER MONEY", "DAD", "FINANCE AND CORRESPONDE", "Y", "", "1", 1.0, "", "", "", "", "", 10.0, "WEEK 16", 112.0, "TREATMENT", "2013-11-06", 111.0]
["CDISCPILOT01", "QS", "01-701-1028", 4153.0, "DAITM33", "HANDLE ADEQUATELY HIS/HER MONEY", "DAD", "FINANCE AND CORRESPONDE", "Y", "", "1", 1.0, "", "", "", "", "", 12.0, "WEEK 24", 168.0, "TREATMENT", "2014-01-06", 172.0]
["CDISCPILOT01", "QS", "01-701-1028", 4034.0, "DAITM34", "DECIDE TO TAKE HIS/HER MEDICATIONS", "DAD", "MEDICATIONS", "Y", "", "1", 1.0, "", "", "", "Y", "", 3.0, "BASELINE", 1.0, "TREATMENT", "2013-07-19", 1.0]
["CDISCPILOT01", "QS", "01-701-1028", 4074.0, "DAITM34", "DECIDE TO TAKE HIS/HER MEDICATIONS", "DAD", "MEDICATIONS", "Y", "", "1", 1.0, "", "", "", "", "", 8.0, "WEEK 8", 56.0, "TREATMENT", "2013-09-10", 54.0]
["CDISCPILOT01", "QS", "01-701-1028", 4114.0, "DAITM34", "DECIDE TO TAKE HIS/HER MEDICATIONS", "DAD", "MEDICATIONS", "Y", "", "1", 1.0, "", "", "", "", "", 10.0, "WEEK 16", 112.0, "TREATMENT", "2013-11-06", 111.0]
["CDISCPILOT01", "QS", "01-701-1028", 4154.0, "DAITM34", "DECIDE TO TAKE HIS/HER MEDICATIONS", "DAD", "MEDICATIONS", "Y", "", "1", 1.0, "", "", "", "", "", 12.0, "WEEK 24", 168.0, "TREATMENT", "2014-01-06", 172.0]
["CDISCPILOT01", "QS", "01-701-1028", 4035.0, "DAITM35", "TAKE HIS/HER MEDICATIONS AS PRESCRIBED", "DAD", "MEDICATIONS", "Y", "", "1", 1.0, "", "", "", "Y", "", 3.0, "BASELINE", 1.0, "TREATMENT", "2013-07-19", 1.0]
["CDISCPILOT01", "QS", "01-701-1028", 4075.0, "DAITM35", "TAKE HIS/HER MEDICATIONS AS PRESCRIBED", "DAD", "MEDICATIONS", "Y", "", "1", 1.0, "", "", "", "", "", 8.0, "WEEK 8", 56.0, "TREATMENT", "2013-09-10", 54.0]
["CDISCPILOT01", "QS", "01-701-1028", 4115.0, "DAITM35", "TAKE HIS/HER MEDICATIONS AS PRESCRIBED", "DAD", "MEDICATIONS", "Y", "", "1", 1.0, "", "", "", "", "", 10.0, "WEEK 16", 112.0, "TREATMENT", "2013-11-06", 111.0]
["CDISCPILOT01", "QS", "01-701-1028", 4155.0, "DAITM35", "TAKE HIS/HER MEDICATIONS AS PRESCRIBED", "DAD", "MEDICATIONS", "Y", "", "1", 1.0, "", "", "", "", "", 12.0, "WEEK 24", 168.0, "TREATMENT", "2014-01-06", 172.0]
["CDISCPILOT01", "QS", "01-701-1028", 4036.0, "DAITM36", "SHOW AN INTEREST IN LEISURE ACTIVITY", "DAD", "LEISURE AND HOUSEWORK", "Y", "", "1", 1.0, "", "", "", "Y", "", 3.0, "BASELINE", 1.0, "TREATMENT", "2013-07-19", 1.0]
["CDISCPILOT01", "QS", "01-701-1028", 4076.0, "DAITM36", "SHOW AN INTEREST IN LEISURE ACTIVITY", "DAD", "LEISURE AND HOUSEWORK", "Y", "", "1", 1.0, "", "", "", "", "", 8.0, "WEEK 8", 56.0, "TREATMENT", "2013-09-10", 54.0]
["CDISCPILOT01", "QS", "01-701-1028", 4116.0, "DAITM36", "SHOW AN INTEREST IN LEISURE ACTIVITY", "DAD", "LEISURE AND HOUSEWORK", "Y", "", "1", 1.0, "", "", "", "", "", 10.0, "WEEK 16", 112.0, "TREATMENT", "2013-11-06", 111.0]
["CDISCPILOT01", "QS", "01-701-1028", 4156.0, "DAITM36", "SHOW AN INTEREST IN LEISURE ACTIVITY", "DAD", "LEISURE AND HOUSEWORK", "Y", "", "1", 1.0, "", "", "", "", "", 12.0, "WEEK 24", 168.0, "TREATMENT", "2014-01-06", 172.0]
["CDISCPILOT01", "QS", "01-701-1028", 4037.0, "DAITM37", "TAKE AN INTEREST IN HOUSEHOLD CHORES", "DAD", "LEISURE AND HOUSEWORK", "Y", "", "1", 1.0, "", "", "", "Y", "", 3.0, "BASELINE", 1.0, "TREATMENT", "2013-07-19", 1.0]
["CDISCPILOT01", "QS", "01-701-1028", 4077.0, "DAITM37", "TAKE AN INTEREST IN HOUSEHOLD CHORES", "DAD", "LEISURE AND HOUSEWORK", "Y", "", "1", 1.0, "", "", "", "", "", 8.0, "WEEK 8", 56.0, "TREATMENT", "2013-09-10", 54.0]
["CDISCPILOT01", "QS", "01-701-1028", 4117.0, "DAITM37", "TAKE AN INTEREST IN HOUSEHOLD CHORES", "DAD", "LEISURE AND HOUSEWORK", "Y", "", "1", 1.0, "", "", "", "", "", 10.0, "WEEK 16", 112.0, "TREATMENT", "2013-11-06", 111.0]
["CDISCPILOT01", "QS", "01-701-1028", 4157.0, "DAITM37", "TAKE AN INTEREST IN HOUSEHOLD CHORES", "DAD", "LEISURE AND HOUSEWORK", "Y", "", "1", 1.0, "", "", "", "", "", 12.0, "WEEK 24", 168.0, "TREATMENT", "2014-01-06", 172.0]
["CDISCPILOT01", "QS", "01-701-1028", 4038.0, "DAITM38", "PLAN AND ORGANIZE HOUSEHOLD CHORES", "DAD", "LEISURE AND HOUSEWORK", "Y", "", "1", 1.0, "", "", "", "Y", "", 3.0, "BASELINE", 1.0, "TREATMENT", "2013-07-19", 1.0]
["CDISCPILOT01", "QS", "01-701-1028", 4078.0, "DAITM38", "PLAN AND ORGANIZE HOUSEHOLD CHORES", "DAD", "LEISURE AND HOUSEWORK", "Y", "", "1", 1.0, "", "", "", "", "", 8.0, "WEEK 8", 56.0, "TREATMENT", "2013-09-10", 54.0]
["CDISCPILOT01", "QS", "01-701-1028", 4118.0, "DAITM38", "PLAN AND ORGANIZE HOUSEHOLD CHORES", "DAD", "LEISURE AND HOUSEWORK", "Y", "", "1", 1.0, "", "", "", "", "", 10.0, "WEEK 16", 112.0, "TREATMENT", "2013-11-06", 111.0]
["CDISCPILOT01", "QS", "01-701-1028", 4158.0, "DAITM38", "PLAN AND ORGANIZE HOUSEHOLD CHORES", "DAD", "LEISURE AND HOUSEWORK", "Y", "", "1", 1.0, "", "", "", "", "", 12.0, "WEEK 24", 168.0, "TREATMENT", "2014-01-06", 172.0]
["CDISCPILOT01", "QS", "01-701-1028", 4039.0, "DAITM39", "COMPLETE HOUSEHOLD CHORES", "DAD", "LEISURE AND HOUSEWORK", "Y", "", "1", 1.0, "", "", "", "Y", "", 3.0, "BASELINE", 1.0, "TREATMENT", "2013-07-19", 1.0]
["CDISCPILOT01", "QS", "01-701-1028", 4079.0, "DAITM39", "COMPLETE HOUSEHOLD CHORES", "DAD", "LEISURE AND HOUSEWORK", "Y", "", "1", 1.0, "", "", "", "", "", 8.0, "WEEK 8", 56.0, "TREATMENT", "2013-09-10", 54.0]
["CDISCPILOT01", "QS", "01-701-1028", 4119.0, "DAITM39", "COMPLETE HOUSEHOLD CHORES", "DAD", "LEISURE AND HOUSEWORK", "Y", "", "1", 1.0, "", "", "", "", "", 10.0, "WEEK 16", 112.0, "TREATMENT", "2013-11-06", 111.0]
["CDISCPILOT01", "QS", "01-701-1028", 4159.0, "DAITM39", "COMPLETE HOUSEHOLD CHORES", "DAD", "LEISURE AND HOUSEWORK", "Y", "", "1", 1.0, "", "", "", "", "", 12.0, "WEEK 24", 168.0, "TREATMENT", "2014-01-06", 172.0]
["CDISCPILOT01", "QS", "01-701-1028", 4040.0, "DAITM40", "STAY SAFELY AT HOME BY HIMSELF/HERSELF", "DAD", "LEISURE AND HOUSEWORK", "Y", "", "1", 1.0, "", "", "", "Y", "", 3.0, "BASELINE", 1.0, "TREATMENT", "2013-07-19", 1.0]
["CDISCPILOT01", "QS", "01-701-1028", 4080.0, "DAITM40", "STAY SAFELY AT HOME BY HIMSELF/HERSELF", "DAD", "LEISURE AND HOUSEWORK", "Y", "", "1", 1.0, "", "", "", "", "", 8.0, "WEEK 8", 56.0, "TREATMENT", "2013-09-10", 54.0]
["CDISCPILOT01", "QS", "01-701-1028", 4120.0, "DAITM40", "STAY SAFELY AT HOME BY HIMSELF/HERSELF", "DAD", "LEISURE AND HOUSEWORK", "Y", "", "1", 1.0, "", "", "", "", "", 10.0, "WEEK 16", 112.0, "TREATMENT", "2013-11-06", 111.0]
["CDISCPILOT01", "QS", "01-701-1028", 4160.0, "DAITM40", "STAY SAFELY AT HOME BY HIMSELF/HERSELF", "DAD", "LEISURE AND HOUSEWORK", "Y", "", "1", 1.0, "", "", "", "", "", 12.0, "WEEK 24", 168.0, "TREATMENT", "2014-01-06", 172.0]
["CDISCPILOT01", "QS", "01-701-1033", 4001.0, "DAITM01", "UNDERTAKE TO WASH HIMSELF/HERSELF", "DAD", "HYGIENE", "Y", "", "1", 1.0, "", "", "", "Y", "", 3.0, "BASELINE", 1.0, "TREATMENT", "2014-03-18", 1.0]
["CDISCPILOT01", "QS", "01-701-1033", 4041.0, "DAITM01", "UNDERTAKE TO WASH HIMSELF/HERSELF", "DAD", "HYGIENE", "Y", "", "1", 1.0, "", "", "", "", "", 5.0, "WEEK 4", 28.0, "TREATMENT", "2014-04-14", 28.0]
["CDISCPILOT01", "QS", "01-701-1033", 4081.0, "DAITM01", "UNDERTAKE TO WASH HIMSELF/HERSELF", "DAD", "HYGIENE", "Y", "", "1", 1.0, "", "", "", "", "", 201.0, "RETRIEVAL", 168.0, "TREATMENT", "2014-09-15", 182.0]
["CDISCPILOT01", "QS", "01-701-1033", 4002.0, "DAITM02", "UNDERTAKE TO BRUSH HIS/HER TEETH", "DAD", "HYGIENE", "Y", "", "1", 1.0, "", "", "", "Y", "", 3.0, "BASELINE", 1.0, "TREATMENT", "2014-03-18", 1.0]
["CDISCPILOT01", "QS", "01-701-1033", 4042.0, "DAITM02", "UNDERTAKE TO BRUSH HIS/HER TEETH", "DAD", "HYGIENE", "Y", "", "1", 1.0, "", "", "", "", "", 5.0, "WEEK 4", 28.0, "TREATMENT", "2014-04-14", 28.0]
["CDISCPILOT01", "QS", "01-701-1033", 4082.0, "DAITM02", "UNDERTAKE TO BRUSH HIS/HER TEETH", "DAD", "HYGIENE", "Y", "", "1", 1.0, "", "", "", "", "", 201.0, "RETRIEVAL", 168.0, "TREATMENT", "2014-09-15", 182.0]
["CDISCPILOT01", "QS", "01-701-1033", 4003.0, "DAITM03", "DECIDE TO CARE FOR HIS/HER HAIR", "DAD", "HYGIENE", "Y", "", "1", 1.0, "", "", "", "Y", "", 3.0, "BASELINE", 1.0, "TREATMENT", "2014-03-18", 1.0]
["CDISCPILOT01", "QS", "01-701-1033", 4043.0, "DAITM03", "DECIDE TO CARE FOR HIS/HER HAIR", "DAD", "HYGIENE", "Y", "", "1", 1.0, "", "", "", "", "", 5.0, "WEEK 4", 28.0, "TREATMENT", "2014-04-14", 28.0]
["CDISCPILOT01", "QS", "01-701-1033", 4083.0, "DAITM03", "DECIDE TO CARE FOR HIS/HER HAIR", "DAD", "HYGIENE", "Y", "", "1", 1.0, "", "", "", "", "", 201.0, "RETRIEVAL", 168.0, "TREATMENT", "2014-09-15", 182.0]
["CDISCPILOT01", "QS", "01-701-1033", 4004.0, "DAITM04", "PREPARE FOR WASHING, TAKING A BATH", "DAD", "HYGIENE", "Y", "", "1", 1.0, "", "", "", "Y", "", 3.0, "BASELINE", 1.0, "TREATMENT", "2014-03-18", 1.0]
["CDISCPILOT01", "QS", "01-701-1033", 4044.0, "DAITM04", "PREPARE FOR WASHING, TAKING A BATH", "DAD", "HYGIENE", "Y", "", "1", 1.0, "", "", "", "", "", 5.0, "WEEK 4", 28.0, "TREATMENT", "2014-04-14", 28.0]
["CDISCPILOT01", "QS", "01-701-1033", 4084.0, "DAITM04", "PREPARE FOR WASHING, TAKING A BATH", "DAD", "HYGIENE", "Y", "", "1", 1.0, "", "", "", "", "", 201.0, "RETRIEVAL", 168.0, "TREATMENT", "2014-09-15", 182.0]
["CDISCPILOT01", "QS", "01-701-1033", 4005.0, "DAITM05", "WASH AND DRY COMPLETELY SAFELY", "DAD", "HYGIENE", "Y", "", "1", 1.0, "", "", "", "Y", "", 3.0, "BASELINE", 1.0, "TREATMENT", "2014-03-18", 1.0]
["CDISCPILOT01", "QS", "01-701-1033", 4045.0, "DAITM05", "WASH AND DRY COMPLETELY SAFELY", "DAD", "HYGIENE", "Y", "", "1", 1.0, "", "", "", "", "", 5.0, "WEEK 4", 28.0, "TREATMENT", "2014-04-14", 28.0]
["CDISCPILOT01", "QS", "01-701-1033", 4085.0, "DAITM05", "WASH AND DRY COMPLETELY SAFELY", "DAD", "HYGIENE", "Y", "", "1", 1.0, "", "", "", "", "", 201.0, "RETRIEVAL", 168.0, "TREATMENT", "2014-09-15", 182.0]
["CDISCPILOT01", "QS", "01-701-1033", 4006.0, "DAITM06", "BRUSH HIS/HER TEETH", "DAD", "HYGIENE", "Y", "", "1", 1.0, "", "", "", "Y", "", 3.0, "BASELINE", 1.0, "TREATMENT", "2014-03-18", 1.0]
["CDISCPILOT01", "QS", "01-701-1033", 4046.0, "DAITM06", "BRUSH HIS/HER TEETH", "DAD", "HYGIENE", "Y", "", "1", 1.0, "", "", "", "", "", 5.0, "WEEK 4", 28.0, "TREATMENT", "2014-04-14", 28.0]
["CDISCPILOT01", "QS", "01-701-1033", 4086.0, "DAITM06", "BRUSH HIS/HER TEETH", "DAD", "HYGIENE", "Y", "", "1", 1.0, "", "", "", "", "", 201.0, "RETRIEVAL", 168.0, "TREATMENT", "2014-09-15", 182.0]
["CDISCPILOT01", "QS", "01-701-1033", 4007.0, "DAITM07", "CARE FOR HIS/HER HAIR", "DAD", "HYGIENE", "Y", "", "1", 1.0, "", "", "", "Y", "", 3.0, "BASELINE", 1.0, "TREATMENT", "2014-03-18", 1.0]
["CDISCPILOT01", "QS", "01-701-1033", 4047.0, "DAITM07", "CARE FOR HIS/HER HAIR", "DAD", "HYGIENE", "Y", "", "1", 1.0, "", "", "", "", "", 5.0, "WEEK 4", 28.0, "TREATMENT", "2014-04-14", 28.0]
["CDISCPILOT01", "QS", "01-701-1033", 4087.0, "DAITM07", "CARE FOR HIS/HER HAIR", "DAD", "HYGIENE", "Y", "", "1", 1.0, "", "", "", "", "", 201.0, "RETRIEVAL", 168.0, "TREATMENT", "2014-09-15", 182.0]
["CDISCPILOT01", "QS", "01-701-1033", 4008.0, "DAITM08", "UNDERTAKE TO DRESS HIMSELF/HERSELF", "DAD", "DRESSING", "Y", "", "1", 1.0, "", "", "", "Y", "", 3.0, "BASELINE", 1.0, "TREATMENT", "2014-03-18", 1.0]
["CDISCPILOT01", "QS", "01-701-1033", 4048.0, "DAITM08", "UNDERTAKE TO DRESS HIMSELF/HERSELF", "DAD", "DRESSING", "Y", "", "1", 1.0, "", "", "", "", "", 5.0, "WEEK 4", 28.0, "TREATMENT", "2014-04-14", 28.0]
["CDISCPILOT01", "QS", "01-701-1033", 4088.0, "DAITM08", "UNDERTAKE TO DRESS HIMSELF/HERSELF", "DAD", "DRESSING", "Y", "", "1", 1.0, "", "", "", "", "", 201.0, "RETRIEVAL", 168.0, "TREATMENT", "2014-09-15", 182.0]
["CDISCPILOT01", "QS", "01-701-1033", 4009.0, "DAITM09", "CHOOSE APPROPRIATE CLOTHING", "DAD", "DRESSING", "Y", "", "1", 1.0, "", "", "", "Y", "", 3.0, "BASELINE", 1.0, "TREATMENT", "2014-03-18", 1.0]
["CDISCPILOT01", "QS", "01-701-1033", 4049.0, "DAITM09", "CHOOSE APPROPRIATE CLOTHING", "DAD", "DRESSING", "Y", "", "1", 1.0, "", "", "", "", "", 5.0, "WEEK 4", 28.0, "TREATMENT", "2014-04-14", 28.0]
["CDISCPILOT01", "QS", "01-701-1033", 4089.0, "DAITM09", "CHOOSE APPROPRIATE CLOTHING", "DAD", "DRESSING", "Y", "", "1", 1.0, "", "", "", "", "", 201.0, "RETRIEVAL", 168.0, "TREATMENT", "2014-09-15", 182.0]
["CDISCPILOT01", "QS", "01-701-1033", 4010.0, "DAITM10", "DRESS HIMSELF/HERSELF", "DAD", "DRESSING", "Y", "", "1", 1.0, "", "", "", "Y", "", 3.0, "BASELINE", 1.0, "TREATMENT", "2014-03-18", 1.0]
["CDISCPILOT01", "QS", "01-701-1033", 4050.0, "DAITM10", "DRESS HIMSELF/HERSELF", "DAD", "DRESSING", "Y", "", "1", 1.0, "", "", "", "", "", 5.0, "WEEK 4", 28.0, "TREATMENT", "2014-04-14", 28.0]
["CDISCPILOT01", "QS", "01-701-1033", 4090.0, "DAITM10", "DRESS HIMSELF/HERSELF", "DAD", "DRESSING", "Y", "", "1", 1.0, "", "", "", "", "", 201.0, "RETRIEVAL", 168.0, "TREATMENT", "2014-09-15", 182.0]
["CDISCPILOT01", "QS", "01-701-1033", 4011.0, "DAITM11", "DRESS HIMSELF/HERSELF COMPLETELY", "DAD", "DRESSING", "Y", "", "1", 1.0, "", "", "", "Y", "", 3.0, "BASELINE", 1.0, "TREATMENT", "2014-03-18", 1.0]
["CDISCPILOT01", "QS", "01-701-1033", 4051.0, "DAITM11", "DRESS HIMSELF/HERSELF COMPLETELY", "DAD", "DRESSING", "Y", "", "1", 1.0, "", "", "", "", "", 5.0, "WEEK 4", 28.0, "TREATMENT", "2014-04-14", 28.0]
["CDISCPILOT01", "QS", "01-701-1033", 4091.0, "DAITM11", "DRESS HIMSELF/HERSELF COMPLETELY", "DAD", "DRESSING", "Y", "", "1", 1.0, "", "", "", "", "", 201.0, "RETRIEVAL", 168.0, "TREATMENT", "2014-09-15", 182.0]
["CDISCPILOT01", "QS", "01-701-1033", 4012.0, "DAITM12", "UNDRESS HIMSELF/HERSELF COMPLETELY", "DAD", "DRESSING", "Y", "", "1", 1.0, "", "", "", "Y", "", 3.0, "BASELINE", 1.0, "TREATMENT", "2014-03-18", 1.0]
["CDISCPILOT01", "QS", "01-701-1033", 4052.0, "DAITM12", "UNDRESS HIMSELF/HERSELF COMPLETELY", "DAD", "DRESSING", "Y", "", "1", 1.0, "", "", "", "", "", 5.0, "WEEK 4", 28.0, "TREATMENT", "2014-04-14", 28.0]
["CDISCPILOT01", "QS", "01-701-1033", 4092.0, "DAITM12", "UNDRESS HIMSELF/HERSELF COMPLETELY", "DAD", "DRESSING", "Y", "", "1", 1.0, "", "", "", "", "", 201.0, "RETRIEVAL", 168.0, "TREATMENT", "2014-09-15", 182.0]
["CDISCPILOT01", "QS", "01-701-1033", 4013.0, "DAITM13", "DECIDE TO USE THE TOILET AT APPROPRIATE", "DAD", "CONTINENCE", "Y", "", "1", 1.0, "", "", "", "Y", "", 3.0, "BASELINE", 1.0, "TREATMENT", "2014-03-18", 1.0]
["CDISCPILOT01", "QS", "01-701-1033", 4053.0, "DAITM13", "DECIDE TO USE THE TOILET AT APPROPRIATE", "DAD", "CONTINENCE", "Y", "", "1", 1.0, "", "", "", "", "", 5.0, "WEEK 4", 28.0, "TREATMENT", "2014-04-14", 28.0]
["CDISCPILOT01", "QS", "01-701-1033", 4093.0, "DAITM13", "DECIDE TO USE THE TOILET AT APPROPRIATE", "DAD", "CONTINENCE", "Y", "", "1", 1.0, "", "", "", "", "", 201.0, "RETRIEVAL", 168.0, "TREATMENT", "2014-09-15", 182.0]
["CDISCPILOT01", "QS", "01-701-1033", 4014.0, "DAITM14", "USE THE TOILET WITHOUT \"ACCIDENTS\"", "DAD", "CONTINENCE", "Y", "", "1", 1.0, "", "", "", "Y", "", 3.0, "BASELINE", 1.0, "TREATMENT", "2014-03-18", 1.0]
["CDISCPILOT01", "QS", "01-701-1033", 4054.0, "DAITM14", "USE THE TOILET WITHOUT \"ACCIDENTS\"", "DAD", "CONTINENCE", "Y", "", "1", 1.0, "", "", "", "", "", 5.0, "WEEK 4", 28.0, "TREATMENT", "2014-04-14", 28.0]
["CDISCPILOT01", "QS", "01-701-1033", 4094.0, "DAITM14", "USE THE TOILET WITHOUT \"ACCIDENTS\"", "DAD", "CONTINENCE", "Y", "", "1", 1.0, "", "", "", "", "", 201.0, "RETRIEVAL", 168.0, "TREATMENT", "2014-09-15", 182.0]
["CDISCPILOT01", "QS", "01-701-1033", 4015.0, "DAITM15", "DECIDE THAT HE/SHE NEEDS TO EAT", "DAD", "EATING", "Y", "", "1", 1.0, "", "", "", "Y", "", 3.0, "BASELINE", 1.0, "TREATMENT", "2014-03-18", 1.0]
["CDISCPILOT01", "QS", "01-701-1033", 4055.0, "DAITM15", "DECIDE THAT HE/SHE NEEDS TO EAT", "DAD", "EATING", "Y", "", "1", 1.0, "", "", "", "", "", 5.0, "WEEK 4", 28.0, "TREATMENT", "2014-04-14", 28.0]
["CDISCPILOT01", "QS", "01-701-1033", 4095.0, "DAITM15", "DECIDE THAT HE/SHE NEEDS TO EAT", "DAD", "EATING", "Y", "", "1", 1.0, "", "", "", "", "", 201.0, "RETRIEVAL", 168.0, "TREATMENT", "2014-09-15", 182.0]
["CDISCPILOT01", "QS", "01-701-1033", 4016.0, "DAITM16", "CHOOSE APPROPRIATE UTENSILS", "DAD", "EATING", "Y", "", "1", 1.0, "", "", "", "Y", "", 3.0, "BASELINE", 1.0, "TREATMENT", "2014-03-18", 1.0]
["CDISCPILOT01", "QS", "01-701-1033", 4056.0, "DAITM16", "CHOOSE APPROPRIATE UTENSILS", "DAD", "EATING", "Y", "", "1", 1.0, "", "", "", "", "", 5.0, "WEEK 4", 28.0, "TREATMENT", "2014-04-14", 28.0]
["CDISCPILOT01", "QS", "01-701-1033", 4096.0, "DAITM16", "CHOOSE APPROPRIATE UTENSILS", "DAD", "EATING", "Y", "", "1", 1.0, "", "", "", "", "", 201.0, "RETRIEVAL", 168.0, "TREATMENT", "2014-09-15", 182.0]
["CDISCPILOT01", "QS", "01-701-1033", 4017.0, "DAITM17", "EAT HIS/HER MEALS AT A NORMAL PACE", "DAD", "EATING", "Y", "", "1", 1.0, "", "", "", "Y", "", 3.0, "BASELINE", 1.0, "TREATMENT", "2014-03-18", 1.0]
["CDISCPILOT01", "QS", "01-701-1033", 4057.0, "DAITM17", "EAT HIS/HER MEALS AT A NORMAL PACE", "DAD", "EATING", "Y", "", "1", 1.0, "", "", "", "", "", 5.0, "WEEK 4", 28.0, "TREATMENT", "2014-04-14", 28.0]
["CDISCPILOT01", "QS", "01-701-1033", 4097.0, "DAITM17", "EAT HIS/HER MEALS AT A NORMAL PACE", "DAD", "EATING", "Y", "", "1", 1.0, "", "", "", "", "", 201.0, "RETRIEVAL", 168.0, "TREATMENT", "2014-09-15", 182.0]
["CDISCPILOT01", "QS", "01-701-1033", 4018.0, "DAITM18", "UNDERTAKE TO PREPARE A LIGHT MEAL", "DAD", "MEAL PREPARATION", "Y", "", "1", 1.0, "", "", "", "Y", "", 3.0, "BASELINE", 1.0, "TREATMENT", "2014-03-18", 1.0]
["CDISCPILOT01", "QS", "01-701-1033", 4058.0, "DAITM18", "UNDERTAKE TO PREPARE A LIGHT MEAL", "DAD", "MEAL PREPARATION", "Y", "", "1", 1.0, "", "", "", "", "", 5.0, "WEEK 4", 28.0, "TREATMENT", "2014-04-14", 28.0]
["CDISCPILOT01", "QS", "01-701-1033", 4098.0, "DAITM18", "UNDERTAKE TO PREPARE A LIGHT MEAL", "DAD", "MEAL PREPARATION", "Y", "", "1", 1.0, "", "", "", "", "", 201.0, "RETRIEVAL", 168.0, "TREATMENT", "2014-09-15", 182.0]
["CDISCPILOT01", "QS", "01-701-1033", 4019.0, "DAITM19", "ADEQUATELY PLAN A LIGHT MEAL OR SNACK", "DAD", "MEAL PREPARATION", "Y", "", "1", 1.0, "", "", "", "Y", "", 3.0, "BASELINE", 1.0, "TREATMENT", "2014-03-18", 1.0]
["CDISCPILOT01", "QS", "01-701-1033", 4059.0, "DAITM19", "ADEQUATELY PLAN A LIGHT MEAL OR SNACK", "DAD", "MEAL PREPARATION", "Y", "", "1", 1.0, "", "", "", "", "", 5.0, "WEEK 4", 28.0, "TREATMENT", "2014-04-14", 28.0]
["CDISCPILOT01", "QS", "01-701-1033", 4099.0, "DAITM19", "ADEQUATELY PLAN A LIGHT MEAL OR SNACK", "DAD", "MEAL PREPARATION", "Y", "", "1", 1.0, "", "", "", "", "", 201.0, "RETRIEVAL", 168.0, "TREATMENT", "2014-09-15", 182.0]
["CDISCPILOT01", "QS", "01-701-1033", 4020.0, "DAITM20", "PREPARE OR COOK A LIGHT MEAL OR A SNACK", "DAD", "MEAL PREPARATION", "Y", "", "1", 1.0, "", "", "", "Y", "", 3.0, "BASELINE", 1.0, "TREATMENT", "2014-03-18", 1.0]
["CDISCPILOT01", "QS", "01-701-1033", 4060.0, "DAITM20", "PREPARE OR COOK A LIGHT MEAL OR A SNACK", "DAD", "MEAL PREPARATION", "Y", "", "1", 1.0, "", "", "", "", "", 5.0, "WEEK 4", 28.0, "TREATMENT", "2014-04-14", 28.0]
["CDISCPILOT01", "QS", "01-701-1033", 4100.0, "DAITM20", "PREPARE OR COOK A LIGHT MEAL OR A SNACK", "DAD", "MEAL PREPARATION", "Y", "", "1", 1.0, "", "", "", "", "", 201.0, "RETRIEVAL", 168.0, "TREATMENT", "2014-09-15", 182.0]
["CDISCPILOT01", "QS", "01-701-1033", 4021.0, "DAITM21", "ATTEMPT TO TELEPHONE SOMEONE", "DAD", "TELEPHONING", "Y", "", "1", 1.0, "", "", "", "Y", "", 3.0, "BASELINE", 1.0, "TREATMENT", "2014-03-18", 1.0]
["CDISCPILOT01", "QS", "01-701-1033", 4061.0, "DAITM21", "ATTEMPT TO TELEPHONE SOMEONE", "DAD", "TELEPHONING", "Y", "", "1", 1.0, "", "", "", "", "", 5.0, "WEEK 4", 28.0, "TREATMENT", "2014-04-14", 28.0]
["CDISCPILOT01", "QS", "01-701-1033", 4101.0, "DAITM21", "ATTEMPT TO TELEPHONE SOMEONE", "DAD", "TELEPHONING", "Y", "", "1", 1.0, "", "", "", "", "", 201.0, "RETRIEVAL", 168.0, "TREATMENT", "2014-09-15", 182.0]
["CDISCPILOT01", "QS", "01-701-1033", 4022.0, "DAITM22", "FIND AND DIAL A TELEPHONE NUMBER CORRECT", "DAD", "TELEPHONING", "Y", "", "1", 1.0, "", "", "", "Y", "", 3.0, "BASELINE", 1.0, "TREATMENT", "2014-03-18", 1.0]
["CDISCPILOT01", "QS", "01-701-1033", 4062.0, "DAITM22", "FIND AND DIAL A TELEPHONE NUMBER CORRECT", "DAD", "TELEPHONING", "Y", "", "1", 1.0, "", "", "", "", "", 5.0, "WEEK 4", 28.0, "TREATMENT", "2014-04-14", 28.0]
["CDISCPILOT01", "QS", "01-701-1033", 4102.0, "DAITM22", "FIND AND DIAL A TELEPHONE NUMBER CORRECT", "DAD", "TELEPHONING", "Y", "", "1", 1.0, "", "", "", "", "", 201.0, "RETRIEVAL", 168.0, "TREATMENT", "2014-09-15", 182.0]
["CDISCPILOT01", "QS", "01-701-1033", 4023.0, "DAITM23", "CARRY OUT A TELEPHONE CONVERSATION", "DAD", "TELEPHONING", "Y", "", "1", 1.0, "", "", "", "Y", "", 3.0, "BASELINE", 1.0, "TREATMENT", "2014-03-18", 1.0]
["CDISCPILOT01", "QS", "01-701-1033", 4063.0, "DAITM23", "CARRY OUT A TELEPHONE CONVERSATION", "DAD", "TELEPHONING", "Y", "", "1", 1.0, "", "", "", "", "", 5.0, "WEEK 4", 28.0, "TREATMENT", "2014-04-14", 28.0]
["CDISCPILOT01", "QS", "01-701-1033", 4103.0, "DAITM23", "CARRY OUT A TELEPHONE CONVERSATION", "DAD", "TELEPHONING", "Y", "", "1", 1.0, "", "", "", "", "", 201.0, "RETRIEVAL", 168.0, "TREATMENT", "2014-09-15", 182.0]
["CDISCPILOT01", "QS", "01-701-1033", 4024.0, "DAITM24", "WRITE AND CONVEY A TELEPHONE MESSAGE", "DAD", "TELEPHONING", "Y", "", "1", 1.0, "", "", "", "Y", "", 3.0, "BASELINE", 1.0, "TREATMENT", "2014-03-18", 1.0]
["CDISCPILOT01", "QS", "01-701-1033", 4064.0, "DAITM24", "WRITE AND CONVEY A TELEPHONE MESSAGE", "DAD", "TELEPHONING", "Y", "", "1", 1.0, "", "", "", "", "", 5.0, "WEEK 4", 28.0, "TREATMENT", "2014-04-14", 28.0]
["CDISCPILOT01", "QS", "01-701-1033", 4104.0, "DAITM24", "WRITE AND CONVEY A TELEPHONE MESSAGE", "DAD", "TELEPHONING", "N", "", "0", 0.0, "", "", "", "", "", 201.0, "RETRIEVAL", 168.0, "TREATMENT", "2014-09-15", 182.0]
["CDISCPILOT01", "QS", "01-701-1033", 4025.0, "DAITM25", "UNDERTAKE TO GO OUT", "DAD", "GOING ON AN OUTING", "Y", "", "1", 1.0, "", "", "", "Y", "", 3.0, "BASELINE", 1.0, "TREATMENT", "2014-03-18", 1.0]
["CDISCPILOT01", "QS", "01-701-1033", 4065.0, "DAITM25", "UNDERTAKE TO GO OUT", "DAD", "GOING ON AN OUTING", "Y", "", "1", 1.0, "", "", "", "", "", 5.0, "WEEK 4", 28.0, "TREATMENT", "2014-04-14", 28.0]
["CDISCPILOT01", "QS", "01-701-1033", 4105.0, "DAITM25", "UNDERTAKE TO GO OUT", "DAD", "GOING ON AN OUTING", "Y", "", "1", 1.0, "", "", "", "", "", 201.0, "RETRIEVAL", 168.0, "TREATMENT", "2014-09-15", 182.0]
["CDISCPILOT01", "QS", "01-701-1033", 4026.0, "DAITM26", "ADEQUATELY ORGANIZE AN OUTING", "DAD", "GOING ON AN OUTING", "Y", "", "1", 1.0, "", "", "", "Y", "", 3.0, "BASELINE", 1.0, "TREATMENT", "2014-03-18", 1.0]
["CDISCPILOT01", "QS", "01-701-1033", 4066.0, "DAITM26", "ADEQUATELY ORGANIZE AN OUTING", "DAD", "GOING ON AN OUTING", "Y", "", "1", 1.0, "", "", "", "", "", 5.0, "WEEK 4", 28.0, "TREATMENT", "2014-04-14", 28.0]
["CDISCPILOT01", "QS", "01-701-1033", 4106.0, "DAITM26", "ADEQUATELY ORGANIZE AN OUTING", "DAD", "GOING ON AN OUTING", "Y", "", "1", 1.0, "", "", "", "", "", 201.0, "RETRIEVAL", 168.0, "TREATMENT", "2014-09-15", 182.0]
["CDISCPILOT01", "QS", "01-701-1033", 4027.0, "DAITM27", "GO OUT AND REACH A FAMILIAR DESTINATION", "DAD", "GOING ON AN OUTING", "Y", "", "1", 1.0, "", "", "", "Y", "", 3.0, "BASELINE", 1.0, "TREATMENT", "2014-03-18", 1.0]
["CDISCPILOT01", "QS", "01-701-1033", 4067.0, "DAITM27", "GO OUT AND REACH A FAMILIAR DESTINATION", "DAD", "GOING ON AN OUTING", "Y", "", "1", 1.0, "", "", "", "", "", 5.0, "WEEK 4", 28.0, "TREATMENT", "2014-04-14", 28.0]
["CDISCPILOT01", "QS", "01-701-1033", 4107.0, "DAITM27", "GO OUT AND REACH A FAMILIAR DESTINATION", "DAD", "GOING ON AN OUTING", "Y", "", "1", 1.0, "", "", "", "", "", 201.0, "RETRIEVAL", 168.0, "TREATMENT", "2014-09-15", 182.0]
["CDISCPILOT01", "QS", "01-701-1033", 4028.0, "DAITM28", "SAFELY TAKE CAR, BUS, TAXI", "DAD", "GOING ON AN OUTING", "Y", "", "1", 1.0, "", "", "", "Y", "", 3.0, "BASELINE", 1.0, "TREATMENT", "2014-03-18", 1.0]
["CDISCPILOT01", "QS", "01-701-1033", 4068.0, "DAITM28", "SAFELY TAKE CAR, BUS, TAXI", "DAD", "GOING ON AN OUTING", "Y", "", "1", 1.0, "", "", "", "", "", 5.0, "WEEK 4", 28.0, "TREATMENT", "2014-04-14", 28.0]
["CDISCPILOT01", "QS", "01-701-1033", 4108.0, "DAITM28", "SAFELY TAKE CAR, BUS, TAXI", "DAD", "GOING ON AN OUTING", "Y", "", "1", 1.0, "", "", "", "", "", 201.0, "RETRIEVAL", 168.0, "TREATMENT", "2014-09-15", 182.0]
["CDISCPILOT01", "QS", "01-701-1033", 4029.0, "DAITM29", "RETURN FROM THE STORE", "DAD", "GOING ON AN OUTING", "Y", "", "1", 1.0, "", "", "", "Y", "", 3.0, "BASELINE", 1.0, "TREATMENT", "2014-03-18", 1.0]
["CDISCPILOT01", "QS", "01-701-1033", 4069.0, "DAITM29", "RETURN FROM THE STORE", "DAD", "GOING ON AN OUTING", "Y", "", "1", 1.0, "", "", "", "", "", 5.0, "WEEK 4", 28.0, "TREATMENT", "2014-04-14", 28.0]
["CDISCPILOT01", "QS", "01-701-1033", 4109.0, "DAITM29", "RETURN FROM THE STORE", "DAD", "GOING ON AN OUTING", "Y", "", "1", 1.0, "", "", "", "", "", 201.0, "RETRIEVAL", 168.0, "TREATMENT", "2014-09-15", 182.0]
["CDISCPILOT01", "QS", "01-701-1033", 4030.0, "DAITM30", "INTEREST IN HIS/HER PERSONAL AFFAIRS", "DAD", "FINANCE AND CORRESPONDE", "Y", "", "1", 1.0, "", "", "", "Y", "", 3.0, "BASELINE", 1.0, "TREATMENT", "2014-03-18", 1.0]
["CDISCPILOT01", "QS", "01-701-1033", 4070.0, "DAITM30", "INTEREST IN HIS/HER PERSONAL AFFAIRS", "DAD", "FINANCE AND CORRESPONDE", "Y", "", "1", 1.0, "", "", "", "", "", 5.0, "WEEK 4", 28.0, "TREATMENT", "2014-04-14", 28.0]
["CDISCPILOT01", "QS", "01-701-1033", 4110.0, "DAITM30", "INTEREST IN HIS/HER PERSONAL AFFAIRS", "DAD", "FINANCE AND CORRESPONDE", "Y", "", "1", 1.0, "", "", "", "", "", 201.0, "RETRIEVAL", 168.0, "TREATMENT", "2014-09-15", 182.0]
["CDISCPILOT01", "QS", "01-701-1033", 4031.0, "DAITM31", "PAY HIS/HER BILLS", "DAD", "FINANCE AND CORRESPONDE", "Y", "", "1", 1.0, "", "", "", "Y", "", 3.0, "BASELINE", 1.0, "TREATMENT", "2014-03-18", 1.0]
["CDISCPILOT01", "QS", "01-701-1033", 4071.0, "DAITM31", "PAY HIS/HER BILLS", "DAD", "FINANCE AND CORRESPONDE", "Y", "", "1", 1.0, "", "", "", "", "", 5.0, "WEEK 4", 28.0, "TREATMENT", "2014-04-14", 28.0]
["CDISCPILOT01", "QS", "01-701-1033", 4111.0, "DAITM31", "PAY HIS/HER BILLS", "DAD", "FINANCE AND CORRESPONDE", "Y", "", "1", 1.0, "", "", "", "", "", 201.0, "RETRIEVAL", 168.0, "TREATMENT", "2014-09-15", 182.0]
["CDISCPILOT01", "QS", "01-701-1033", 4032.0, "DAITM32", "ORGANIZE HIS/HER CORRESPONDENCE", "DAD", "FINANCE AND CORRESPONDE", "Y", "", "1", 1.0, "", "", "", "Y", "", 3.0, "BASELINE", 1.0, "TREATMENT", "2014-03-18", 1.0]
["CDISCPILOT01", "QS", "01-701-1033", 4072.0, "DAITM32", "ORGANIZE HIS/HER CORRESPONDENCE", "DAD", "FINANCE AND CORRESPONDE", "Y", "", "1", 1.0, "", "", "", "", "", 5.0, "WEEK 4", 28.0, "TREATMENT", "2014-04-14", 28.0]
["CDISCPILOT01", "QS", "01-701-1033", 4112.0, "DAITM32", "ORGANIZE HIS/HER CORRESPONDENCE", "DAD", "FINANCE AND CORRESPONDE", "Y", "", "1", 1.0, "", "", "", "", "", 201.0, "RETRIEVAL", 168.0, "TREATMENT", "2014-09-15", 182.0]
["CDISCPILOT01", "QS", "01-701-1033", 4033.0, "DAITM33", "HANDLE ADEQUATELY HIS/HER MONEY", "DAD", "FINANCE AND CORRESPONDE", "Y", "", "1", 1.0, "", "", "", "Y", "", 3.0, "BASELINE", 1.0, "TREATMENT", "2014-03-18", 1.0]
["CDISCPILOT01", "QS", "01-701-1033", 4073.0, "DAITM33", "HANDLE ADEQUATELY HIS/HER MONEY", "DAD", "FINANCE AND CORRESPONDE", "Y", "", "1", 1.0, "", "", "", "", "", 5.0, "WEEK 4", 28.0, "TREATMENT", "2014-04-14", 28.0]
["CDISCPILOT01", "QS", "01-701-1033", 4113.0, "DAITM33", "HANDLE ADEQUATELY HIS/HER MONEY", "DAD", "FINANCE AND CORRESPONDE", "Y", "", "1", 1.0, "", "", "", "", "", 201.0, "RETRIEVAL", 168.0, "TREATMENT", "2014-09-15", 182.0]
["CDISCPILOT01", "QS", "01-701-1033", 4034.0, "DAITM34", "DECIDE TO TAKE HIS/HER MEDICATIONS", "DAD", "MEDICATIONS", "Y", "", "1", 1.0, "", "", "", "Y", "", 3.0, "BASELINE", 1.0, "TREATMENT", "2014-03-18", 1.0]
["CDISCPILOT01", "QS", "01-701-1033", 4074.0, "DAITM34", "DECIDE TO TAKE HIS/HER MEDICATIONS", "DAD", "MEDICATIONS", "Y", "", "1", 1.0, "", "", "", "", "", 5.0, "WEEK 4", 28.0, "TREATMENT", "2014-04-14", 28.0]
["CDISCPILOT01", "QS", "01-701-1033", 4114.0, "DAITM34", "DECIDE TO TAKE HIS/HER MEDICATIONS", "DAD", "MEDICATIONS", "Y", "", "1", 1.0, "", "", "", "", "", 201.0, "RETRIEVAL", 168.0, "TREATMENT", "2014-09-15", 182.0]
["CDISCPILOT01", "QS", "01-701-1033", 4035.0, "DAITM35", "TAKE HIS/HER MEDICATIONS AS PRESCRIBED", "DAD", "MEDICATIONS", "Y", "", "1", 1.0, "", "", "", "Y", "", 3.0, "BASELINE", 1.0, "TREATMENT", "2014-03-18", 1.0]
["CDISCPILOT01", "QS", "01-701-1033", 4075.0, "DAITM35", "TAKE HIS/HER MEDICATIONS AS PRESCRIBED", "DAD", "MEDICATIONS", "Y", "", "1", 1.0, "", "", "", "", "", 5.0, "WEEK 4", 28.0, "TREATMENT", "2014-04-14", 28.0]
["CDISCPILOT01", "QS", "01-701-1033", 4115.0, "DAITM35", "TAKE HIS/HER MEDICATIONS AS PRESCRIBED", "DAD", "MEDICATIONS", "Y", "", "1", 1.0, "", "", "", "", "", 201.0, "RETRIEVAL", 168.0, "TREATMENT", "2014-09-15", 182.0]
["CDISCPILOT01", "QS", "01-701-1033", 4036.0, "DAITM36", "SHOW AN INTEREST IN LEISURE ACTIVITY", "DAD", "LEISURE AND HOUSEWORK", "Y", "", "1", 1.0, "", "", "", "Y", "", 3.0, "BASELINE", 1.0, "TREATMENT", "2014-03-18", 1.0]
["CDISCPILOT01", "QS", "01-701-1033", 4076.0, "DAITM36", "SHOW AN INTEREST IN LEISURE ACTIVITY", "DAD", "LEISURE AND HOUSEWORK", "Y", "", "1", 1.0, "", "", "", "", "", 5.0, "WEEK 4", 28.0, "TREATMENT", "2014-04-14", 28.0]
["CDISCPILOT01", "QS", "01-701-1033", 4116.0, "DAITM36", "SHOW AN INTEREST IN LEISURE ACTIVITY", "DAD", "LEISURE AND HOUSEWORK", "Y", "", "1", 1.0, "", "", "", "", "", 201.0, "RETRIEVAL", 168.0, "TREATMENT", "2014-09-15", 182.0]
["CDISCPILOT01", "QS", "01-701-1033", 4037.0, "DAITM37", "TAKE AN INTEREST IN HOUSEHOLD CHORES", "DAD", "LEISURE AND HOUSEWORK", "Y", "", "1", 1.0, "", "", "", "Y", "", 3.0, "BASELINE", 1.0, "TREATMENT", "2014-03-18", 1.0]
["CDISCPILOT01", "QS", "01-701-1033", 4077.0, "DAITM37", "TAKE AN INTEREST IN HOUSEHOLD CHORES", "DAD", "LEISURE AND HOUSEWORK", "Y", "", "1", 1.0, "", "", "", "", "", 5.0, "WEEK 4", 28.0, "TREATMENT", "2014-04-14", 28.0]
["CDISCPILOT01", "QS", "01-701-1033", 4117.0, "DAITM37", "TAKE AN INTEREST IN HOUSEHOLD CHORES", "DAD", "LEISURE AND HOUSEWORK", "Y", "", "1", 1.0, "", "", "", "", "", 201.0, "RETRIEVAL", 168.0, "TREATMENT", "2014-09-15", 182.0]
["CDISCPILOT01", "QS", "01-701-1033", 4038.0, "DAITM38", "PLAN AND ORGANIZE HOUSEHOLD CHORES", "DAD", "LEISURE AND HOUSEWORK", "Y", "", "1", 1.0, "", "", "", "Y", "", 3.0, "BASELINE", 1.0, "TREATMENT", "2014-03-18", 1.0]
["CDISCPILOT01", "QS", "01-701-1033", 4078.0, "DAITM38", "PLAN AND ORGANIZE HOUSEHOLD CHORES", "DAD", "LEISURE AND HOUSEWORK", "Y", "", "1", 1.0, "", "", "", "", "", 5.0, "WEEK 4", 28.0, "TREATMENT", "2014-04-14", 28.0]
["CDISCPILOT01", "QS", "01-701-1033", 4118.0, "DAITM38", "PLAN AND ORGANIZE HOUSEHOLD CHORES", "DAD", "LEISURE AND HOUSEWORK", "Y", "", "1", 1.0, "", "", "", "", "", 201.0, "RETRIEVAL", 168.0, "TREATMENT", "2014-09-15", 182.0]
["CDISCPILOT01", "QS", "01-701-1033", 4039.0, "DAITM39", "COMPLETE HOUSEHOLD CHORES", "DAD", "LEISURE AND HOUSEWORK", "Y", "", "1", 1.0, "", "", "", "Y", "", 3.0, "BASELINE", 1.0, "TREATMENT", "2014-03-18", 1.0]
["CDISCPILOT01", "QS", "01-701-1033", 4079.0, "DAITM39", "COMPLETE HOUSEHOLD CHORES", "DAD", "LEISURE AND HOUSEWORK", "Y", "", "1", 1.0, "", "", "", "", "", 5.0, "WEEK 4", 28.0, "TREATMENT", "2014-04-14", 28.0]
["CDISCPILOT01", "QS", "01-701-1033", 4119.0, "DAITM39", "COMPLETE HOUSEHOLD CHORES", "DAD", "LEISURE AND HOUSEWORK", "Y", "", "1", 1.0, "", "", "", "", "", 201.0, "RETRIEVAL", 168.0, "TREATMENT", "2014-09-15", 182.0]
["CDISCPILOT01", "QS", "01-701-1033", 4040.0, "DAITM40", "STAY SAFELY AT HOME BY HIMSELF/HERSELF", "DAD", "LEISURE AND HOUSEWORK", "Y", "", "1", 1.0, "", "", "", "Y", "", 3.0, "BASELINE", 1.0, "TREATMENT", "2014-03-18", 1.0]
["CDISCPILOT01", "QS", "01-701-1033", 4080.0, "DAITM40", "STAY SAFELY AT HOME BY HIMSELF/HERSELF", "DAD", "LEISURE AND HOUSEWORK", "Y", "", "1", 1.0, "", "", "", "", "", 5.0, "WEEK 4", 28.0, "TREATMENT", "2014-04-14", 28.0]
["CDISCPILOT01", "QS", "01-701-1033", 4120.0, "DAITM40", "STAY SAFELY AT HOME BY HIMSELF/HERSELF", "DAD", "LEISURE AND HOUSEWORK", "Y", "", "1", 1.0, "", "", "", "", "", 201.0, "RETRIEVAL", 168.0, "TREATMENT", "2014-09-15", 182.0]
["CDISCPILOT01", "QS", "01-701-1034", 4001.0, "DAITM01", "UNDERTAKE TO WASH HIMSELF/HERSELF", "DAD", "HYGIENE", "Y", "", "1", 1.0, "", "", "", "Y", "", 3.0, "BASELINE", 1.0, "TREATMENT", "2014-07-01", 1.0]
["CDISCPILOT01", "QS", "01-701-1034", 4041.0, "DAITM01", "UNDERTAKE TO WASH HIMSELF/HERSELF", "DAD", "HYGIENE", "Y", "", "1", 1.0, "", "", "", "", "", 8.0, "WEEK 8", 56.0, "TREATMENT", "2014-08-26", 57.0]
["CDISCPILOT01", "QS", "01-701-1034", 4081.0, "DAITM01", "UNDERTAKE TO WASH HIMSELF/HERSELF", "DAD", "HYGIENE", "Y", "", "1", 1.0, "", "", "", "", "", 10.0, "WEEK 16", 112.0, "TREATMENT", "2014-10-21", 113.0]
["CDISCPILOT01", "QS", "01-701-1034", 4121.0, "DAITM01", "UNDERTAKE TO WASH HIMSELF/HERSELF", "DAD", "HYGIENE", "Y", "", "1", 1.0, "", "", "", "", "", 12.0, "WEEK 24", 168.0, "TREATMENT", "2014-12-17", 170.0]
["CDISCPILOT01", "QS", "01-701-1034", 4002.0, "DAITM02", "UNDERTAKE TO BRUSH HIS/HER TEETH", "DAD", "HYGIENE", "Y", "", "1", 1.0, "", "", "", "Y", "", 3.0, "BASELINE", 1.0, "TREATMENT", "2014-07-01", 1.0]
["CDISCPILOT01", "QS", "01-701-1034", 4042.0, "DAITM02", "UNDERTAKE TO BRUSH HIS/HER TEETH", "DAD", "HYGIENE", "Y", "", "1", 1.0, "", "", "", "", "", 8.0, "WEEK 8", 56.0, "TREATMENT", "2014-08-26", 57.0]
["CDISCPILOT01", "QS", "01-701-1034", 4082.0, "DAITM02", "UNDERTAKE TO BRUSH HIS/HER TEETH", "DAD", "HYGIENE", "Y", "", "1", 1.0, "", "", "", "", "", 10.0, "WEEK 16", 112.0, "TREATMENT", "2014-10-21", 113.0]
["CDISCPILOT01", "QS", "01-701-1034", 4122.0, "DAITM02", "UNDERTAKE TO BRUSH HIS/HER TEETH", "DAD", "HYGIENE", "Y", "", "1", 1.0, "", "", "", "", "", 12.0, "WEEK 24", 168.0, "TREATMENT", "2014-12-17", 170.0]
["CDISCPILOT01", "QS", "01-701-1034", 4003.0, "DAITM03", "DECIDE TO CARE FOR HIS/HER HAIR", "DAD", "HYGIENE", "Y", "", "1", 1.0, "", "", "", "Y", "", 3.0, "BASELINE", 1.0, "TREATMENT", "2014-07-01", 1.0]
["CDISCPILOT01", "QS", "01-701-1034", 4043.0, "DAITM03", "DECIDE TO CARE FOR HIS/HER HAIR", "DAD", "HYGIENE", "Y", "", "1", 1.0, "", "", "", "", "", 8.0, "WEEK 8", 56.0, "TREATMENT", "2014-08-26", 57.0]
["CDISCPILOT01", "QS", "01-701-1034", 4083.0, "DAITM03", "DECIDE TO CARE FOR HIS/HER HAIR", "DAD", "HYGIENE", "Y", "", "1", 1.0, "", "", "", "", "", 10.0, "WEEK 16", 112.0, "TREATMENT", "2014-10-21", 113.0]
["CDISCPILOT01", "QS", "01-701-1034", 4123.0, "DAITM03", "DECIDE TO CARE FOR HIS/HER HAIR", "DAD", "HYGIENE", "Y", "", "1", 1.0, "", "", "", "", "", 12.0, "WEEK 24", 168.0, "TREATMENT", "2014-12-17", 170.0]
["CDISCPILOT01", "QS", "01-701-1034", 4004.0, "DAITM04", "PREPARE FOR WASHING, TAKING A BATH", "DAD", "HYGIENE", "Y", "", "1", 1.0, "", "", "", "Y", "", 3.0, "BASELINE", 1.0, "TREATMENT", "2014-07-01", 1.0]
["CDISCPILOT01", "QS", "01-701-1034", 4044.0, "DAITM04", "PREPARE FOR WASHING, TAKING A BATH", "DAD", "HYGIENE", "Y", "", "1", 1.0, "", "", "", "", "", 8.0, "WEEK 8", 56.0, "TREATMENT", "2014-08-26", 57.0]
["CDISCPILOT01", "QS", "01-701-1034", 4084.0, "DAITM04", "PREPARE FOR WASHING, TAKING A BATH", "DAD", "HYGIENE", "Y", "", "1", 1.0, "", "", "", "", "", 10.0, "WEEK 16", 112.0, "TREATMENT", "2014-10-21", 113.0]
["CDISCPILOT01", "QS", "01-701-1034", 4124.0, "DAITM04", "PREPARE FOR WASHING, TAKING A BATH", "DAD", "HYGIENE", "Y", "", "1", 1.0, "", "", "", "", "", 12.0, "WEEK 24", 168.0, "TREATMENT", "2014-12-17", 170.0]
["CDISCPILOT01", "QS", "01-701-1034", 4005.0, "DAITM05", "WASH AND DRY COMPLETELY SAFELY", "DAD", "HYGIENE", "Y", "", "1", 1.0, "", "", "", "Y", "", 3.0, "BASELINE", 1.0, "TREATMENT", "2014-07-01", 1.0]
["CDISCPILOT01", "QS", "01-701-1034", 4045.0, "DAITM05", "WASH AND DRY COMPLETELY SAFELY", "DAD", "HYGIENE", "Y", "", "1", 1.0, "", "", "", "", "", 8.0, "WEEK 8", 56.0, "TREATMENT", "2014-08-26", 57.0]
["CDISCPILOT01", "QS", "01-701-1034", 4085.0, "DAITM05", "WASH AND DRY COMPLETELY SAFELY", "DAD", "HYGIENE", "Y", "", "1", 1.0, "", "", "", "", "", 10.0, "WEEK 16", 112.0, "TREATMENT", "2014-10-21", 113.0]
["CDISCPILOT01", "QS", "01-701-1034", 4125.0, "DAITM05", "WASH AND DRY COMPLETELY SAFELY", "DAD", "HYGIENE", "Y", "", "1", 1.0, "", "", "", "", "", 12.0, "WEEK 24", 168.0, "TREATMENT", "2014-12-17", 170.0]
["CDISCPILOT01", "QS", "01-701-1034", 4006.0, "DAITM06", "BRUSH HIS/HER TEETH", "DAD", "HYGIENE", "Y", "", "1", 1.0, "", "", "", "Y", "", 3.0, "BASELINE", 1.0, "TREATMENT", "2014-07-01", 1.0]
["CDISCPILOT01", "QS", "01-701-1034", 4046.0, "DAITM06", "BRUSH HIS/HER TEETH", "DAD", "HYGIENE", "Y", "", "1", 1.0, "", "", "", "", "", 8.0, "WEEK 8", 56.0, "TREATMENT", "2014-08-26", 57.0]
["CDISCPILOT01", "QS", "01-701-1034", 4086.0, "DAITM06", "BRUSH HIS/HER TEETH", "DAD", "HYGIENE", "Y", "", "1", 1.0, "", "", "", "", "", 10.0, "WEEK 16", 112.0, "TREATMENT", "2014-10-21", 113.0]
["CDISCPILOT01", "QS", "01-701-1034", 4126.0, "DAITM06", "BRUSH HIS/HER TEETH", "DAD", "HYGIENE", "Y", "", "1", 1.0, "", "", "", "", "", 12.0, "WEEK 24", 168.0, "TREATMENT", "2014-12-17", 170.0]
["CDISCPILOT01", "QS", "01-701-1034", 4007.0, "DAITM07", "CARE FOR HIS/HER HAIR", "DAD", "HYGIENE", "Y", "", "1", 1.0, "", "", "", "Y", "", 3.0, "BASELINE", 1.0, "TREATMENT", "2014-07-01", 1.0]
["CDISCPILOT01", "QS", "01-701-1034", 4047.0, "DAITM07", "CARE FOR HIS/HER HAIR", "DAD", "HYGIENE", "Y", "", "1", 1.0, "", "", "", "", "", 8.0, "WEEK 8", 56.0, "TREATMENT", "2014-08-26", 57.0]
["CDISCPILOT01", "QS", "01-701-1034", 4087.0, "DAITM07", "CARE FOR HIS/HER HAIR", "DAD", "HYGIENE", "Y", "", "1", 1.0, "", "", "", "", "", 10.0, "WEEK 16", 112.0, "TREATMENT", "2014-10-21", 113.0]
["CDISCPILOT01", "QS", "01-701-1034", 4127.0, "DAITM07", "CARE FOR HIS/HER HAIR", "DAD", "HYGIENE", "Y", "", "1", 1.0, "", "", "", "", "", 12.0, "WEEK 24", 168.0, "TREATMENT", "2014-12-17", 170.0]
["CDISCPILOT01", "QS", "01-701-1034", 4008.0, "DAITM08", "UNDERTAKE TO DRESS HIMSELF/HERSELF", "DAD", "DRESSING", "Y", "", "1", 1.0, "", "", "", "Y", "", 3.0, "BASELINE", 1.0, "TREATMENT", "2014-07-01", 1.0]
["CDISCPILOT01", "QS", "01-701-1034", 4048.0, "DAITM08", "UNDERTAKE TO DRESS HIMSELF/HERSELF", "DAD", "DRESSING", "Y", "", "1", 1.0, "", "", "", "", "", 8.0, "WEEK 8", 56.0, "TREATMENT", "2014-08-26", 57.0]
["CDISCPILOT01", "QS", "01-701-1034", 4088.0, "DAITM08", "UNDERTAKE TO DRESS HIMSELF/HERSELF", "DAD", "DRESSING", "Y", "", "1", 1.0, "", "", "", "", "", 10.0, "WEEK 16", 112.0, "TREATMENT", "2014-10-21", 113.0]
["CDISCPILOT01", "QS", "01-701-1034", 4128.0, "DAITM08", "UNDERTAKE TO DRESS HIMSELF/HERSELF", "DAD", "DRESSING", "Y", "", "1", 1.0, "", "", "", "", "", 12.0, "WEEK 24", 168.0, "TREATMENT", "2014-12-17", 170.0]
["CDISCPILOT01", "QS", "01-701-1034", 4009.0, "DAITM09", "CHOOSE APPROPRIATE CLOTHING", "DAD", "DRESSING", "Y", "", "1", 1.0, "", "", "", "Y", "", 3.0, "BASELINE", 1.0, "TREATMENT", "2014-07-01", 1.0]
["CDISCPILOT01", "QS", "01-701-1034", 4049.0, "DAITM09", "CHOOSE APPROPRIATE CLOTHING", "DAD", "DRESSING", "Y", "", "1", 1.0, "", "", "", "", "", 8.0, "WEEK 8", 56.0, "TREATMENT", "2014-08-26", 57.0]
["CDISCPILOT01", "QS", "01-701-1034", 4089.0, "DAITM09", "CHOOSE APPROPRIATE CLOTHING", "DAD", "DRESSING", "Y", "", "1", 1.0, "", "", "", "", "", 10.0, "WEEK 16", 112.0, "TREATMENT", "2014-10-21", 113.0]
["CDISCPILOT01", "QS", "01-701-1034", 4129.0, "DAITM09", "CHOOSE APPROPRIATE CLOTHING", "DAD", "DRESSING", "Y", "", "1", 1.0, "", "", "", "", "", 12.0, "WEEK 24", 168.0, "TREATMENT", "2014-12-17", 170.0]
["CDISCPILOT01", "QS", "01-701-1034", 4010.0, "DAITM10", "DRESS HIMSELF/HERSELF", "DAD", "DRESSING", "Y", "", "1", 1.0, "", "", "", "Y", "", 3.0, "BASELINE", 1.0, "TREATMENT", "2014-07-01", 1.0]
["CDISCPILOT01", "QS", "01-701-1034", 4050.0, "DAITM10", "DRESS HIMSELF/HERSELF", "DAD", "DRESSING", "Y", "", "1", 1.0, "", "", "", "", "", 8.0, "WEEK 8", 56.0, "TREATMENT", "2014-08-26", 57.0]
["CDISCPILOT01", "QS", "01-701-1034", 4090.0, "DAITM10", "DRESS HIMSELF/HERSELF", "DAD", "DRESSING", "Y", "", "1", 1.0, "", "", "", "", "", 10.0, "WEEK 16", 112.0, "TREATMENT", "2014-10-21", 113.0]
["CDISCPILOT01", "QS", "01-701-1034", 4130.0, "DAITM10", "DRESS HIMSELF/HERSELF", "DAD", "DRESSING", "Y", "", "1", 1.0, "", "", "", "", "", 12.0, "WEEK 24", 168.0, "TREATMENT", "2014-12-17", 170.0]
["CDISCPILOT01", "QS", "01-701-1034", 4011.0, "DAITM11", "DRESS HIMSELF/HERSELF COMPLETELY", "DAD", "DRESSING", "Y", "", "1", 1.0, "", "", "", "Y", "", 3.0, "BASELINE", 1.0, "TREATMENT", "2014-07-01", 1.0]
["CDISCPILOT01", "QS", "01-701-1034", 4051.0, "DAITM11", "DRESS HIMSELF/HERSELF COMPLETELY", "DAD", "DRESSING", "Y", "", "1", 1.0, "", "", "", "", "", 8.0, "WEEK 8", 56.0, "TREATMENT", "2014-08-26", 57.0]
["CDISCPILOT01", "QS", "01-701-1034", 4091.0, "DAITM11", "DRESS HIMSELF/HERSELF COMPLETELY", "DAD", "DRESSING", "Y", "", "1", 1.0, "", "", "", "", "", 10.0, "WEEK 16", 112.0, "TREATMENT", "2014-10-21", 113.0]
["CDISCPILOT01", "QS", "01-701-1034", 4131.0, "DAITM11", "DRESS HIMSELF/HERSELF COMPLETELY", "DAD", "DRESSING", "Y", "", "1", 1.0, "", "", "", "", "", 12.0, "WEEK 24", 168.0, "TREATMENT", "2014-12-17", 170.0]
["CDISCPILOT01", "QS", "01-701-1034", 4012.0, "DAITM12", "UNDRESS HIMSELF/HERSELF COMPLETELY", "DAD", "DRESSING", "Y", "", "1", 1.0, "", "", "", "Y", "", 3.0, "BASELINE", 1.0, "TREATMENT", "2014-07-01", 1.0]
["CDISCPILOT01", "QS", "01-701-1034", 4052.0, "DAITM12", "UNDRESS HIMSELF/HERSELF COMPLETELY", "DAD", "DRESSING", "Y", "", "1", 1.0, "", "", "", "", "", 8.0, "WEEK 8", 56.0, "TREATMENT", "2014-08-26", 57.0]
["CDISCPILOT01", "QS", "01-701-1034", 4092.0, "DAITM12", "UNDRESS HIMSELF/HERSELF COMPLETELY", "DAD", "DRESSING", "Y", "", "1", 1.0, "", "", "", "", "", 10.0, "WEEK 16", 112.0, "TREATMENT", "2014-10-21", 113.0]
["CDISCPILOT01", "QS", "01-701-1034", 4132.0, "DAITM12", "UNDRESS HIMSELF/HERSELF COMPLETELY", "DAD", "DRESSING", "Y", "", "1", 1.0, "", "", "", "", "", 12.0, "WEEK 24", 168.0, "TREATMENT", "2014-12-17", 170.0]
["CDISCPILOT01", "QS", "01-701-1034", 4013.0, "DAITM13", "DECIDE TO USE THE TOILET AT APPROPRIATE", "DAD", "CONTINENCE", "Y", "", "1", 1.0, "", "", "", "Y", "", 3.0, "BASELINE", 1.0, "TREATMENT", "2014-07-01", 1.0]
["CDISCPILOT01", "QS", "01-701-1034", 4053.0, "DAITM13", "DECIDE TO USE THE TOILET AT APPROPRIATE", "DAD", "CONTINENCE", "Y", "", "1", 1.0, "", "", "", "", "", 8.0, "WEEK 8", 56.0, "TREATMENT", "2014-08-26", 57.0]
["CDISCPILOT01", "QS", "01-701-1034", 4093.0, "DAITM13", "DECIDE TO USE THE TOILET AT APPROPRIATE", "DAD", "CONTINENCE", "Y", "", "1", 1.0, "", "", "", "", "", 10.0, "WEEK 16", 112.0, "TREATMENT", "2014-10-21", 113.0]
["CDISCPILOT01", "QS", "01-701-1034", 4133.0, "DAITM13", "DECIDE TO USE THE TOILET AT APPROPRIATE", "DAD", "CONTINENCE", "Y", "", "1", 1.0, "", "", "", "", "", 12.0, "WEEK 24", 168.0, "TREATMENT", "2014-12-17", 170.0]
["CDISCPILOT01", "QS", "01-701-1034", 4014.0, "DAITM14", "USE THE TOILET WITHOUT \"ACCIDENTS\"", "DAD", "CONTINENCE", "Y", "", "1", 1.0, "", "", "", "Y", "", 3.0, "BASELINE", 1.0, "TREATMENT", "2014-07-01", 1.0]
["CDISCPILOT01", "QS", "01-701-1034", 4054.0, "DAITM14", "USE THE TOILET WITHOUT \"ACCIDENTS\"", "DAD", "CONTINENCE", "Y", "", "1", 1.0, "", "", "", "", "", 8.0, "WEEK 8", 56.0, "TREATMENT", "2014-08-26", 57.0]
["CDISCPILOT01", "QS", "01-701-1034", 4094.0, "DAITM14", "USE THE TOILET WITHOUT \"ACCIDENTS\"", "DAD", "CONTINENCE", "Y", "", "1", 1.0, "", "", "", "", "", 10.0, "WEEK 16", 112.0, "TREATMENT", "2014-10-21", 113.0]
["CDISCPILOT01", "QS", "01-701-1034", 4134.0, "DAITM14", "USE THE TOILET WITHOUT \"ACCIDENTS\"", "DAD", "CONTINENCE", "Y", "", "1", 1.0, "", "", "", "", "", 12.0, "WEEK 24", 168.0, "TREATMENT", "2014-12-17", 170.0]
["CDISCPILOT01", "QS", "01-701-1034", 4015.0, "DAITM15", "DECIDE THAT HE/SHE NEEDS TO EAT", "DAD", "EATING", "Y", "", "1", 1.0, "", "", "", "Y", "", 3.0, "BASELINE", 1.0, "TREATMENT", "2014-07-01", 1.0]
["CDISCPILOT01", "QS", "01-701-1034", 4055.0, "DAITM15", "DECIDE THAT HE/SHE NEEDS TO EAT", "DAD", "EATING", "Y", "", "1", 1.0, "", "", "", "", "", 8.0, "WEEK 8", 56.0, "TREATMENT", "2014-08-26", 57.0]
["CDISCPILOT01", "QS", "01-701-1034", 4095.0, "DAITM15", "DECIDE THAT HE/SHE NEEDS TO EAT", "DAD", "EATING", "Y", "", "1", 1.0, "", "", "", "", "", 10.0, "WEEK 16", 112.0, "TREATMENT", "2014-10-21", 113.0]
["CDISCPILOT01", "QS", "01-701-1034", 4135.0, "DAITM15", "DECIDE THAT HE/SHE NEEDS TO EAT", "DAD", "EATING", "Y", "", "1", 1.0, "", "", "", "", "", 12.0, "WEEK 24", 168.0, "TREATMENT", "2014-12-17", 170.0]
["CDISCPILOT01", "QS", "01-701-1034", 4016.0, "DAITM16", "CHOOSE APPROPRIATE UTENSILS", "DAD", "EATING", "Y", "", "1", 1.0, "", "", "", "Y", "", 3.0, "BASELINE", 1.0, "TREATMENT", "2014-07-01", 1.0]
["CDISCPILOT01", "QS", "01-701-1034", 4056.0, "DAITM16", "CHOOSE APPROPRIATE UTENSILS", "DAD", "EATING", "Y", "", "1", 1.0, "", "", "", "", "", 8.0, "WEEK 8", 56.0, "TREATMENT", "2014-08-26", 57.0]
["CDISCPILOT01", "QS", "01-701-1034", 4096.0, "DAITM16", "CHOOSE APPROPRIATE UTENSILS", "DAD", "EATING", "Y", "", "1", 1.0, "", "", "", "", "", 10.0, "WEEK 16", 112.0, "TREATMENT", "2014-10-21", 113.0]
["CDISCPILOT01", "QS", "01-701-1034", 4136.0, "DAITM16", "CHOOSE APPROPRIATE UTENSILS", "DAD", "EATING", "Y", "", "1", 1.0, "", "", "", "", "", 12.0, "WEEK 24", 168.0, "TREATMENT", "2014-12-17", 170.0]
["CDISCPILOT01", "QS", "01-701-1034", 4017.0, "DAITM17", "EAT HIS/HER MEALS AT A NORMAL PACE", "DAD", "EATING", "Y", "", "1", 1.0, "", "", "", "Y", "", 3.0, "BASELINE", 1.0, "TREATMENT", "2014-07-01", 1.0]
["CDISCPILOT01", "QS", "01-701-1034", 4057.0, "DAITM17", "EAT HIS/HER MEALS AT A NORMAL PACE", "DAD", "EATING", "Y", "", "1", 1.0, "", "", "", "", "", 8.0, "WEEK 8", 56.0, "TREATMENT", "2014-08-26", 57.0]
["CDISCPILOT01", "QS", "01-701-1034", 4097.0, "DAITM17", "EAT HIS/HER MEALS AT A NORMAL PACE", "DAD", "EATING", "Y", "", "1", 1.0, "", "", "", "", "", 10.0, "WEEK 16", 112.0, "TREATMENT", "2014-10-21", 113.0]
["CDISCPILOT01", "QS", "01-701-1034", 4137.0, "DAITM17", "EAT HIS/HER MEALS AT A NORMAL PACE", "DAD", "EATING", "Y", "", "1", 1.0, "", "", "", "", "", 12.0, "WEEK 24", 168.0, "TREATMENT", "2014-12-17", 170.0]
["CDISCPILOT01", "QS", "01-701-1034", 4018.0, "DAITM18", "UNDERTAKE TO PREPARE A LIGHT MEAL", "DAD", "MEAL PREPARATION", "Y", "", "1", 1.0, "", "", "", "Y", "", 3.0, "BASELINE", 1.0, "TREATMENT", "2014-07-01", 1.0]
["CDISCPILOT01", "QS", "01-701-1034", 4058.0, "DAITM18", "UNDERTAKE TO PREPARE A LIGHT MEAL", "DAD", "MEAL PREPARATION", "Y", "", "1", 1.0, "", "", "", "", "", 8.0, "WEEK 8", 56.0, "TREATMENT", "2014-08-26", 57.0]
["CDISCPILOT01", "QS", "01-701-1034", 4098.0, "DAITM18", "UNDERTAKE TO PREPARE A LIGHT MEAL", "DAD", "MEAL PREPARATION", "Y", "", "1", 1.0, "", "", "", "", "", 10.0, "WEEK 16", 112.0, "TREATMENT", "2014-10-21", 113.0]
["CDISCPILOT01", "QS", "01-701-1034", 4138.0, "DAITM18", "UNDERTAKE TO PREPARE A LIGHT MEAL", "DAD", "MEAL PREPARATION", "Y", "", "1", 1.0, "", "", "", "", "", 12.0, "WEEK 24", 168.0, "TREATMENT", "2014-12-17", 170.0]
["CDISCPILOT01", "QS", "01-701-1034", 4019.0, "DAITM19", "ADEQUATELY PLAN A LIGHT MEAL OR SNACK", "DAD", "MEAL PREPARATION", "Y", "", "1", 1.0, "", "", "", "Y", "", 3.0, "BASELINE", 1.0, "TREATMENT", "2014-07-01", 1.0]
["CDISCPILOT01", "QS", "01-701-1034", 4059.0, "DAITM19", "ADEQUATELY PLAN A LIGHT MEAL OR SNACK", "DAD", "MEAL PREPARATION", "Y", "", "1", 1.0, "", "", "", "", "", 8.0, "WEEK 8", 56.0, "TREATMENT", "2014-08-26", 57.0]
["CDISCPILOT01", "QS", "01-701-1034", 4099.0, "DAITM19", "ADEQUATELY PLAN A LIGHT MEAL OR SNACK", "DAD", "MEAL PREPARATION", "Y", "", "1", 1.0, "", "", "", "", "", 10.0, "WEEK 16", 112.0, "TREATMENT", "2014-10-21", 113.0]
["CDISCPILOT01", "QS", "01-701-1034", 4139.0, "DAITM19", "ADEQUATELY PLAN A LIGHT MEAL OR SNACK", "DAD", "MEAL PREPARATION", "Y", "", "1", 1.0, "", "", "", "", "", 12.0, "WEEK 24", 168.0, "TREATMENT", "2014-12-17", 170.0]
["CDISCPILOT01", "QS", "01-701-1034", 4020.0, "DAITM20", "PREPARE OR COOK A LIGHT MEAL OR A SNACK", "DAD", "MEAL PREPARATION", "Y", "", "1", 1.0, "", "", "", "Y", "", 3.0, "BASELINE", 1.0, "TREATMENT", "2014-07-01", 1.0]
["CDISCPILOT01", "QS", "01-701-1034", 4060.0, "DAITM20", "PREPARE OR COOK A LIGHT MEAL OR A SNACK", "DAD", "MEAL PREPARATION", "Y", "", "1", 1.0, "", "", "", "", "", 8.0, "WEEK 8", 56.0, "TREATMENT", "2014-08-26", 57.0]
["CDISCPILOT01", "QS", "01-701-1034", 4100.0, "DAITM20", "PREPARE OR COOK A LIGHT MEAL OR A SNACK", "DAD", "MEAL PREPARATION", "Y", "", "1", 1.0, "", "", "", "", "", 10.0, "WEEK 16", 112.0, "TREATMENT", "2014-10-21", 113.0]
["CDISCPILOT01", "QS", "01-701-1034", 4140.0, "DAITM20", "PREPARE OR COOK A LIGHT MEAL OR A SNACK", "DAD", "MEAL PREPARATION", "Y", "", "1", 1.0, "", "", "", "", "", 12.0, "WEEK 24", 168.0, "TREATMENT", "2014-12-17", 170.0]
["CDISCPILOT01", "QS", "01-701-1034", 4021.0, "DAITM21", "ATTEMPT TO TELEPHONE SOMEONE", "DAD", "TELEPHONING", "Y", "", "1", 1.0, "", "", "", "Y", "", 3.0, "BASELINE", 1.0, "TREATMENT", "2014-07-01", 1.0]
["CDISCPILOT01", "QS", "01-701-1034", 4061.0, "DAITM21", "ATTEMPT TO TELEPHONE SOMEONE", "DAD", "TELEPHONING", "Y", "", "1", 1.0, "", "", "", "", "", 8.0, "WEEK 8", 56.0, "TREATMENT", "2014-08-26", 57.0]
["CDISCPILOT01", "QS", "01-701-1034", 4101.0, "DAITM21", "ATTEMPT TO TELEPHONE SOMEONE", "DAD", "TELEPHONING", "Y", "", "1", 1.0, "", "", "", "", "", 10.0, "WEEK 16", 112.0, "TREATMENT", "2014-10-21", 113.0]
["CDISCPILOT01", "QS", "01-701-1034", 4141.0, "DAITM21", "ATTEMPT TO TELEPHONE SOMEONE", "DAD", "TELEPHONING", "Y", "", "1", 1.0, "", "", "", "", "", 12.0, "WEEK 24", 168.0, "TREATMENT", "2014-12-17", 170.0]
["CDISCPILOT01", "QS", "01-701-1034", 4022.0, "DAITM22", "FIND AND DIAL A TELEPHONE NUMBER CORRECT", "DAD", "TELEPHONING", "Y", "", "1", 1.0, "", "", "", "Y", "", 3.0, "BASELINE", 1.0, "TREATMENT", "2014-07-01", 1.0]
["CDISCPILOT01", "QS", "01-701-1034", 4062.0, "DAITM22", "FIND AND DIAL A TELEPHONE NUMBER CORRECT", "DAD", "TELEPHONING", "Y", "", "1", 1.0, "", "", "", "", "", 8.0, "WEEK 8", 56.0, "TREATMENT", "2014-08-26", 57.0]
["CDISCPILOT01", "QS", "01-701-1034", 4102.0, "DAITM22", "FIND AND DIAL A TELEPHONE NUMBER CORRECT", "DAD", "TELEPHONING", "Y", "", "1", 1.0, "", "", "", "", "", 10.0, "WEEK 16", 112.0, "TREATMENT", "2014-10-21", 113.0]
["CDISCPILOT01", "QS", "01-701-1034", 4142.0, "DAITM22", "FIND AND DIAL A TELEPHONE NUMBER CORRECT", "DAD", "TELEPHONING", "Y", "", "1", 1.0, "", "", "", "", "", 12.0, "WEEK 24", 168.0, "TREATMENT", "2014-12-17", 170.0]
["CDISCPILOT01", "QS", "01-701-1034", 4023.0, "DAITM23", "CARRY OUT A TELEPHONE CONVERSATION", "DAD", "TELEPHONING", "Y", "", "1", 1.0, "", "", "", "Y", "", 3.0, "BASELINE", 1.0, "TREATMENT", "2014-07-01", 1.0]
["CDISCPILOT01", "QS", "01-701-1034", 4063.0, "DAITM23", "CARRY OUT A TELEPHONE CONVERSATION", "DAD", "TELEPHONING", "Y", "", "1", 1.0, "", "", "", "", "", 8.0, "WEEK 8", 56.0, "TREATMENT", "2014-08-26", 57.0]
["CDISCPILOT01", "QS", "01-701-1034", 4103.0, "DAITM23", "CARRY OUT A TELEPHONE CONVERSATION", "DAD", "TELEPHONING", "Y", "", "1", 1.0, "", "", "", "", "", 10.0, "WEEK 16", 112.0, "TREATMENT", "2014-10-21", 113.0]
["CDISCPILOT01", "QS", "01-701-1034", 4143.0, "DAITM23", "CARRY OUT A TELEPHONE CONVERSATION", "DAD", "TELEPHONING", "Y", "", "1", 1.0, "", "", "", "", "", 12.0, "WEEK 24", 168.0, "TREATMENT", "2014-12-17", 170.0]
["CDISCPILOT01", "QS", "01-701-1034", 4024.0, "DAITM24", "WRITE AND CONVEY A TELEPHONE MESSAGE", "DAD", "TELEPHONING", "Y", "", "1", 1.0, "", "", "", "Y", "", 3.0, "BASELINE", 1.0, "TREATMENT", "2014-07-01", 1.0]
["CDISCPILOT01", "QS", "01-701-1034", 4064.0, "DAITM24", "WRITE AND CONVEY A TELEPHONE MESSAGE", "DAD", "TELEPHONING", "Y", "", "1", 1.0, "", "", "", "", "", 8.0, "WEEK 8", 56.0, "TREATMENT", "2014-08-26", 57.0]
["CDISCPILOT01", "QS", "01-701-1034", 4104.0, "DAITM24", "WRITE AND CONVEY A TELEPHONE MESSAGE", "DAD", "TELEPHONING", "Y", "", "1", 1.0, "", "", "", "", "", 10.0, "WEEK 16", 112.0, "TREATMENT", "2014-10-21", 113.0]
["CDISCPILOT01", "QS", "01-701-1034", 4144.0, "DAITM24", "WRITE AND CONVEY A TELEPHONE MESSAGE", "DAD", "TELEPHONING", "Y", "", "1", 1.0, "", "", "", "", "", 12.0, "WEEK 24", 168.0, "TREATMENT", "2014-12-17", 170.0]
["CDISCPILOT01", "QS", "01-701-1034", 4025.0, "DAITM25", "UNDERTAKE TO GO OUT", "DAD", "GOING ON AN OUTING", "Y", "", "1", 1.0, "", "", "", "Y", "", 3.0, "BASELINE", 1.0, "TREATMENT", "2014-07-01", 1.0]
["CDISCPILOT01", "QS", "01-701-1034", 4065.0, "DAITM25", "UNDERTAKE TO GO OUT", "DAD", "GOING ON AN OUTING", "Y", "", "1", 1.0, "", "", "", "", "", 8.0, "WEEK 8", 56.0, "TREATMENT", "2014-08-26", 57.0]
["CDISCPILOT01", "QS", "01-701-1034", 4105.0, "DAITM25", "UNDERTAKE TO GO OUT", "DAD", "GOING ON AN OUTING", "Y", "", "1", 1.0, "", "", "", "", "", 10.0, "WEEK 16", 112.0, "TREATMENT", "2014-10-21", 113.0]
["CDISCPILOT01", "QS", "01-701-1034", 4145.0, "DAITM25", "UNDERTAKE TO GO OUT", "DAD", "GOING ON AN OUTING", "Y", "", "1", 1.0, "", "", "", "", "", 12.0, "WEEK 24", 168.0, "TREATMENT", "2014-12-17", 170.0]
["CDISCPILOT01", "QS", "01-701-1034", 4026.0, "DAITM26", "ADEQUATELY ORGANIZE AN OUTING", "DAD", "GOING ON AN OUTING", "Y", "", "1", 1.0, "", "", "", "Y", "", 3.0, "BASELINE", 1.0, "TREATMENT", "2014-07-01", 1.0]
["CDISCPILOT01", "QS", "01-701-1034", 4066.0, "DAITM26", "ADEQUATELY ORGANIZE AN OUTING", "DAD", "GOING ON AN OUTING", "Y", "", "1", 1.0, "", "", "", "", "", 8.0, "WEEK 8", 56.0, "TREATMENT", "2014-08-26", 57.0]
["CDISCPILOT01", "QS", "01-701-1034", 4106.0, "DAITM26", "ADEQUATELY ORGANIZE AN OUTING", "DAD", "GOING ON AN OUTING", "Y", "", "1", 1.0, "", "", "", "", "", 10.0, "WEEK 16", 112.0, "TREATMENT", "2014-10-21", 113.0]
["CDISCPILOT01", "QS", "01-701-1034", 4146.0, "DAITM26", "ADEQUATELY ORGANIZE AN OUTING", "DAD", "GOING ON AN OUTING", "Y", "", "1", 1.0, "", "", "", "", "", 12.0, "WEEK 24", 168.0, "TREATMENT", "2014-12-17", 170.0]
["CDISCPILOT01", "QS", "01-701-1034", 4027.0, "DAITM27", "GO OUT AND REACH A FAMILIAR DESTINATION", "DAD", "GOING ON AN OUTING", "Y", "", "1", 1.0, "", "", "", "Y", "", 3.0, "BASELINE", 1.0, "TREATMENT", "2014-07-01", 1.0]
["CDISCPILOT01", "QS", "01-701-1034", 4067.0, "DAITM27", "GO OUT AND REACH A FAMILIAR DESTINATION", "DAD", "GOING ON AN OUTING", "Y", "", "1", 1.0, "", "", "", "", "", 8.0, "WEEK 8", 56.0, "TREATMENT", "2014-08-26", 57.0]
["CDISCPILOT01", "QS", "01-701-1034", 4107.0, "DAITM27", "GO OUT AND REACH A FAMILIAR DESTINATION", "DAD", "GOING ON AN OUTING", "Y", "", "1", 1.0, "", "", "", "", "", 10.0, "WEEK 16", 112.0, "TREATMENT", "2014-10-21", 113.0]
["CDISCPILOT01", "QS", "01-701-1034", 4147.0, "DAITM27", "GO OUT AND REACH A FAMILIAR DESTINATION", "DAD", "GOING ON AN OUTING", "Y", "", "1", 1.0, "", "", "", "", "", 12.0, "WEEK 24", 168.0, "TREATMENT", "2014-12-17", 170.0]
["CDISCPILOT01", "QS", "01-701-1034", 4028.0, "DAITM28", "SAFELY TAKE CAR, BUS, TAXI", "DAD", "GOING ON AN OUTING", "Y", "", "1", 1.0, "", "", "", "Y", "", 3.0, "BASELINE", 1.0, "TREATMENT", "2014-07-01", 1.0]
["CDISCPILOT01", "QS", "01-701-1034", 4068.0, "DAITM28", "SAFELY TAKE CAR, BUS, TAXI", "DAD", "GOING ON AN OUTING", "Y", "", "1", 1.0, "", "", "", "", "", 8.0, "WEEK 8", 56.0, "TREATMENT", "2014-08-26", 57.0]
["CDISCPILOT01", "QS", "01-701-1034", 4108.0, "DAITM28", "SAFELY TAKE CAR, BUS, TAXI", "DAD", "GOING ON AN OUTING", "Y", "", "1", 1.0, "", "", "", "", "", 10.0, "WEEK 16", 112.0, "TREATMENT", "2014-10-21", 113.0]
["CDISCPILOT01", "QS", "01-701-1034", 4148.0, "DAITM28", "SAFELY TAKE CAR, BUS, TAXI", "DAD", "GOING ON AN OUTING", "Y", "", "1", 1.0, "", "", "", "", "", 12.0, "WEEK 24", 168.0, "TREATMENT", "2014-12-17", 170.0]
["CDISCPILOT01", "QS", "01-701-1034", 4029.0, "DAITM29", "RETURN FROM THE STORE", "DAD", "GOING ON AN OUTING", "Y", "", "1", 1.0, "", "", "", "Y", "", 3.0, "BASELINE", 1.0, "TREATMENT", "2014-07-01", 1.0]
["CDISCPILOT01", "QS", "01-701-1034", 4069.0, "DAITM29", "RETURN FROM THE STORE", "DAD", "GOING ON AN OUTING", "Y", "", "1", 1.0, "", "", "", "", "", 8.0, "WEEK 8", 56.0, "TREATMENT", "2014-08-26", 57.0]
["CDISCPILOT01", "QS", "01-701-1034", 4109.0, "DAITM29", "RETURN FROM THE STORE", "DAD", "GOING ON AN OUTING", "Y", "", "1", 1.0, "", "", "", "", "", 10.0, "WEEK 16", 112.0, "TREATMENT", "2014-10-21", 113.0]
["CDISCPILOT01", "QS", "01-701-1034", 4149.0, "DAITM29", "RETURN FROM THE STORE", "DAD", "GOING ON AN OUTING", "Y", "", "1", 1.0, "", "", "", "", "", 12.0, "WEEK 24", 168.0, "TREATMENT", "2014-12-17", 170.0]
["CDISCPILOT01", "QS", "01-701-1034", 4030.0, "DAITM30", "INTEREST IN HIS/HER PERSONAL AFFAIRS", "DAD", "FINANCE AND CORRESPONDE", "Y", "", "1", 1.0, "", "", "", "Y", "", 3.0, "BASELINE", 1.0, "TREATMENT", "2014-07-01", 1.0]
["CDISCPILOT01", "QS", "01-701-1034", 4070.0, "DAITM30", "INTEREST IN HIS/HER PERSONAL AFFAIRS", "DAD", "FINANCE AND CORRESPONDE", "Y", "", "1", 1.0, "", "", "", "", "", 8.0, "WEEK 8", 56.0, "TREATMENT", "2014-08-26", 57.0]
["CDISCPILOT01", "QS", "01-701-1034", 4110.0, "DAITM30", "INTEREST IN HIS/HER PERSONAL AFFAIRS", "DAD", "FINANCE AND CORRESPONDE", "Y", "", "1", 1.0, "", "", "", "", "", 10.0, "WEEK 16", 112.0, "TREATMENT", "2014-10-21", 113.0]
["CDISCPILOT01", "QS", "01-701-1034", 4150.0, "DAITM30", "INTEREST IN HIS/HER PERSONAL AFFAIRS", "DAD", "FINANCE AND CORRESPONDE", "Y", "", "1", 1.0, "", "", "", "", "", 12.0, "WEEK 24", 168.0, "TREATMENT", "2014-12-17", 170.0]
["CDISCPILOT01", "QS", "01-701-1034", 4031.0, "DAITM31", "PAY HIS/HER BILLS", "DAD", "FINANCE AND CORRESPONDE", "Y", "", "1", 1.0, "", "", "", "Y", "", 3.0, "BASELINE", 1.0, "TREATMENT", "2014-07-01", 1.0]
["CDISCPILOT01", "QS", "01-701-1034", 4071.0, "DAITM31", "PAY HIS/HER BILLS", "DAD", "FINANCE AND CORRESPONDE", "Y", "", "1", 1.0, "", "", "", "", "", 8.0, "WEEK 8", 56.0, "TREATMENT", "2014-08-26", 57.0]
["CDISCPILOT01", "QS", "01-701-1034", 4111.0, "DAITM31", "PAY HIS/HER BILLS", "DAD", "FINANCE AND CORRESPONDE", "Y", "", "1", 1.0, "", "", "", "", "", 10.0, "WEEK 16", 112.0, "TREATMENT", "2014-10-21", 113.0]
["CDISCPILOT01", "QS", "01-701-1034", 4151.0, "DAITM31", "PAY HIS/HER BILLS", "DAD", "FINANCE AND CORRESPONDE", "Y", "", "1", 1.0, "", "", "", "", "", 12.0, "WEEK 24", 168.0, "TREATMENT", "2014-12-17", 170.0]
["CDISCPILOT01", "QS", "01-701-1034", 4032.0, "DAITM32", "ORGANIZE HIS/HER CORRESPONDENCE", "DAD", "FINANCE AND CORRESPONDE", "Y", "", "1", 1.0, "", "", "", "Y", "", 3.0, "BASELINE", 1.0, "TREATMENT", "2014-07-01", 1.0]
["CDISCPILOT01", "QS", "01-701-1034", 4072.0, "DAITM32", "ORGANIZE HIS/HER CORRESPONDENCE", "DAD", "FINANCE AND CORRESPONDE", "Y", "", "1", 1.0, "", "", "", "", "", 8.0, "WEEK 8", 56.0, "TREATMENT", "2014-08-26", 57.0]
["CDISCPILOT01", "QS", "01-701-1034", 4112.0, "DAITM32", "ORGANIZE HIS/HER CORRESPONDENCE", "DAD", "FINANCE AND CORRESPONDE", "Y", "", "1", 1.0, "", "", "", "", "", 10.0, "WEEK 16", 112.0, "TREATMENT", "2014-10-21", 113.0]
["CDISCPILOT01", "QS", "01-701-1034", 4152.0, "DAITM32", "ORGANIZE HIS/HER CORRESPONDENCE", "DAD", "FINANCE AND CORRESPONDE", "Y", "", "1", 1.0, "", "", "", "", "", 12.0, "WEEK 24", 168.0, "TREATMENT", "2014-12-17", 170.0]
["CDISCPILOT01", "QS", "01-701-1034", 4033.0, "DAITM33", "HANDLE ADEQUATELY HIS/HER MONEY", "DAD", "FINANCE AND CORRESPONDE", "Y", "", "1", 1.0, "", "", "", "Y", "", 3.0, "BASELINE", 1.0, "TREATMENT", "2014-07-01", 1.0]
["CDISCPILOT01", "QS", "01-701-1034", 4073.0, "DAITM33", "HANDLE ADEQUATELY HIS/HER MONEY", "DAD", "FINANCE AND CORRESPONDE", "Y", "", "1", 1.0, "", "", "", "", "", 8.0, "WEEK 8", 56.0, "TREATMENT", "2014-08-26", 57.0]
["CDISCPILOT01", "QS", "01-701-1034", 4113.0, "DAITM33", "HANDLE ADEQUATELY HIS/HER MONEY", "DAD", "FINANCE AND CORRESPONDE", "Y", "", "1", 1.0, "", "", "", "", "", 10.0, "WEEK 16", 112.0, "TREATMENT", "2014-10-21", 113.0]
["CDISCPILOT01", "QS", "01-701-1034", 4153.0, "DAITM33", "HANDLE ADEQUATELY HIS/HER MONEY", "DAD", "FINANCE AND CORRESPONDE", "Y", "", "1", 1.0, "", "", "", "", "", 12.0, "WEEK 24", 168.0, "TREATMENT", "2014-12-17", 170.0]
["CDISCPILOT01", "QS", "01-701-1034", 4034.0, "DAITM34", "DECIDE TO TAKE HIS/HER MEDICATIONS", "DAD", "MEDICATIONS", "Y", "", "1", 1.0, "", "", "", "Y", "", 3.0, "BASELINE", 1.0, "TREATMENT", "2014-07-01", 1.0]
["CDISCPILOT01", "QS", "01-701-1034", 4074.0, "DAITM34", "DECIDE TO TAKE HIS/HER MEDICATIONS", "DAD", "MEDICATIONS", "Y", "", "1", 1.0, "", "", "", "", "", 8.0, "WEEK 8", 56.0, "TREATMENT", "2014-08-26", 57.0]
["CDISCPILOT01", "QS", "01-701-1034", 4114.0, "DAITM34", "DECIDE TO TAKE HIS/HER MEDICATIONS", "DAD", "MEDICATIONS", "Y", "", "1", 1.0, "", "", "", "", "", 10.0, "WEEK 16", 112.0, "TREATMENT", "2014-10-21", 113.0]
["CDISCPILOT01", "QS", "01-701-1034", 4154.0, "DAITM34", "DECIDE TO TAKE HIS/HER MEDICATIONS", "DAD", "MEDICATIONS", "Y", "", "1", 1.0, "", "", "", "", "", 12.0, "WEEK 24", 168.0, "TREATMENT", "2014-12-17", 170.0]
["CDISCPILOT01", "QS", "01-701-1034", 4035.0, "DAITM35", "TAKE HIS/HER MEDICATIONS AS PRESCRIBED", "DAD", "MEDICATIONS", "Y", "", "1", 1.0, "", "", "", "Y", "", 3.0, "BASELINE", 1.0, "TREATMENT", "2014-07-01", 1.0]
["CDISCPILOT01", "QS", "01-701-1034", 4075.0, "DAITM35", "TAKE HIS/HER MEDICATIONS AS PRESCRIBED", "DAD", "MEDICATIONS", "Y", "", "1", 1.0, "", "", "", "", "", 8.0, "WEEK 8", 56.0, "TREATMENT", "2014-08-26", 57.0]
["CDISCPILOT01", "QS", "01-701-1034", 4115.0, "DAITM35", "TAKE HIS/HER MEDICATIONS AS PRESCRIBED", "DAD", "MEDICATIONS", "Y", "", "1", 1.0, "", "", "", "", "", 10.0, "WEEK 16", 112.0, "TREATMENT", "2014-10-21", 113.0]
["CDISCPILOT01", "QS", "01-701-1034", 4155.0, "DAITM35", "TAKE HIS/HER MEDICATIONS AS PRESCRIBED", "DAD", "MEDICATIONS", "Y", "", "1", 1.0, "", "", "", "", "", 12.0, "WEEK 24", 168.0, "TREATMENT", "2014-12-17", 170.0]
["CDISCPILOT01", "QS", "01-701-1034", 4036.0, "DAITM36", "SHOW AN INTEREST IN LEISURE ACTIVITY", "DAD", "LEISURE AND HOUSEWORK", "Y", "", "1", 1.0, "", "", "", "Y", "", 3.0, "BASELINE", 1.0, "TREATMENT", "2014-07-01", 1.0]
["CDISCPILOT01", "QS", "01-701-1034", 4076.0, "DAITM36", "SHOW AN INTEREST IN LEISURE ACTIVITY", "DAD", "LEISURE AND HOUSEWORK", "Y", "", "1", 1.0, "", "", "", "", "", 8.0, "WEEK 8", 56.0, "TREATMENT", "2014-08-26", 57.0]
["CDISCPILOT01", "QS", "01-701-1034", 4116.0, "DAITM36", "SHOW AN INTEREST IN LEISURE ACTIVITY", "DAD", "LEISURE AND HOUSEWORK", "Y", "", "1", 1.0, "", "", "", "", "", 10.0, "WEEK 16", 112.0, "TREATMENT", "2014-10-21", 113.0]
["CDISCPILOT01", "QS", "01-701-1034", 4156.0, "DAITM36", "SHOW AN INTEREST IN LEISURE ACTIVITY", "DAD", "LEISURE AND HOUSEWORK", "Y", "", "1", 1.0, "", "", "", "", "", 12.0, "WEEK 24", 168.0, "TREATMENT", "2014-12-17", 170.0]
["CDISCPILOT01", "QS", "01-701-1034", 4037.0, "DAITM37", "TAKE AN INTEREST IN HOUSEHOLD CHORES", "DAD", "LEISURE AND HOUSEWORK", "Y", "", "1", 1.0, "", "", "", "Y", "", 3.0, "BASELINE", 1.0, "TREATMENT", "2014-07-01", 1.0]
["CDISCPILOT01", "QS", "01-701-1034", 4077.0, "DAITM37", "TAKE AN INTEREST IN HOUSEHOLD CHORES", "DAD", "LEISURE AND HOUSEWORK", "Y", "", "1", 1.0, "", "", "", "", "", 8.0, "WEEK 8", 56.0, "TREATMENT", "2014-08-26", 57.0]
["CDISCPILOT01", "QS", "01-701-1034", 4117.0, "DAITM37", "TAKE AN INTEREST IN HOUSEHOLD CHORES", "DAD", "LEISURE AND HOUSEWORK", "Y", "", "1", 1.0, "", "", "", "", "", 10.0, "WEEK 16", 112.0, "TREATMENT", "2014-10-21", 113.0]
["CDISCPILOT01", "QS", "01-701-1034", 4157.0, "DAITM37", "TAKE AN INTEREST IN HOUSEHOLD CHORES", "DAD", "LEISURE AND HOUSEWORK", "Y", "", "1", 1.0, "", "", "", "", "", 12.0, "WEEK 24", 168.0, "TREATMENT", "2014-12-17", 170.0]
["CDISCPILOT01", "QS", "01-701-1034", 4038.0, "DAITM38", "PLAN AND ORGANIZE HOUSEHOLD CHORES", "DAD", "LEISURE AND HOUSEWORK", "Y", "", "1", 1.0, "", "", "", "Y", "", 3.0, "BASELINE", 1.0, "TREATMENT", "2014-07-01", 1.0]
["CDISCPILOT01", "QS", "01-701-1034", 4078.0, "DAITM38", "PLAN AND ORGANIZE HOUSEHOLD CHORES", "DAD", "LEISURE AND HOUSEWORK", "Y", "", "1", 1.0, "", "", "", "", "", 8.0, "WEEK 8", 56.0, "TREATMENT", "2014-08-26", 57.0]
["CDISCPILOT01", "QS", "01-701-1034", 4118.0, "DAITM38", "PLAN AND ORGANIZE HOUSEHOLD CHORES", "DAD", "LEISURE AND HOUSEWORK", "Y", "", "1", 1.0, "", "", "", "", "", 10.0, "WEEK 16", 112.0, "TREATMENT", "2014-10-21", 113.0]
["CDISCPILOT01", "QS", "01-701-1034", 4158.0, "DAITM38", "PLAN AND ORGANIZE HOUSEHOLD CHORES", "DAD", "LEISURE AND HOUSEWORK", "Y", "", "1", 1.0, "", "", "", "", "", 12.0, "WEEK 24", 168.0, "TREATMENT", "2014-12-17", 170.0]
["CDISCPILOT01", "QS", "01-701-1034", 4039.0, "DAITM39", "COMPLETE HOUSEHOLD CHORES", "DAD", "LEISURE AND HOUSEWORK", "Y", "", "1", 1.0, "", "", "", "Y", "", 3.0, "BASELINE", 1.0, "TREATMENT", "2014-07-01", 1.0]
["CDISCPILOT01", "QS", "01-701-1034", 4079.0, "DAITM39", "COMPLETE HOUSEHOLD CHORES", "DAD", "LEISURE AND HOUSEWORK", "Y", "", "1", 1.0, "", "", "", "", "", 8.0, "WEEK 8", 56.0, "TREATMENT", "2014-08-26", 57.0]
["CDISCPILOT01", "QS", "01-701-1034", 4119.0, "DAITM39", "COMPLETE HOUSEHOLD CHORES", "DAD", "LEISURE AND HOUSEWORK", "Y", "", "1", 1.0, "", "", "", "", "", 10.0, "WEEK 16", 112.0, "TREATMENT", "2014-10-21", 113.0]
["CDISCPILOT01", "QS", "01-701-1034", 4159.0, "DAITM39", "COMPLETE HOUSEHOLD CHORES", "DAD", "LEISURE AND HOUSEWORK", "Y", "", "1", 1.0, "", "", "", "", "", 12.0, "WEEK 24", 168.0, "TREATMENT", "2014-12-17", 170.0]
["CDISCPILOT01", "QS", "01-701-1034", 4040.0, "DAITM40", "STAY SAFELY AT HOME BY HIMSELF/HERSELF", "DAD", "LEISURE AND HOUSEWORK", "Y", "", "1", 1.0, "", "", "", "Y", "", 3.0, "BASELINE", 1.0, "TREATMENT", "2014-07-01", 1.0]
["CDISCPILOT01", "QS", "01-701-1034", 4080.0, "DAITM40", "STAY SAFELY AT HOME BY HIMSELF/HERSELF", "DAD", "LEISURE AND HOUSEWORK", "Y", "", "1", 1.0, "", "", "", "", "", 8.0, "WEEK 8", 56.0, "TREATMENT", "2014-08-26", 57.0]
["CDISCPILOT01", "QS", "01-701-1034", 4120.0, "DAITM40", "STAY SAFELY AT HOME BY HIMSELF/HERSELF", "DAD", "LEISURE AND HOUSEWORK", "Y", "", "1", 1.0, "", "", "", "", "", 10.0, "WEEK 16", 112.0, "TREATMENT", "2014-10-21", 113.0]
["CDISCPILOT01", "QS", "01-701-1034", 4160.0, "DAITM40", "STAY SAFELY AT HOME BY HIMSELF/HERSELF", "DAD", "LEISURE AND HOUSEWORK", "Y", "", "1", 1.0, "", "", "", "", "", 12.0, "WEEK 24", 168.0, "TREATMENT", "2014-12-17", 170.0]
["CDISCPILOT01", "QS", "01-701-1047", 4001.0, "DAITM01", "UNDERTAKE TO WASH HIMSELF/HERSELF", "DAD", "HYGIENE", "Y", "", "1", 1.0, "", "", "", "Y", "", 3.0, "BASELINE", 1.0, "TREATMENT", "2013-02-12", 1.0]
["CDISCPILOT01", "QS", "01-701-1047", 4041.0, "DAITM01", "UNDERTAKE TO WASH HIMSELF/HERSELF", "DAD", "HYGIENE", "Y", "", "1", 1.0, "", "", "", "", "", 6.0, "AMBUL ECG REMOVAL", 30.0, "TREATMENT", "2013-03-29", 46.0]
["CDISCPILOT01", "QS", "01-701-1047", 4081.0, "DAITM01", "UNDERTAKE TO WASH HIMSELF/HERSELF", "DAD", "HYGIENE", "Y", "", "1", 1.0, "", "", "", "", "", 201.0, "RETRIEVAL", 168.0, "TREATMENT", "2013-07-28", 167.0]
["CDISCPILOT01", "QS", "01-701-1047", 4002.0, "DAITM02", "UNDERTAKE TO BRUSH HIS/HER TEETH", "DAD", "HYGIENE", "Y", "", "1", 1.0, "", "", "", "Y", "", 3.0, "BASELINE", 1.0, "TREATMENT", "2013-02-12", 1.0]
["CDISCPILOT01", "QS", "01-701-1047", 4042.0, "DAITM02", "UNDERTAKE TO BRUSH HIS/HER TEETH", "DAD", "HYGIENE", "Y", "", "1", 1.0, "", "", "", "", "", 6.0, "AMBUL ECG REMOVAL", 30.0, "TREATMENT", "2013-03-29", 46.0]
["CDISCPILOT01", "QS", "01-701-1047", 4082.0, "DAITM02", "UNDERTAKE TO BRUSH HIS/HER TEETH", "DAD", "HYGIENE", "Y", "", "1", 1.0, "", "", "", "", "", 201.0, "RETRIEVAL", 168.0, "TREATMENT", "2013-07-28", 167.0]
["CDISCPILOT01", "QS", "01-701-1047", 4003.0, "DAITM03", "DECIDE TO CARE FOR HIS/HER HAIR", "DAD", "HYGIENE", "Y", "", "1", 1.0, "", "", "", "Y", "", 3.0, "BASELINE", 1.0, "TREATMENT", "2013-02-12", 1.0]
["CDISCPILOT01", "QS", "01-701-1047", 4043.0, "DAITM03", "DECIDE TO CARE FOR HIS/HER HAIR", "DAD", "HYGIENE", "Y", "", "1", 1.0, "", "", "", "", "", 6.0, "AMBUL ECG REMOVAL", 30.0, "TREATMENT", "2013-03-29", 46.0]
["CDISCPILOT01", "QS", "01-701-1047", 4083.0, "DAITM03", "DECIDE TO CARE FOR HIS/HER HAIR", "DAD", "HYGIENE", "Y", "", "1", 1.0, "", "", "", "", "", 201.0, "RETRIEVAL", 168.0, "TREATMENT", "2013-07-28", 167.0]
["CDISCPILOT01", "QS", "01-701-1047", 4004.0, "DAITM04", "PREPARE FOR WASHING, TAKING A BATH", "DAD", "HYGIENE", "Y", "", "1", 1.0, "", "", "", "Y", "", 3.0, "BASELINE", 1.0, "TREATMENT", "2013-02-12", 1.0]
["CDISCPILOT01", "QS", "01-701-1047", 4044.0, "DAITM04", "PREPARE FOR WASHING, TAKING A BATH", "DAD", "HYGIENE", "Y", "", "1", 1.0, "", "", "", "", "", 6.0, "AMBUL ECG REMOVAL", 30.0, "TREATMENT", "2013-03-29", 46.0]
["CDISCPILOT01", "QS", "01-701-1047", 4084.0, "DAITM04", "PREPARE FOR WASHING, TAKING A BATH", "DAD", "HYGIENE", "Y", "", "1", 1.0, "", "", "", "", "", 201.0, "RETRIEVAL", 168.0, "TREATMENT", "2013-07-28", 167.0]
["CDISCPILOT01", "QS", "01-701-1047", 4005.0, "DAITM05", "WASH AND DRY COMPLETELY SAFELY", "DAD", "HYGIENE", "Y", "", "1", 1.0, "", "", "", "Y", "", 3.0, "BASELINE", 1.0, "TREATMENT", "2013-02-12", 1.0]
["CDISCPILOT01", "QS", "01-701-1047", 4045.0, "DAITM05", "WASH AND DRY COMPLETELY SAFELY", "DAD", "HYGIENE", "Y", "", "1", 1.0, "", "", "", "", "", 6.0, "AMBUL ECG REMOVAL", 30.0, "TREATMENT", "2013-03-29", 46.0]
["CDISCPILOT01", "QS", "01-701-1047", 4085.0, "DAITM05", "WASH AND DRY COMPLETELY SAFELY", "DAD", "HYGIENE", "Y", "", "1", 1.0, "", "", "", "", "", 201.0, "RETRIEVAL", 168.0, "TREATMENT", "2013-07-28", 167.0]
["CDISCPILOT01", "QS", "01-701-1047", 4006.0, "DAITM06", "BRUSH HIS/HER TEETH", "DAD", "HYGIENE", "Y", "", "1", 1.0, "", "", "", "Y", "", 3.0, "BASELINE", 1.0, "TREATMENT", "2013-02-12", 1.0]
["CDISCPILOT01", "QS", "01-701-1047", 4046.0, "DAITM06", "BRUSH HIS/HER TEETH", "DAD", "HYGIENE", "Y", "", "1", 1.0, "", "", "", "", "", 6.0, "AMBUL ECG REMOVAL", 30.0, "TREATMENT", "2013-03-29", 46.0]
["CDISCPILOT01", "QS", "01-701-1047", 4086.0, "DAITM06", "BRUSH HIS/HER TEETH", "DAD", "HYGIENE", "Y", "", "1", 1.0, "", "", "", "", "", 201.0, "RETRIEVAL", 168.0, "TREATMENT", "2013-07-28", 167.0]
["CDISCPILOT01", "QS", "01-701-1047", 4007.0, "DAITM07", "CARE FOR HIS/HER HAIR", "DAD", "HYGIENE", "Y", "", "1", 1.0, "", "", "", "Y", "", 3.0, "BASELINE", 1.0, "TREATMENT", "2013-02-12", 1.0]
["CDISCPILOT01", "QS", "01-701-1047", 4047.0, "DAITM07", "CARE FOR HIS/HER HAIR", "DAD", "HYGIENE", "Y", "", "1", 1.0, "", "", "", "", "", 6.0, "AMBUL ECG REMOVAL", 30.0, "TREATMENT", "2013-03-29", 46.0]
["CDISCPILOT01", "QS", "01-701-1047", 4087.0, "DAITM07", "CARE FOR HIS/HER HAIR", "DAD", "HYGIENE", "Y", "", "1", 1.0, "", "", "", "", "", 201.0, "RETRIEVAL", 168.0, "TREATMENT", "2013-07-28", 167.0]
["CDISCPILOT01", "QS", "01-701-1047", 4008.0, "DAITM08", "UNDERTAKE TO DRESS HIMSELF/HERSELF", "DAD", "DRESSING", "Y", "", "1", 1.0, "", "", "", "Y", "", 3.0, "BASELINE", 1.0, "TREATMENT", "2013-02-12", 1.0]
["CDISCPILOT01", "QS", "01-701-1047", 4048.0, "DAITM08", "UNDERTAKE TO DRESS HIMSELF/HERSELF", "DAD", "DRESSING", "Y", "", "1", 1.0, "", "", "", "", "", 6.0, "AMBUL ECG REMOVAL", 30.0, "TREATMENT", "2013-03-29", 46.0]
["CDISCPILOT01", "QS", "01-701-1047", 4088.0, "DAITM08", "UNDERTAKE TO DRESS HIMSELF/HERSELF", "DAD", "DRESSING", "Y", "", "1", 1.0, "", "", "", "", "", 201.0, "RETRIEVAL", 168.0, "TREATMENT", "2013-07-28", 167.0]
["CDISCPILOT01", "QS", "01-701-1047", 4009.0, "DAITM09", "CHOOSE APPROPRIATE CLOTHING", "DAD", "DRESSING", "Y", "", "1", 1.0, "", "", "", "Y", "", 3.0, "BASELINE", 1.0, "TREATMENT", "2013-02-12", 1.0]
["CDISCPILOT01", "QS", "01-701-1047", 4049.0, "DAITM09", "CHOOSE APPROPRIATE CLOTHING", "DAD", "DRESSING", "Y", "", "1", 1.0, "", "", "", "", "", 6.0, "AMBUL ECG REMOVAL", 30.0, "TREATMENT", "2013-03-29", 46.0]
["CDISCPILOT01", "QS", "01-701-1047", 4089.0, "DAITM09", "CHOOSE APPROPRIATE CLOTHING", "DAD", "DRESSING", "Y", "", "1", 1.0, "", "", "", "", "", 201.0, "RETRIEVAL", 168.0, "TREATMENT", "2013-07-28", 167.0]
["CDISCPILOT01", "QS", "01-701-1047", 4010.0, "DAITM10", "DRESS HIMSELF/HERSELF", "DAD", "DRESSING", "Y", "", "1", 1.0, "", "", "", "Y", "", 3.0, "BASELINE", 1.0, "TREATMENT", "2013-02-12", 1.0]
["CDISCPILOT01", "QS", "01-701-1047", 4050.0, "DAITM10", "DRESS HIMSELF/HERSELF", "DAD", "DRESSING", "Y", "", "1", 1.0, "", "", "", "", "", 6.0, "AMBUL ECG REMOVAL", 30.0, "TREATMENT", "2013-03-29", 46.0]
["CDISCPILOT01", "QS", "01-701-1047", 4090.0, "DAITM10", "DRESS HIMSELF/HERSELF", "DAD", "DRESSING", "Y", "", "1", 1.0, "", "", "", "", "", 201.0, "RETRIEVAL", 168.0, "TREATMENT", "2013-07-28", 167.0]
["CDISCPILOT01", "QS", "01-701-1047", 4011.0, "DAITM11", "DRESS HIMSELF/HERSELF COMPLETELY", "DAD", "DRESSING", "Y", "", "1", 1.0, "", "", "", "Y", "", 3.0, "BASELINE", 1.0, "TREATMENT", "2013-02-12", 1.0]
["CDISCPILOT01", "QS", "01-701-1047", 4051.0, "DAITM11", "DRESS HIMSELF/HERSELF COMPLETELY", "DAD", "DRESSING", "Y", "", "1", 1.0, "", "", "", "", "", 6.0, "AMBUL ECG REMOVAL", 30.0, "TREATMENT", "2013-03-29", 46.0]
["CDISCPILOT01", "QS", "01-701-1047", 4091.0, "DAITM11", "DRESS HIMSELF/HERSELF COMPLETELY", "DAD", "DRESSING", "Y", "", "1", 1.0, "", "", "", "", "", 201.0, "RETRIEVAL", 168.0, "TREATMENT", "2013-07-28", 167.0]
["CDISCPILOT01", "QS", "01-701-1047", 4012.0, "DAITM12", "UNDRESS HIMSELF/HERSELF COMPLETELY", "DAD", "DRESSING", "Y", "", "1", 1.0, "", "", "", "Y", "", 3.0, "BASELINE", 1.0, "TREATMENT", "2013-02-12", 1.0]
["CDISCPILOT01", "QS", "01-701-1047", 4052.0, "DAITM12", "UNDRESS HIMSELF/HERSELF COMPLETELY", "DAD", "DRESSING", "Y", "", "1", 1.0, "", "", "", "", "", 6.0, "AMBUL ECG REMOVAL", 30.0, "TREATMENT", "2013-03-29", 46.0]
["CDISCPILOT01", "QS", "01-701-1047", 4092.0, "DAITM12", "UNDRESS HIMSELF/HERSELF COMPLETELY", "DAD", "DRESSING", "Y", "", "1", 1.0, "", "", "", "", "", 201.0, "RETRIEVAL", 168.0, "TREATMENT", "2013-07-28", 167.0]
["CDISCPILOT01", "QS", "01-701-1047", 4013.0, "DAITM13", "DECIDE TO USE THE TOILET AT APPROPRIATE", "DAD", "CONTINENCE", "Y", "", "1", 1.0, "", "", "", "Y", "", 3.0, "BASELINE", 1.0, "TREATMENT", "2013-02-12", 1.0]
["CDISCPILOT01", "QS", "01-701-1047", 4053.0, "DAITM13", "DECIDE TO USE THE TOILET AT APPROPRIATE", "DAD", "CONTINENCE", "Y", "", "1", 1.0, "", "", "", "", "", 6.0, "AMBUL ECG REMOVAL", 30.0, "TREATMENT", "2013-03-29", 46.0]
["CDISCPILOT01", "QS", "01-701-1047", 4093.0, "DAITM13", "DECIDE TO USE THE TOILET AT APPROPRIATE", "DAD", "CONTINENCE", "Y", "", "1", 1.0, "", "", "", "", "", 201.0, "RETRIEVAL", 168.0, "TREATMENT", "2013-07-28", 167.0]
["CDISCPILOT01", "QS", "01-701-1047", 4014.0, "DAITM14", "USE THE TOILET WITHOUT \"ACCIDENTS\"", "DAD", "CONTINENCE", "Y", "", "1", 1.0, "", "", "", "Y", "", 3.0, "BASELINE", 1.0, "TREATMENT", "2013-02-12", 1.0]
["CDISCPILOT01", "QS", "01-701-1047", 4054.0, "DAITM14", "USE THE TOILET WITHOUT \"ACCIDENTS\"", "DAD", "CONTINENCE", "Y", "", "1", 1.0, "", "", "", "", "", 6.0, "AMBUL ECG REMOVAL", 30.0, "TREATMENT", "2013-03-29", 46.0]
["CDISCPILOT01", "QS", "01-701-1047", 4094.0, "DAITM14", "USE THE TOILET WITHOUT \"ACCIDENTS\"", "DAD", "CONTINENCE", "Y", "", "1", 1.0, "", "", "", "", "", 201.0, "RETRIEVAL", 168.0, "TREATMENT", "2013-07-28", 167.0]
["CDISCPILOT01", "QS", "01-701-1047", 4015.0, "DAITM15", "DECIDE THAT HE/SHE NEEDS TO EAT", "DAD", "EATING", "Y", "", "1", 1.0, "", "", "", "Y", "", 3.0, "BASELINE", 1.0, "TREATMENT", "2013-02-12", 1.0]
["CDISCPILOT01", "QS", "01-701-1047", 4055.0, "DAITM15", "DECIDE THAT HE/SHE NEEDS TO EAT", "DAD", "EATING", "Y", "", "1", 1.0, "", "", "", "", "", 6.0, "AMBUL ECG REMOVAL", 30.0, "TREATMENT", "2013-03-29", 46.0]
["CDISCPILOT01", "QS", "01-701-1047", 4095.0, "DAITM15", "DECIDE THAT HE/SHE NEEDS TO EAT", "DAD", "EATING", "Y", "", "1", 1.0, "", "", "", "", "", 201.0, "RETRIEVAL", 168.0, "TREATMENT", "2013-07-28", 167.0]
["CDISCPILOT01", "QS", "01-701-1047", 4016.0, "DAITM16", "CHOOSE APPROPRIATE UTENSILS", "DAD", "EATING", "Y", "", "1", 1.0, "", "", "", "Y", "", 3.0, "BASELINE", 1.0, "TREATMENT", "2013-02-12", 1.0]
["CDISCPILOT01", "QS", "01-701-1047", 4056.0, "DAITM16", "CHOOSE APPROPRIATE UTENSILS", "DAD", "EATING", "Y", "", "1", 1.0, "", "", "", "", "", 6.0, "AMBUL ECG REMOVAL", 30.0, "TREATMENT", "2013-03-29", 46.0]
["CDISCPILOT01", "QS", "01-701-1047", 4096.0, "DAITM16", "CHOOSE APPROPRIATE UTENSILS", "DAD", "EATING", "Y", "", "1", 1.0, "", "", "", "", "", 201.0, "RETRIEVAL", 168.0, "TREATMENT", "2013-07-28", 167.0]
["CDISCPILOT01", "QS", "01-701-1047", 4017.0, "DAITM17", "EAT HIS/HER MEALS AT A NORMAL PACE", "DAD", "EATING", "Y", "", "1", 1.0, "", "", "", "Y", "", 3.0, "BASELINE", 1.0, "TREATMENT", "2013-02-12", 1.0]
["CDISCPILOT01", "QS", "01-701-1047", 4057.0, "DAITM17", "EAT HIS/HER MEALS AT A NORMAL PACE", "DAD", "EATING", "Y", "", "1", 1.0, "", "", "", "", "", 6.0, "AMBUL ECG REMOVAL", 30.0, "TREATMENT", "2013-03-29", 46.0]
["CDISCPILOT01", "QS", "01-701-1047", 4097.0, "DAITM17", "EAT HIS/HER MEALS AT A NORMAL PACE", "DAD", "EATING", "Y", "", "1", 1.0, "", "", "", "", "", 201.0, "RETRIEVAL", 168.0, "TREATMENT", "2013-07-28", 167.0]
["CDISCPILOT01", "QS", "01-701-1047", 4018.0, "DAITM18", "UNDERTAKE TO PREPARE A LIGHT MEAL", "DAD", "MEAL PREPARATION", "Y", "", "1", 1.0, "", "", "", "Y", "", 3.0, "BASELINE", 1.0, "TREATMENT", "2013-02-12", 1.0]
["CDISCPILOT01", "QS", "01-701-1047", 4058.0, "DAITM18", "UNDERTAKE TO PREPARE A LIGHT MEAL", "DAD", "MEAL PREPARATION", "Y", "", "1", 1.0, "", "", "", "", "", 6.0, "AMBUL ECG REMOVAL", 30.0, "TREATMENT", "2013-03-29", 46.0]
["CDISCPILOT01", "QS", "01-701-1047", 4098.0, "DAITM18", "UNDERTAKE TO PREPARE A LIGHT MEAL", "DAD", "MEAL PREPARATION", "Y", "", "1", 1.0, "", "", "", "", "", 201.0, "RETRIEVAL", 168.0, "TREATMENT", "2013-07-28", 167.0]
["CDISCPILOT01", "QS", "01-701-1047", 4019.0, "DAITM19", "ADEQUATELY PLAN A LIGHT MEAL OR SNACK", "DAD", "MEAL PREPARATION", "Y", "", "1", 1.0, "", "", "", "Y", "", 3.0, "BASELINE", 1.0, "TREATMENT", "2013-02-12", 1.0]
["CDISCPILOT01", "QS", "01-701-1047", 4059.0, "DAITM19", "ADEQUATELY PLAN A LIGHT MEAL OR SNACK", "DAD", "MEAL PREPARATION", "Y", "", "1", 1.0, "", "", "", "", "", 6.0, "AMBUL ECG REMOVAL", 30.0, "TREATMENT", "2013-03-29", 46.0]
["CDISCPILOT01", "QS", "01-701-1047", 4099.0, "DAITM19", "ADEQUATELY PLAN A LIGHT MEAL OR SNACK", "DAD", "MEAL PREPARATION", "Y", "", "1", 1.0, "", "", "", "", "", 201.0, "RETRIEVAL", 168.0, "TREATMENT", "2013-07-28", 167.0]
["CDISCPILOT01", "QS", "01-701-1047", 4020.0, "DAITM20", "PREPARE OR COOK A LIGHT MEAL OR A SNACK", "DAD", "MEAL PREPARATION", "Y", "", "1", 1.0, "", "", "", "Y", "", 3.0, "BASELINE", 1.0, "TREATMENT", "2013-02-12", 1.0]
["CDISCPILOT01", "QS", "01-701-1047", 4060.0, "DAITM20", "PREPARE OR COOK A LIGHT MEAL OR A SNACK", "DAD", "MEAL PREPARATION", "Y", "", "1", 1.0, "", "", "", "", "", 6.0, "AMBUL ECG REMOVAL", 30.0, "TREATMENT", "2013-03-29", 46.0]
["CDISCPILOT01", "QS", "01-701-1047", 4100.0, "DAITM20", "PREPARE OR COOK A LIGHT MEAL OR A SNACK", "DAD", "MEAL PREPARATION", "Y", "", "1", 1.0, "", "", "", "", "", 201.0, "RETRIEVAL", 168.0, "TREATMENT", "2013-07-28", 167.0]
["CDISCPILOT01", "QS", "01-701-1047", 4021.0, "DAITM21", "ATTEMPT TO TELEPHONE SOMEONE", "DAD", "TELEPHONING", "Y", "", "1", 1.0, "", "", "", "Y", "", 3.0, "BASELINE", 1.0, "TREATMENT", "2013-02-12", 1.0]
["CDISCPILOT01", "QS", "01-701-1047", 4061.0, "DAITM21", "ATTEMPT TO TELEPHONE SOMEONE", "DAD", "TELEPHONING", "Y", "", "1", 1.0, "", "", "", "", "", 6.0, "AMBUL ECG REMOVAL", 30.0, "TREATMENT", "2013-03-29", 46.0]
["CDISCPILOT01", "QS", "01-701-1047", 4101.0, "DAITM21", "ATTEMPT TO TELEPHONE SOMEONE", "DAD", "TELEPHONING", "Y", "", "1", 1.0, "", "", "", "", "", 201.0, "RETRIEVAL", 168.0, "TREATMENT", "2013-07-28", 167.0]
["CDISCPILOT01", "QS", "01-701-1047", 4022.0, "DAITM22", "FIND AND DIAL A TELEPHONE NUMBER CORRECT", "DAD", "TELEPHONING", "Y", "", "1", 1.0, "", "", "", "Y", "", 3.0, "BASELINE", 1.0, "TREATMENT", "2013-02-12", 1.0]
["CDISCPILOT01", "QS", "01-701-1047", 4062.0, "DAITM22", "FIND AND DIAL A TELEPHONE NUMBER CORRECT", "DAD", "TELEPHONING", "Y", "", "1", 1.0, "", "", "", "", "", 6.0, "AMBUL ECG REMOVAL", 30.0, "TREATMENT", "2013-03-29", 46.0]
["CDISCPILOT01", "QS", "01-701-1047", 4102.0, "DAITM22", "FIND AND DIAL A TELEPHONE NUMBER CORRECT", "DAD", "TELEPHONING", "Y", "", "1", 1.0, "", "", "", "", "", 201.0, "RETRIEVAL", 168.0, "TREATMENT", "2013-07-28", 167.0]
["CDISCPILOT01", "QS", "01-701-1047", 4023.0, "DAITM23", "CARRY OUT A TELEPHONE CONVERSATION", "DAD", "TELEPHONING", "Y", "", "1", 1.0, "", "", "", "Y", "", 3.0, "BASELINE", 1.0, "TREATMENT", "2013-02-12", 1.0]
["CDISCPILOT01", "QS", "01-701-1047", 4063.0, "DAITM23", "CARRY OUT A TELEPHONE CONVERSATION", "DAD", "TELEPHONING", "Y", "", "1", 1.0, "", "", "", "", "", 6.0, "AMBUL ECG REMOVAL", 30.0, "TREATMENT", "2013-03-29", 46.0]
["CDISCPILOT01", "QS", "01-701-1047", 4103.0, "DAITM23", "CARRY OUT A TELEPHONE CONVERSATION", "DAD", "TELEPHONING", "Y", "", "1", 1.0, "", "", "", "", "", 201.0, "RETRIEVAL", 168.0, "TREATMENT", "2013-07-28", 167.0]
["CDISCPILOT01", "QS", "01-701-1047", 4024.0, "DAITM24", "WRITE AND CONVEY A TELEPHONE MESSAGE", "DAD", "TELEPHONING", "Y", "", "1", 1.0, "", "", "", "Y", "", 3.0, "BASELINE", 1.0, "TREATMENT", "2013-02-12", 1.0]
["CDISCPILOT01", "QS", "01-701-1047", 4064.0, "DAITM24", "WRITE AND CONVEY A TELEPHONE MESSAGE", "DAD", "TELEPHONING", "Y", "", "1", 1.0, "", "", "", "", "", 6.0, "AMBUL ECG REMOVAL", 30.0, "TREATMENT", "2013-03-29", 46.0]
["CDISCPILOT01", "QS", "01-701-1047", 4104.0, "DAITM24", "WRITE AND CONVEY A TELEPHONE MESSAGE", "DAD", "TELEPHONING", "Y", "", "1", 1.0, "", "", "", "", "", 201.0, "RETRIEVAL", 168.0, "TREATMENT", "2013-07-28", 167.0]
["CDISCPILOT01", "QS", "01-701-1047", 4025.0, "DAITM25", "UNDERTAKE TO GO OUT", "DAD", "GOING ON AN OUTING", "Y", "", "1", 1.0, "", "", "", "Y", "", 3.0, "BASELINE", 1.0, "TREATMENT", "2013-02-12", 1.0]
["CDISCPILOT01", "QS", "01-701-1047", 4065.0, "DAITM25", "UNDERTAKE TO GO OUT", "DAD", "GOING ON AN OUTING", "Y", "", "1", 1.0, "", "", "", "", "", 6.0, "AMBUL ECG REMOVAL", 30.0, "TREATMENT", "2013-03-29", 46.0]
["CDISCPILOT01", "QS", "01-701-1047", 4105.0, "DAITM25", "UNDERTAKE TO GO OUT", "DAD", "GOING ON AN OUTING", "Y", "", "1", 1.0, "", "", "", "", "", 201.0, "RETRIEVAL", 168.0, "TREATMENT", "2013-07-28", 167.0]
["CDISCPILOT01", "QS", "01-701-1047", 4026.0, "DAITM26", "ADEQUATELY ORGANIZE AN OUTING", "DAD", "GOING ON AN OUTING", "Y", "", "1", 1.0, "", "", "", "Y", "", 3.0, "BASELINE", 1.0, "TREATMENT", "2013-02-12", 1.0]
["CDISCPILOT01", "QS", "01-701-1047", 4066.0, "DAITM26", "ADEQUATELY ORGANIZE AN OUTING", "DAD", "GOING ON AN OUTING", "Y", "", "1", 1.0, "", "", "", "", "", 6.0, "AMBUL ECG REMOVAL", 30.0, "TREATMENT", "2013-03-29", 46.0]
["CDISCPILOT01", "QS", "01-701-1047", 4106.0, "DAITM26", "ADEQUATELY ORGANIZE AN OUTING", "DAD", "GOING ON AN OUTING", "Y", "", "1", 1.0, "", "", "", "", "", 201.0, "RETRIEVAL", 168.0, "TREATMENT", "2013-07-28", 167.0]
["CDISCPILOT01", "QS", "01-701-1047", 4027.0, "DAITM27", "GO OUT AND REACH A FAMILIAR DESTINATION", "DAD", "GOING ON AN OUTING", "Y", "", "1", 1.0, "", "", "", "Y", "", 3.0, "BASELINE", 1.0, "TREATMENT", "2013-02-12", 1.0]
["CDISCPILOT01", "QS", "01-701-1047", 4067.0, "DAITM27", "GO OUT AND REACH A FAMILIAR DESTINATION", "DAD", "GOING ON AN OUTING", "Y", "", "1", 1.0, "", "", "", "", "", 6.0, "AMBUL ECG REMOVAL", 30.0, "TREATMENT", "2013-03-29", 46.0]
["CDISCPILOT01", "QS", "01-701-1047", 4107.0, "DAITM27", "GO OUT AND REACH A FAMILIAR DESTINATION", "DAD", "GOING ON AN OUTING", "Y", "", "1", 1.0, "", "", "", "", "", 201.0, "RETRIEVAL", 168.0, "TREATMENT", "2013-07-28", 167.0]
["CDISCPILOT01", "QS", "01-701-1047", 4028.0, "DAITM28", "SAFELY TAKE CAR, BUS, TAXI", "DAD", "GOING ON AN OUTING", "Y", "", "1", 1.0, "", "", "", "Y", "", 3.0, "BASELINE", 1.0, "TREATMENT", "2013-02-12", 1.0]
["CDISCPILOT01", "QS", "01-701-1047", 4068.0, "DAITM28", "SAFELY TAKE CAR, BUS, TAXI", "DAD", "GOING ON AN OUTING", "Y", "", "1", 1.0, "", "", "", "", "", 6.0, "AMBUL ECG REMOVAL", 30.0, "TREATMENT", "2013-03-29", 46.0]
["CDISCPILOT01", "QS", "01-701-1047", 4108.0, "DAITM28", "SAFELY TAKE CAR, BUS, TAXI", "DAD", "GOING ON AN OUTING", "Y", "", "1", 1.0, "", "", "", "", "", 201.0, "RETRIEVAL", 168.0, "TREATMENT", "2013-07-28", 167.0]
["CDISCPILOT01", "QS", "01-701-1047", 4029.0, "DAITM29", "RETURN FROM THE STORE", "DAD", "GOING ON AN OUTING", "Y", "", "1", 1.0, "", "", "", "Y", "", 3.0, "BASELINE", 1.0, "TREATMENT", "2013-02-12", 1.0]
["CDISCPILOT01", "QS", "01-701-1047", 4069.0, "DAITM29", "RETURN FROM THE STORE", "DAD", "GOING ON AN OUTING", "Y", "", "1", 1.0, "", "", "", "", "", 6.0, "AMBUL ECG REMOVAL", 30.0, "TREATMENT", "2013-03-29", 46.0]
["CDISCPILOT01", "QS", "01-701-1047", 4109.0, "DAITM29", "RETURN FROM THE STORE", "DAD", "GOING ON AN OUTING", "Y", "", "1", 1.0, "", "", "", "", "", 201.0, "RETRIEVAL", 168.0, "TREATMENT", "2013-07-28", 167.0]
["CDISCPILOT01", "QS", "01-701-1047", 4030.0, "DAITM30", "INTEREST IN HIS/HER PERSONAL AFFAIRS", "DAD", "FINANCE AND CORRESPONDE", "Y", "", "1", 1.0, "", "", "", "Y", "", 3.0, "BASELINE", 1.0, "TREATMENT", "2013-02-12", 1.0]
["CDISCPILOT01", "QS", "01-701-1047", 4070.0, "DAITM30", "INTEREST IN HIS/HER PERSONAL AFFAIRS", "DAD", "FINANCE AND CORRESPONDE", "Y", "", "1", 1.0, "", "", "", "", "", 6.0, "AMBUL ECG REMOVAL", 30.0, "TREATMENT", "2013-03-29", 46.0]
["CDISCPILOT01", "QS", "01-701-1047", 4110.0, "DAITM30", "INTEREST IN HIS/HER PERSONAL AFFAIRS", "DAD", "FINANCE AND CORRESPONDE", "Y", "", "1", 1.0, "", "", "", "", "", 201.0, "RETRIEVAL", 168.0, "TREATMENT", "2013-07-28", 167.0]
["CDISCPILOT01", "QS", "01-701-1047", 4031.0, "DAITM31", "PAY HIS/HER BILLS", "DAD", "FINANCE AND CORRESPONDE", "NA", "", "96", 96.0, "", "", "", "Y", "", 3.0, "BASELINE", 1.0, "TREATMENT", "2013-02-12", 1.0]
["CDISCPILOT01", "QS", "01-701-1047", 4071.0, "DAITM31", "PAY HIS/HER BILLS", "DAD", "FINANCE AND CORRESPONDE", "NA", "", "96", 96.0, "", "", "", "", "", 6.0, "AMBUL ECG REMOVAL", 30.0, "TREATMENT", "2013-03-29", 46.0]
["CDISCPILOT01", "QS", "01-701-1047", 4111.0, "DAITM31", "PAY HIS/HER BILLS", "DAD", "FINANCE AND CORRESPONDE", "NA", "", "96", 96.0, "", "", "", "", "", 201.0, "RETRIEVAL", 168.0, "TREATMENT", "2013-07-28", 167.0]
["CDISCPILOT01", "QS", "01-701-1047", 4032.0, "DAITM32", "ORGANIZE HIS/HER CORRESPONDENCE", "DAD", "FINANCE AND CORRESPONDE", "Y", "", "1", 1.0, "", "", "", "Y", "", 3.0, "BASELINE", 1.0, "TREATMENT", "2013-02-12", 1.0]
["CDISCPILOT01", "QS", "01-701-1047", 4072.0, "DAITM32", "ORGANIZE HIS/HER CORRESPONDENCE", "DAD", "FINANCE AND CORRESPONDE", "Y", "", "1", 1.0, "", "", "", "", "", 6.0, "AMBUL ECG REMOVAL", 30.0, "TREATMENT", "2013-03-29", 46.0]
["CDISCPILOT01", "QS", "01-701-1047", 4112.0, "DAITM32", "ORGANIZE HIS/HER CORRESPONDENCE", "DAD", "FINANCE AND CORRESPONDE", "Y", "", "1", 1.0, "", "", "", "", "", 201.0, "RETRIEVAL", 168.0, "TREATMENT", "2013-07-28", 167.0]
["CDISCPILOT01", "QS", "01-701-1047", 4033.0, "DAITM33", "HANDLE ADEQUATELY HIS/HER MONEY", "DAD", "FINANCE AND CORRESPONDE", "Y", "", "1", 1.0, "", "", "", "Y", "", 3.0, "BASELINE", 1.0, "TREATMENT", "2013-02-12", 1.0]
["CDISCPILOT01", "QS", "01-701-1047", 4073.0, "DAITM33", "HANDLE ADEQUATELY HIS/HER MONEY", "DAD", "FINANCE AND CORRESPONDE", "Y", "", "1", 1.0, "", "", "", "", "", 6.0, "AMBUL ECG REMOVAL", 30.0, "TREATMENT", "2013-03-29", 46.0]
["CDISCPILOT01", "QS", "01-701-1047", 4113.0, "DAITM33", "HANDLE ADEQUATELY HIS/HER MONEY", "DAD", "FINANCE AND CORRESPONDE", "Y", "", "1", 1.0, "", "", "", "", "", 201.0, "RETRIEVAL", 168.0, "TREATMENT", "2013-07-28", 167.0]
["CDISCPILOT01", "QS", "01-701-1047", 4034.0, "DAITM34", "DECIDE TO TAKE HIS/HER MEDICATIONS", "DAD", "MEDICATIONS", "Y", "", "1", 1.0, "", "", "", "Y", "", 3.0, "BASELINE", 1.0, "TREATMENT", "2013-02-12", 1.0]
["CDISCPILOT01", "QS", "01-701-1047", 4074.0, "DAITM34", "DECIDE TO TAKE HIS/HER MEDICATIONS", "DAD", "MEDICATIONS", "Y", "", "1", 1.0, "", "", "", "", "", 6.0, "AMBUL ECG REMOVAL", 30.0, "TREATMENT", "2013-03-29", 46.0]
["CDISCPILOT01", "QS", "01-701-1047", 4114.0, "DAITM34", "DECIDE TO TAKE HIS/HER MEDICATIONS", "DAD", "MEDICATIONS", "Y", "", "1", 1.0, "", "", "", "", "", 201.0, "RETRIEVAL", 168.0, "TREATMENT", "2013-07-28", 167.0]
["CDISCPILOT01", "QS", "01-701-1047", 4035.0, "DAITM35", "TAKE HIS/HER MEDICATIONS AS PRESCRIBED", "DAD", "MEDICATIONS", "Y", "", "1", 1.0, "", "", "", "Y", "", 3.0, "BASELINE", 1.0, "TREATMENT", "2013-02-12", 1.0]
["CDISCPILOT01", "QS", "01-701-1047", 4075.0, "DAITM35", "TAKE HIS/HER MEDICATIONS AS PRESCRIBED", "DAD", "MEDICATIONS", "Y", "", "1", 1.0, "", "", "", "", "", 6.0, "AMBUL ECG REMOVAL", 30.0, "TREATMENT", "2013-03-29", 46.0]
["CDISCPILOT01", "QS", "01-701-1047", 4115.0, "DAITM35", "TAKE HIS/HER MEDICATIONS AS PRESCRIBED", "DAD", "MEDICATIONS", "Y", "", "1", 1.0, "", "", "", "", "", 201.0, "RETRIEVAL", 168.0, "TREATMENT", "2013-07-28", 167.0]
["CDISCPILOT01", "QS", "01-701-1047", 4036.0, "DAITM36", "SHOW AN INTEREST IN LEISURE ACTIVITY", "DAD", "LEISURE AND HOUSEWORK", "Y", "", "1", 1.0, "", "", "", "Y", "", 3.0, "BASELINE", 1.0, "TREATMENT", "2013-02-12", 1.0]
["CDISCPILOT01", "QS", "01-701-1047", 4076.0, "DAITM36", "SHOW AN INTEREST IN LEISURE ACTIVITY", "DAD", "LEISURE AND HOUSEWORK", "Y", "", "1", 1.0, "", "", "", "", "", 6.0, "AMBUL ECG REMOVAL", 30.0, "TREATMENT", "2013-03-29", 46.0]
["CDISCPILOT01", "QS", "01-701-1047", 4116.0, "DAITM36", "SHOW AN INTEREST IN LEISURE ACTIVITY", "DAD", "LEISURE AND HOUSEWORK", "Y", "", "1", 1.0, "", "", "", "", "", 201.0, "RETRIEVAL", 168.0, "TREATMENT", "2013-07-28", 167.0]
["CDISCPILOT01", "QS", "01-701-1047", 4037.0, "DAITM37", "TAKE AN INTEREST IN HOUSEHOLD CHORES", "DAD", "LEISURE AND HOUSEWORK", "Y", "", "1", 1.0, "", "", "", "Y", "", 3.0, "BASELINE", 1.0, "TREATMENT", "2013-02-12", 1.0]
["CDISCPILOT01", "QS", "01-701-1047", 4077.0, "DAITM37", "TAKE AN INTEREST IN HOUSEHOLD CHORES", "DAD", "LEISURE AND HOUSEWORK", "Y", "", "1", 1.0, "", "", "", "", "", 6.0, "AMBUL ECG REMOVAL", 30.0, "TREATMENT", "2013-03-29", 46.0]
["CDISCPILOT01", "QS", "01-701-1047", 4117.0, "DAITM37", "TAKE AN INTEREST IN HOUSEHOLD CHORES", "DAD", "LEISURE AND HOUSEWORK", "Y", "", "1", 1.0, "", "", "", "", "", 201.0, "RETRIEVAL", 168.0, "TREATMENT", "2013-07-28", 167.0]
["CDISCPILOT01", "QS", "01-701-1047", 4038.0, "DAITM38", "PLAN AND ORGANIZE HOUSEHOLD CHORES", "DAD", "LEISURE AND HOUSEWORK", "Y", "", "1", 1.0, "", "", "", "Y", "", 3.0, "BASELINE", 1.0, "TREATMENT", "2013-02-12", 1.0]
["CDISCPILOT01", "QS", "01-701-1047", 4078.0, "DAITM38", "PLAN AND ORGANIZE HOUSEHOLD CHORES", "DAD", "LEISURE AND HOUSEWORK", "Y", "", "1", 1.0, "", "", "", "", "", 6.0, "AMBUL ECG REMOVAL", 30.0, "TREATMENT", "2013-03-29", 46.0]
["CDISCPILOT01", "QS", "01-701-1047", 4118.0, "DAITM38", "PLAN AND ORGANIZE HOUSEHOLD CHORES", "DAD", "LEISURE AND HOUSEWORK", "Y", "", "1", 1.0, "", "", "", "", "", 201.0, "RETRIEVAL", 168.0, "TREATMENT", "2013-07-28", 167.0]
["CDISCPILOT01", "QS", "01-701-1047", 4039.0, "DAITM39", "COMPLETE HOUSEHOLD CHORES", "DAD", "LEISURE AND HOUSEWORK", "Y", "", "1", 1.0, "", "", "", "Y", "", 3.0, "BASELINE", 1.0, "TREATMENT", "2013-02-12", 1.0]
["CDISCPILOT01", "QS", "01-701-1047", 4079.0, "DAITM39", "COMPLETE HOUSEHOLD CHORES", "DAD", "LEISURE AND HOUSEWORK", "Y", "", "1", 1.0, "", "", "", "", "", 6.0, "AMBUL ECG REMOVAL", 30.0, "TREATMENT", "2013-03-29", 46.0]
["CDISCPILOT01", "QS", "01-701-1047", 4119.0, "DAITM39", "COMPLETE HOUSEHOLD CHORES", "DAD", "LEISURE AND HOUSEWORK", "Y", "", "1", 1.0, "", "", "", "", "", 201.0, "RETRIEVAL", 168.0, "TREATMENT", "2013-07-28", 167.0]
["CDISCPILOT01", "QS", "01-701-1047", 4040.0, "DAITM40", "STAY SAFELY AT HOME BY HIMSELF/HERSELF", "DAD", "LEISURE AND HOUSEWORK", "Y", "", "1", 1.0, "", "", "", "Y", "", 3.0, "BASELINE", 1.0, "TREATMENT", "2013-02-12", 1.0]
["CDISCPILOT01", "QS", "01-701-1047", 4080.0, "DAITM40", "STAY SAFELY AT HOME BY HIMSELF/HERSELF", "DAD", "LEISURE AND HOUSEWORK", "Y", "", "1", 1.0, "", "", "", "", "", 6.0, "AMBUL ECG REMOVAL", 30.0, "TREATMENT", "2013-03-29", 46.0]
["CDISCPILOT01", "QS", "01-701-1047", 4120.0, "DAITM40", "STAY SAFELY AT HOME BY HIMSELF/HERSELF", "DAD", "LEISURE AND HOUSEWORK", "Y", "", "1", 1.0, "", "", "", "", "", 201.0, "RETRIEVAL", 168.0, "TREATMENT", "2013-07-28", 167.0]
["CDISCPILOT01", "QS", "01-701-1097", 4001.0, "DAITM01", "UNDERTAKE TO WASH HIMSELF/HERSELF", "DAD", "HYGIENE", "Y", "", "1", 1.0, "", "", "", "Y", "", 3.0, "BASELINE", 1.0, "TREATMENT", "2014-01-01", 1.0]
["CDISCPILOT01", "QS", "01-701-1097", 4041.0, "DAITM01", "UNDERTAKE TO WASH HIMSELF/HERSELF", "DAD", "HYGIENE", "Y", "", "1", 1.0, "", "", "", "", "", 8.0, "WEEK 8", 56.0, "TREATMENT", "2014-02-26", 57.0]
["CDISCPILOT01", "QS", "01-701-1097", 4081.0, "DAITM01", "UNDERTAKE TO WASH HIMSELF/HERSELF", "DAD", "HYGIENE", "N", "", "0", 0.0, "", "", "", "", "", 10.0, "WEEK 16", 112.0, "TREATMENT", "2014-04-23", 113.0]
["CDISCPILOT01", "QS", "01-701-1097", 4121.0, "DAITM01", "UNDERTAKE TO WASH HIMSELF/HERSELF", "DAD", "HYGIENE", "N", "", "0", 0.0, "", "", "", "", "", 12.0, "WEEK 24", 168.0, "TREATMENT", "2014-06-18", 169.0]
["CDISCPILOT01", "QS", "01-701-1097", 4002.0, "DAITM02", "UNDERTAKE TO BRUSH HIS/HER TEETH", "DAD", "HYGIENE", "N", "", "0", 0.0, "", "", "", "Y", "", 3.0, "BASELINE", 1.0, "TREATMENT", "2014-01-01", 1.0]
["CDISCPILOT01", "QS", "01-701-1097", 4042.0, "DAITM02", "UNDERTAKE TO BRUSH HIS/HER TEETH", "DAD", "HYGIENE", "Y", "", "1", 1.0, "", "", "", "", "", 8.0, "WEEK 8", 56.0, "TREATMENT", "2014-02-26", 57.0]
["CDISCPILOT01", "QS", "01-701-1097", 4082.0, "DAITM02", "UNDERTAKE TO BRUSH HIS/HER TEETH", "DAD", "HYGIENE", "N", "", "0", 0.0, "", "", "", "", "", 10.0, "WEEK 16", 112.0, "TREATMENT", "2014-04-23", 113.0]
["CDISCPILOT01", "QS", "01-701-1097", 4122.0, "DAITM02", "UNDERTAKE TO BRUSH HIS/HER TEETH", "DAD", "HYGIENE", "N", "", "0", 0.0, "", "", "", "", "", 12.0, "WEEK 24", 168.0, "TREATMENT", "2014-06-18", 169.0]
["CDISCPILOT01", "QS", "01-701-1097", 4003.0, "DAITM03", "DECIDE TO CARE FOR HIS/HER HAIR", "DAD", "HYGIENE", "N", "", "0", 0.0, "", "", "", "Y", "", 3.0, "BASELINE", 1.0, "TREATMENT", "2014-01-01", 1.0]
["CDISCPILOT01", "QS", "01-701-1097", 4043.0, "DAITM03", "DECIDE TO CARE FOR HIS/HER HAIR", "DAD", "HYGIENE", "Y", "", "1", 1.0, "", "", "", "", "", 8.0, "WEEK 8", 56.0, "TREATMENT", "2014-02-26", 57.0]
["CDISCPILOT01", "QS", "01-701-1097", 4083.0, "DAITM03", "DECIDE TO CARE FOR HIS/HER HAIR", "DAD", "HYGIENE", "N", "", "0", 0.0, "", "", "", "", "", 10.0, "WEEK 16", 112.0, "TREATMENT", "2014-04-23", 113.0]
["CDISCPILOT01", "QS", "01-701-1097", 4123.0, "DAITM03", "DECIDE TO CARE FOR HIS/HER HAIR", "DAD", "HYGIENE", "Y", "", "1", 1.0, "", "", "", "", "", 12.0, "WEEK 24", 168.0, "TREATMENT", "2014-06-18", 169.0]
["CDISCPILOT01", "QS", "01-701-1097", 4004.0, "DAITM04", "PREPARE FOR WASHING, TAKING A BATH", "DAD", "HYGIENE", "Y", "", "1", 1.0, "", "", "", "Y", "", 3.0, "BASELINE", 1.0, "TREATMENT", "2014-01-01", 1.0]
["CDISCPILOT01", "QS", "01-701-1097", 4044.0, "DAITM04", "PREPARE FOR WASHING, TAKING A BATH", "DAD", "HYGIENE", "Y", "", "1", 1.0, "", "", "", "", "", 8.0, "WEEK 8", 56.0, "TREATMENT", "2014-02-26", 57.0]
["CDISCPILOT01", "QS", "01-701-1097", 4084.0, "DAITM04", "PREPARE FOR WASHING, TAKING A BATH", "DAD", "HYGIENE", "Y", "", "1", 1.0, "", "", "", "", "", 10.0, "WEEK 16", 112.0, "TREATMENT", "2014-04-23", 113.0]
["CDISCPILOT01", "QS", "01-701-1097", 4124.0, "DAITM04", "PREPARE FOR WASHING, TAKING A BATH", "DAD", "HYGIENE", "Y", "", "1", 1.0, "", "", "", "", "", 12.0, "WEEK 24", 168.0, "TREATMENT", "2014-06-18", 169.0]
["CDISCPILOT01", "QS", "01-701-1097", 4005.0, "DAITM05", "WASH AND DRY COMPLETELY SAFELY", "DAD", "HYGIENE", "Y", "", "1", 1.0, "", "", "", "Y", "", 3.0, "BASELINE", 1.0, "TREATMENT", "2014-01-01", 1.0]
["CDISCPILOT01", "QS", "01-701-1097", 4045.0, "DAITM05", "WASH AND DRY COMPLETELY SAFELY", "DAD", "HYGIENE", "Y", "", "1", 1.0, "", "", "", "", "", 8.0, "WEEK 8", 56.0, "TREATMENT", "2014-02-26", 57.0]
["CDISCPILOT01", "QS", "01-701-1097", 4085.0, "DAITM05", "WASH AND DRY COMPLETELY SAFELY", "DAD", "HYGIENE", "Y", "", "1", 1.0, "", "", "", "", "", 10.0, "WEEK 16", 112.0, "TREATMENT", "2014-04-23", 113.0]
["CDISCPILOT01", "QS", "01-701-1097", 4125.0, "DAITM05", "WASH AND DRY COMPLETELY SAFELY", "DAD", "HYGIENE", "Y", "", "1", 1.0, "", "", "", "", "", 12.0, "WEEK 24", 168.0, "TREATMENT", "2014-06-18", 169.0]
["CDISCPILOT01", "QS", "01-701-1097", 4006.0, "DAITM06", "BRUSH HIS/HER TEETH", "DAD", "HYGIENE", "N", "", "0", 0.0, "", "", "", "Y", "", 3.0, "BASELINE", 1.0, "TREATMENT", "2014-01-01", 1.0]
["CDISCPILOT01", "QS", "01-701-1097", 4046.0, "DAITM06", "BRUSH HIS/HER TEETH", "DAD", "HYGIENE", "N", "", "0", 0.0, "", "", "", "", "", 8.0, "WEEK 8", 56.0, "TREATMENT", "2014-02-26", 57.0]
["CDISCPILOT01", "QS", "01-701-1097", 4086.0, "DAITM06", "BRUSH HIS/HER TEETH", "DAD", "HYGIENE", "Y", "", "1", 1.0, "", "", "", "", "", 10.0, "WEEK 16", 112.0, "TREATMENT", "2014-04-23", 113.0]
["CDISCPILOT01", "QS", "01-701-1097", 4126.0, "DAITM06", "BRUSH HIS/HER TEETH", "DAD", "HYGIENE", "Y", "", "1", 1.0, "", "", "", "", "", 12.0, "WEEK 24", 168.0, "TREATMENT", "2014-06-18", 169.0]
["CDISCPILOT01", "QS", "01-701-1097", 4007.0, "DAITM07", "CARE FOR HIS/HER HAIR", "DAD", "HYGIENE", "N", "", "0", 0.0, "", "", "", "Y", "", 3.0, "BASELINE", 1.0, "TREATMENT", "2014-01-01", 1.0]
["CDISCPILOT01", "QS", "01-701-1097", 4047.0, "DAITM07", "CARE FOR HIS/HER HAIR", "DAD", "HYGIENE", "Y", "", "1", 1.0, "", "", "", "", "", 8.0, "WEEK 8", 56.0, "TREATMENT", "2014-02-26", 57.0]
["CDISCPILOT01", "QS", "01-701-1097", 4087.0, "DAITM07", "CARE FOR HIS/HER HAIR", "DAD", "HYGIENE", "Y", "", "1", 1.0, "", "", "", "", "", 10.0, "WEEK 16", 112.0, "TREATMENT", "2014-04-23", 113.0]
["CDISCPILOT01", "QS", "01-701-1097", 4127.0, "DAITM07", "CARE FOR HIS/HER HAIR", "DAD", "HYGIENE", "Y", "", "1", 1.0, "", "", "", "", "", 12.0, "WEEK 24", 168.0, "TREATMENT", "2014-06-18", 169.0]
["CDISCPILOT01", "QS", "01-701-1097", 4008.0, "DAITM08", "UNDERTAKE TO DRESS HIMSELF/HERSELF", "DAD", "DRESSING", "Y", "", "1", 1.0, "", "", "", "Y", "", 3.0, "BASELINE", 1.0, "TREATMENT", "2014-01-01", 1.0]
["CDISCPILOT01", "QS", "01-701-1097", 4048.0, "DAITM08", "UNDERTAKE TO DRESS HIMSELF/HERSELF", "DAD", "DRESSING", "Y", "", "1", 1.0, "", "", "", "", "", 8.0, "WEEK 8", 56.0, "TREATMENT", "2014-02-26", 57.0]
["CDISCPILOT01", "QS", "01-701-1097", 4088.0, "DAITM08", "UNDERTAKE TO DRESS HIMSELF/HERSELF", "DAD", "DRESSING", "Y", "", "1", 1.0, "", "", "", "", "", 10.0, "WEEK 16", 112.0, "TREATMENT", "2014-04-23", 113.0]
["CDISCPILOT01", "QS", "01-701-1097", 4128.0, "DAITM08", "UNDERTAKE TO DRESS HIMSELF/HERSELF", "DAD", "DRESSING", "Y", "", "1", 1.0, "", "", "", "", "", 12.0, "WEEK 24", 168.0, "TREATMENT", "2014-06-18", 169.0]
["CDISCPILOT01", "QS", "01-701-1097", 4009.0, "DAITM09", "CHOOSE APPROPRIATE CLOTHING", "DAD", "DRESSING", "Y", "", "1", 1.0, "", "", "", "Y", "", 3.0, "BASELINE", 1.0, "TREATMENT", "2014-01-01", 1.0]
["CDISCPILOT01", "QS", "01-701-1097", 4049.0, "DAITM09", "CHOOSE APPROPRIATE CLOTHING", "DAD", "DRESSING", "Y", "", "1", 1.0, "", "", "", "", "", 8.0, "WEEK 8", 56.0, "TREATMENT", "2014-02-26", 57.0]
["CDISCPILOT01", "QS", "01-701-1097", 4089.0, "DAITM09", "CHOOSE APPROPRIATE CLOTHING", "DAD", "DRESSING", "N", "", "0", 0.0, "", "", "", "", "", 10.0, "WEEK 16", 112.0, "TREATMENT", "2014-04-23", 113.0]
["CDISCPILOT01", "QS", "01-701-1097", 4129.0, "DAITM09", "CHOOSE APPROPRIATE CLOTHING", "DAD", "DRESSING", "N", "", "0", 0.0, "", "", "", "", "", 12.0, "WEEK 24", 168.0, "TREATMENT", "2014-06-18", 169.0]
["CDISCPILOT01", "QS", "01-701-1097", 4010.0, "DAITM10", "DRESS HIMSELF/HERSELF", "DAD", "DRESSING", "Y", "", "1", 1.0, "", "", "", "Y", "", 3.0, "BASELINE", 1.0, "TREATMENT", "2014-01-01", 1.0]
["CDISCPILOT01", "QS", "01-701-1097", 4050.0, "DAITM10", "DRESS HIMSELF/HERSELF", "DAD", "DRESSING", "Y", "", "1", 1.0, "", "", "", "", "", 8.0, "WEEK 8", 56.0, "TREATMENT", "2014-02-26", 57.0]
["CDISCPILOT01", "QS", "01-701-1097", 4090.0, "DAITM10", "DRESS HIMSELF/HERSELF", "DAD", "DRESSING", "Y", "", "1", 1.0, "", "", "", "", "", 10.0, "WEEK 16", 112.0, "TREATMENT", "2014-04-23", 113.0]
["CDISCPILOT01", "QS", "01-701-1097", 4130.0, "DAITM10", "DRESS HIMSELF/HERSELF", "DAD", "DRESSING", "Y", "", "1", 1.0, "", "", "", "", "", 12.0, "WEEK 24", 168.0, "TREATMENT", "2014-06-18", 169.0]
["CDISCPILOT01", "QS", "01-701-1097", 4011.0, "DAITM11", "DRESS HIMSELF/HERSELF COMPLETELY", "DAD", "DRESSING", "Y", "", "1", 1.0, "", "", "", "Y", "", 3.0, "BASELINE", 1.0, "TREATMENT", "2014-01-01", 1.0]
["CDISCPILOT01", "QS", "01-701-1097", 4051.0, "DAITM11", "DRESS HIMSELF/HERSELF COMPLETELY", "DAD", "DRESSING", "Y", "", "1", 1.0, "", "", "", "", "", 8.0, "WEEK 8", 56.0, "TREATMENT", "2014-02-26", 57.0]
["CDISCPILOT01", "QS", "01-701-1097", 4091.0, "DAITM11", "DRESS HIMSELF/HERSELF COMPLETELY", "DAD", "DRESSING", "Y", "", "1", 1.0, "", "", "", "", "", 10.0, "WEEK 16", 112.0, "TREATMENT", "2014-04-23", 113.0]
["CDISCPILOT01", "QS", "01-701-1097", 4131.0, "DAITM11", "DRESS HIMSELF/HERSELF COMPLETELY", "DAD", "DRESSING", "Y", "", "1", 1.0, "", "", "", "", "", 12.0, "WEEK 24", 168.0, "TREATMENT", "2014-06-18", 169.0]
["CDISCPILOT01", "QS", "01-701-1097", 4012.0, "DAITM12", "UNDRESS HIMSELF/HERSELF COMPLETELY", "DAD", "DRESSING", "Y", "", "1", 1.0, "", "", "", "Y", "", 3.0, "BASELINE", 1.0, "TREATMENT", "2014-01-01", 1.0]
["CDISCPILOT01", "QS", "01-701-1097", 4052.0, "DAITM12", "UNDRESS HIMSELF/HERSELF COMPLETELY", "DAD", "DRESSING", "Y", "", "1", 1.0, "", "", "", "", "", 8.0, "WEEK 8", 56.0, "TREATMENT", "2014-02-26", 57.0]
["CDISCPILOT01", "QS", "01-701-1097", 4092.0, "DAITM12", "UNDRESS HIMSELF/HERSELF COMPLETELY", "DAD", "DRESSING", "Y", "", "1", 1.0, "", "", "", "", "", 10.0, "WEEK 16", 112.0, "TREATMENT", "2014-04-23", 113.0]
["CDISCPILOT01", "QS", "01-701-1097", 4132.0, "DAITM12", "UNDRESS HIMSELF/HERSELF COMPLETELY", "DAD", "DRESSING", "Y", "", "1", 1.0, "", "", "", "", "", 12.0, "WEEK 24", 168.0, "TREATMENT", "2014-06-18", 169.0]
["CDISCPILOT01", "QS", "01-701-1097", 4013.0, "DAITM13", "DECIDE TO USE THE TOILET AT APPROPRIATE", "DAD", "CONTINENCE", "Y", "", "1", 1.0, "", "", "", "Y", "", 3.0, "BASELINE", 1.0, "TREATMENT", "2014-01-01", 1.0]
["CDISCPILOT01", "QS", "01-701-1097", 4053.0, "DAITM13", "DECIDE TO USE THE TOILET AT APPROPRIATE", "DAD", "CONTINENCE", "Y", "", "1", 1.0, "", "", "", "", "", 8.0, "WEEK 8", 56.0, "TREATMENT", "2014-02-26", 57.0]
["CDISCPILOT01", "QS", "01-701-1097", 4093.0, "DAITM13", "DECIDE TO USE THE TOILET AT APPROPRIATE", "DAD", "CONTINENCE", "Y", "", "1", 1.0, "", "", "", "", "", 10.0, "WEEK 16", 112.0, "TREATMENT", "2014-04-23", 113.0]
["CDISCPILOT01", "QS", "01-701-1097", 4133.0, "DAITM13", "DECIDE TO USE THE TOILET AT APPROPRIATE", "DAD", "CONTINENCE", "Y", "", "1", 1.0, "", "", "", "", "", 12.0, "WEEK 24", 168.0, "TREATMENT", "2014-06-18", 169.0]
["CDISCPILOT01", "QS", "01-701-1097", 4014.0, "DAITM14", "USE THE TOILET WITHOUT \"ACCIDENTS\"", "DAD", "CONTINENCE", "Y", "", "1", 1.0, "", "", "", "Y", "", 3.0, "BASELINE", 1.0, "TREATMENT", "2014-01-01", 1.0]
["CDISCPILOT01", "QS", "01-701-1097", 4054.0, "DAITM14", "USE THE TOILET WITHOUT \"ACCIDENTS\"", "DAD", "CONTINENCE", "Y", "", "1", 1.0, "", "", "", "", "", 8.0, "WEEK 8", 56.0, "TREATMENT", "2014-02-26", 57.0]
["CDISCPILOT01", "QS", "01-701-1097", 4094.0, "DAITM14", "USE THE TOILET WITHOUT \"ACCIDENTS\"", "DAD", "CONTINENCE", "Y", "", "1", 1.0, "", "", "", "", "", 10.0, "WEEK 16", 112.0, "TREATMENT", "2014-04-23", 113.0]
["CDISCPILOT01", "QS", "01-701-1097", 4134.0, "DAITM14", "USE THE TOILET WITHOUT \"ACCIDENTS\"", "DAD", "CONTINENCE", "Y", "", "1", 1.0, "", "", "", "", "", 12.0, "WEEK 24", 168.0, "TREATMENT", "2014-06-18", 169.0]
["CDISCPILOT01", "QS", "01-701-1097", 4015.0, "DAITM15", "DECIDE THAT HE/SHE NEEDS TO EAT", "DAD", "EATING", "Y", "", "1", 1.0, "", "", "", "Y", "", 3.0, "BASELINE", 1.0, "TREATMENT", "2014-01-01", 1.0]
["CDISCPILOT01", "QS", "01-701-1097", 4055.0, "DAITM15", "DECIDE THAT HE/SHE NEEDS TO EAT", "DAD", "EATING", "Y", "", "1", 1.0, "", "", "", "", "", 8.0, "WEEK 8", 56.0, "TREATMENT", "2014-02-26", 57.0]
["CDISCPILOT01", "QS", "01-701-1097", 4095.0, "DAITM15", "DECIDE THAT HE/SHE NEEDS TO EAT", "DAD", "EATING", "Y", "", "1", 1.0, "", "", "", "", "", 10.0, "WEEK 16", 112.0, "TREATMENT", "2014-04-23", 113.0]
["CDISCPILOT01", "QS", "01-701-1097", 4135.0, "DAITM15", "DECIDE THAT HE/SHE NEEDS TO EAT", "DAD", "EATING", "Y", "", "1", 1.0, "", "", "", "", "", 12.0, "WEEK 24", 168.0, "TREATMENT", "2014-06-18", 169.0]
["CDISCPILOT01", "QS", "01-701-1097", 4016.0, "DAITM16", "CHOOSE APPROPRIATE UTENSILS", "DAD", "EATING", "Y", "", "1", 1.0, "", "", "", "Y", "", 3.0, "BASELINE", 1.0, "TREATMENT", "2014-01-01", 1.0]
["CDISCPILOT01", "QS", "01-701-1097", 4056.0, "DAITM16", "CHOOSE APPROPRIATE UTENSILS", "DAD", "EATING", "Y", "", "1", 1.0, "", "", "", "", "", 8.0, "WEEK 8", 56.0, "TREATMENT", "2014-02-26", 57.0]
["CDISCPILOT01", "QS", "01-701-1097", 4096.0, "DAITM16", "CHOOSE APPROPRIATE UTENSILS", "DAD", "EATING", "Y", "", "1", 1.0, "", "", "", "", "", 10.0, "WEEK 16", 112.0, "TREATMENT", "2014-04-23", 113.0]
["CDISCPILOT01", "QS", "01-701-1097", 4136.0, "DAITM16", "CHOOSE APPROPRIATE UTENSILS", "DAD", "EATING", "Y", "", "1", 1.0, "", "", "", "", "", 12.0, "WEEK 24", 168.0, "TREATMENT", "2014-06-18", 169.0]
["CDISCPILOT01", "QS", "01-701-1097", 4017.0, "DAITM17", "EAT HIS/HER MEALS AT A NORMAL PACE", "DAD", "EATING", "Y", "", "1", 1.0, "", "", "", "Y", "", 3.0, "BASELINE", 1.0, "TREATMENT", "2014-01-01", 1.0]
["CDISCPILOT01", "QS", "01-701-1097", 4057.0, "DAITM17", "EAT HIS/HER MEALS AT A NORMAL PACE", "DAD", "EATING", "Y", "", "1", 1.0, "", "", "", "", "", 8.0, "WEEK 8", 56.0, "TREATMENT", "2014-02-26", 57.0]
["CDISCPILOT01", "QS", "01-701-1097", 4097.0, "DAITM17", "EAT HIS/HER MEALS AT A NORMAL PACE", "DAD", "EATING", "Y", "", "1", 1.0, "", "", "", "", "", 10.0, "WEEK 16", 112.0, "TREATMENT", "2014-04-23", 113.0]
["CDISCPILOT01", "QS", "01-701-1097", 4137.0, "DAITM17", "EAT HIS/HER MEALS AT A NORMAL PACE", "DAD", "EATING", "Y", "", "1", 1.0, "", "", "", "", "", 12.0, "WEEK 24", 168.0, "TREATMENT", "2014-06-18", 169.0]
["CDISCPILOT01", "QS", "01-701-1097", 4018.0, "DAITM18", "UNDERTAKE TO PREPARE A LIGHT MEAL", "DAD", "MEAL PREPARATION", "Y", "", "1", 1.0, "", "", "", "Y", "", 3.0, "BASELINE", 1.0, "TREATMENT", "2014-01-01", 1.0]
["CDISCPILOT01", "QS", "01-701-1097", 4058.0, "DAITM18", "UNDERTAKE TO PREPARE A LIGHT MEAL", "DAD", "MEAL PREPARATION", "Y", "", "1", 1.0, "", "", "", "", "", 8.0, "WEEK 8", 56.0, "TREATMENT", "2014-02-26", 57.0]
["CDISCPILOT01", "QS", "01-701-1097", 4098.0, "DAITM18", "UNDERTAKE TO PREPARE A LIGHT MEAL", "DAD", "MEAL PREPARATION", "Y", "", "1", 1.0, "", "", "", "", "", 10.0, "WEEK 16", 112.0, "TREATMENT", "2014-04-23", 113.0]
["CDISCPILOT01", "QS", "01-701-1097", 4138.0, "DAITM18", "UNDERTAKE TO PREPARE A LIGHT MEAL", "DAD", "MEAL PREPARATION", "Y", "", "1", 1.0, "", "", "", "", "", 12.0, "WEEK 24", 168.0, "TREATMENT", "2014-06-18", 169.0]
["CDISCPILOT01", "QS", "01-701-1097", 4019.0, "DAITM19", "ADEQUATELY PLAN A LIGHT MEAL OR SNACK", "DAD", "MEAL PREPARATION", "N", "", "0", 0.0, "", "", "", "Y", "", 3.0, "BASELINE", 1.0, "TREATMENT", "2014-01-01", 1.0]
["CDISCPILOT01", "QS", "01-701-1097", 4059.0, "DAITM19", "ADEQUATELY PLAN A LIGHT MEAL OR SNACK", "DAD", "MEAL PREPARATION", "Y", "", "1", 1.0, "", "", "", "", "", 8.0, "WEEK 8", 56.0, "TREATMENT", "2014-02-26", 57.0]
["CDISCPILOT01", "QS", "01-701-1097", 4099.0, "DAITM19", "ADEQUATELY PLAN A LIGHT MEAL OR SNACK", "DAD", "MEAL PREPARATION", "Y", "", "1", 1.0, "", "", "", "", "", 10.0, "WEEK 16", 112.0, "TREATMENT", "2014-04-23", 113.0]
["CDISCPILOT01", "QS", "01-701-1097", 4139.0, "DAITM19", "ADEQUATELY PLAN A LIGHT MEAL OR SNACK", "DAD", "MEAL PREPARATION", "Y", "", "1", 1.0, "", "", "", "", "", 12.0, "WEEK 24", 168.0, "TREATMENT", "2014-06-18", 169.0]
["CDISCPILOT01", "QS", "01-701-1097", 4020.0, "DAITM20", "PREPARE OR COOK A LIGHT MEAL OR A SNACK", "DAD", "MEAL PREPARATION", "Y", "", "1", 1.0, "", "", "", "Y", "", 3.0, "BASELINE", 1.0, "TREATMENT", "2014-01-01", 1.0]
["CDISCPILOT01", "QS", "01-701-1097", 4060.0, "DAITM20", "PREPARE OR COOK A LIGHT MEAL OR A SNACK", "DAD", "MEAL PREPARATION", "Y", "", "1", 1.0, "", "", "", "", "", 8.0, "WEEK 8", 56.0, "TREATMENT", "2014-02-26", 57.0]
["CDISCPILOT01", "QS", "01-701-1097", 4100.0, "DAITM20", "PREPARE OR COOK A LIGHT MEAL OR A SNACK", "DAD", "MEAL PREPARATION", "Y", "", "1", 1.0, "", "", "", "", "", 10.0, "WEEK 16", 112.0, "TREATMENT", "2014-04-23", 113.0]
["CDISCPILOT01", "QS", "01-701-1097", 4140.0, "DAITM20", "PREPARE OR COOK A LIGHT MEAL OR A SNACK", "DAD", "MEAL PREPARATION", "N", "", "0", 0.0, "", "", "", "", "", 12.0, "WEEK 24", 168.0, "TREATMENT", "2014-06-18", 169.0]
["CDISCPILOT01", "QS", "01-701-1097", 4021.0, "DAITM21", "ATTEMPT TO TELEPHONE SOMEONE", "DAD", "TELEPHONING", "N", "", "0", 0.0, "", "", "", "Y", "", 3.0, "BASELINE", 1.0, "TREATMENT", "2014-01-01", 1.0]
["CDISCPILOT01", "QS", "01-701-1097", 4061.0, "DAITM21", "ATTEMPT TO TELEPHONE SOMEONE", "DAD", "TELEPHONING", "N", "", "0", 0.0, "", "", "", "", "", 8.0, "WEEK 8", 56.0, "TREATMENT", "2014-02-26", 57.0]
["CDISCPILOT01", "QS", "01-701-1097", 4101.0, "DAITM21", "ATTEMPT TO TELEPHONE SOMEONE", "DAD", "TELEPHONING", "N", "", "0", 0.0, "", "", "", "", "", 10.0, "WEEK 16", 112.0, "TREATMENT", "2014-04-23", 113.0]
["CDISCPILOT01", "QS", "01-701-1097", 4141.0, "DAITM21", "ATTEMPT TO TELEPHONE SOMEONE", "DAD", "TELEPHONING", "N", "", "0", 0.0, "", "", "", "", "", 12.0, "WEEK 24", 168.0, "TREATMENT", "2014-06-18", 169.0]
["CDISCPILOT01", "QS", "01-701-1097", 4022.0, "DAITM22", "FIND AND DIAL A TELEPHONE NUMBER CORRECT", "DAD", "TELEPHONING", "N", "", "0", 0.0, "", "", "", "Y", "", 3.0, "BASELINE", 1.0, "TREATMENT", "2014-01-01", 1.0]
["CDISCPILOT01", "QS", "01-701-1097", 4062.0, "DAITM22", "FIND AND DIAL A TELEPHONE NUMBER CORRECT", "DAD", "TELEPHONING", "N", "", "0", 0.0, "", "", "", "", "", 8.0, "WEEK 8", 56.0, "TREATMENT", "2014-02-26", 57.0]
["CDISCPILOT01", "QS", "01-701-1097", 4102.0, "DAITM22", "FIND AND DIAL A TELEPHONE NUMBER CORRECT", "DAD", "TELEPHONING", "N", "", "0", 0.0, "", "", "", "", "", 10.0, "WEEK 16", 112.0, "TREATMENT", "2014-04-23", 113.0]
["CDISCPILOT01", "QS", "01-701-1097", 4142.0, "DAITM22", "FIND AND DIAL A TELEPHONE NUMBER CORRECT", "DAD", "TELEPHONING", "N", "", "0", 0.0, "", "", "", "", "", 12.0, "WEEK 24", 168.0, "TREATMENT", "2014-06-18", 169.0]
["CDISCPILOT01", "QS", "01-701-1097", 4023.0, "DAITM23", "CARRY OUT A TELEPHONE CONVERSATION", "DAD", "TELEPHONING", "Y", "", "1", 1.0, "", "", "", "Y", "", 3.0, "BASELINE", 1.0, "TREATMENT", "2014-01-01", 1.0]
["CDISCPILOT01", "QS", "01-701-1097", 4063.0, "DAITM23", "CARRY OUT A TELEPHONE CONVERSATION", "DAD", "TELEPHONING", "Y", "", "1", 1.0, "", "", "", "", "", 8.0, "WEEK 8", 56.0, "TREATMENT", "2014-02-26", 57.0]
["CDISCPILOT01", "QS", "01-701-1097", 4103.0, "DAITM23", "CARRY OUT A TELEPHONE CONVERSATION", "DAD", "TELEPHONING", "N", "", "0", 0.0, "", "", "", "", "", 10.0, "WEEK 16", 112.0, "TREATMENT", "2014-04-23", 113.0]
