{"datasetJSONCreationDateTime": "2025-10-13T16:15:20", "datasetJSONVersion": "1.1.0", "itemGroupOID": "{QSNI", "records": 71200, "name": "QSNI", "label": "QSNI", "columns": [{"itemOID": "IT.STUDYID", "name": "STUDYID", "label": "Study Identifier", "dataType": "string"}, {"itemOID": "IT.DOMAIN", "name": "DOMAIN", "label": "Domain Abbreviation", "dataType": "string"}, {"itemOID": "IT.USUBJID", "name": "USUBJID", "label": "Unique Subject Identifier", "dataType": "string"}, {"itemOID": "IT.QSSEQ", "name": "QSSEQ", "label": "Sequence Number", "dataType": "double"}, {"itemOID": "IT.QSTESTCD", "name": "QSTESTCD", "label": "Question Short Name", "dataType": "string"}, {"itemOID": "IT.QSTEST", "name": "QSTEST", "label": "Question Name", "dataType": "string"}, {"itemOID": "IT.QSCAT", "name": "QSCAT", "label": "Category of Question", "dataType": "string"}, {"itemOID": "IT.QSSCAT", "name": "QSSCAT", "label": "Subcategory for Question", "dataType": "string"}, {"itemOID": "IT.QSORRES", "name": "QSORRES", "label": "Finding in Original Units", "dataType": "string"}, {"itemOID": "IT.QSORRESU", "name": "QSORRESU", "label": "Original Units", "dataType": "string"}, {"itemOID": "IT.QSSTRESC", "name": "QSSTRESC", "label": "Result or Finding in Standard Format", "dataType": "string"}, {"itemOID": "IT.QSSTRESN", "name": "QSSTRESN", "label": "Numeric Finding in Standard Units", "dataType": "double"}, {"itemOID": "IT.QSSTRESU", "name": "QSSTRESU", "label": "Standard Units", "dataType": "string"}, {"itemOID": "IT.QSSTAT", "name": "QSSTAT", "label": "Completion Status", "dataType": "string"}, {"itemOID": "IT.QSREASND", "name": "QSREASND", "label": "Reason Not Performed", "dataType": "string"}, {"itemOID": "IT.QSBLFL", "name": "QSBLFL", "label": "Baseline Flag", "dataType": "string"}, {"itemOID": "IT.QSDRVFL", "name": "QSDRVFL", "label": "Derived Flag", "dataType": "string"}, {"itemOID": "IT.VISITNUM", "name": "VISITNUM", "label": "Visit Number", "dataType": "double"}, {"itemOID": "IT.VISIT", "name": "VISIT", "label": "Visit Name", "dataType": "string"}, {"itemOID": "IT.VISITDY", "name": "VISITDY", "label": "Planned Study Day of Visit", "dataType": "double"}, {"itemOID": "IT.EPOCH", "name": "EPOCH", "label": "Epoch", "dataType": "string"}, {"itemOID": "IT.QSDTC", "name": "QSDTC", "label": "Date/Time of Finding", "dataType": "string"}, {"itemOID": "IT.QSDY", "name": "QSDY", "label": "Study Day of Finding", "dataType": "double"}]}
["CDISCPILOT01", "QS", "01-701-1015", 3001.0, "NPITM01", "DELUSIONS PRESENT", "NPI", "DELUSIONS", "ABSENT", "", "0", 0.0, "", "", "", "Y", "", 3.0, "BASELINE", 1.0, "TREATMENT", "2014-01-02", 1.0]
["CDISCPILOT01", "QS", "01-701-1015", 3002.0, "NPITM01S", "DELUSIONS Score", "NPI", "DELUSIONS", "0", "", "0", 0.0, "", "", "", "Y", "Y", 3.0, "BASELINE", 1.0, "TREATMENT", "2014-01-02", 1.0]
["CDISCPILOT01", "QS", "01-701-1015", 3026.0, "NPITM01", "DELUSIONS PRESENT", "NPI", "DELUSIONS", "ABSENT", "", "0", 0.0, "", "", "", "", "", 4.0, "WEEK 2", 14.0, "TREATMENT", "2014-01-16", 15.0]
["CDISCPILOT01", "QS", "01-701-1015", 3027.0, "NPITM01S", "DELUSIONS Score", "NPI", "DELUSIONS", "0", "", "0", 0.0, "", "", "", "", "Y", 4.0, "WEEK 2", 14.0, "TREATMENT", "2014-01-16", 15.0]
["CDISCPILOT01", "QS", "01-701-1015", 3051.0, "NPITM01", "DELUSIONS PRESENT", "NPI", "DELUSIONS", "ABSENT", "", "0", 0.0, "", "", "", "", "", 5.0, "WEEK 4", 28.0, "TREATMENT", "2014-01-30", 29.0]
["CDISCPILOT01", "QS", "01-701-1015", 3052.0, "NPITM01S", "DELUSIONS Score", "NPI", "DELUSIONS", "0", "", "0", 0.0, "", "", "", "", "Y", 5.0, "WEEK 4", 28.0, "TREATMENT", "2014-01-30", 29.0]
["CDISCPILOT01", "QS", "01-701-1015", 3076.0, "NPITM01", "DELUSIONS PRESENT", "NPI", "DELUSIONS", "ABSENT", "", "0", 0.0, "", "", "", "", "", 7.0, "WEEK 6", 42.0, "TREATMENT", "2014-02-12", 42.0]
["CDISCPILOT01", "QS", "01-701-1015", 3077.0, "NPITM01S", "DELUSIONS Score", "NPI", "DELUSIONS", "0", "", "0", 0.0, "", "", "", "", "Y", 7.0, "WEEK 6", 42.0, "TREATMENT", "2014-02-12", 42.0]
["CDISCPILOT01", "QS", "01-701-1015", 3101.0, "NPITM01", "DELUSIONS PRESENT", "NPI", "DELUSIONS", "ABSENT", "", "0", 0.0, "", "", "", "", "", 8.0, "WEEK 8", 56.0, "TREATMENT", "2014-03-05", 63.0]
["CDISCPILOT01", "QS", "01-701-1015", 3102.0, "NPITM01S", "DELUSIONS Score", "NPI", "DELUSIONS", "0", "", "0", 0.0, "", "", "", "", "Y", 8.0, "WEEK 8", 56.0, "TREATMENT", "2014-03-05", 63.0]
["CDISCPILOT01", "QS", "01-701-1015", 3126.0, "NPITM01", "DELUSIONS PRESENT", "NPI", "DELUSIONS", "ABSENT", "", "0", 0.0, "", "", "", "", "", 9.0, "WEEK 12", 84.0, "TREATMENT", "2014-03-26", 84.0]
["CDISCPILOT01", "QS", "01-701-1015", 3127.0, "NPITM01S", "DELUSIONS Score", "NPI", "DELUSIONS", "0", "", "0", 0.0, "", "", "", "", "Y", 9.0, "WEEK 12", 84.0, "TREATMENT", "2014-03-26", 84.0]
["CDISCPILOT01", "QS", "01-701-1015", 3151.0, "NPITM01", "DELUSIONS PRESENT", "NPI", "DELUSIONS", "ABSENT", "", "0", 0.0, "", "", "", "", "", 9.1, "WEEK 14 (T)", 98.0, "TREATMENT", "2014-04-09", 98.0]
["CDISCPILOT01", "QS", "01-701-1015", 3152.0, "NPITM01S", "DELUSIONS Score", "NPI", "DELUSIONS", "0", "", "0", 0.0, "", "", "", "", "Y", 9.1, "WEEK 14 (T)", 98.0, "TREATMENT", "2014-04-09", 98.0]
["CDISCPILOT01", "QS", "01-701-1015", 3176.0, "NPITM01", "DELUSIONS PRESENT", "NPI", "DELUSIONS", "ABSENT", "", "0", 0.0, "", "", "", "", "", 10.0, "WEEK 16", 112.0, "TREATMENT", "2014-05-07", 126.0]
["CDISCPILOT01", "QS", "01-701-1015", 3177.0, "NPITM01S", "DELUSIONS Score", "NPI", "DELUSIONS", "0", "", "0", 0.0, "", "", "", "", "Y", 10.0, "WEEK 16", 112.0, "TREATMENT", "2014-05-07", 126.0]
["CDISCPILOT01", "QS", "01-701-1015", 3201.0, "NPITM01", "DELUSIONS PRESENT", "NPI", "DELUSIONS", "ABSENT", "", "0", 0.0, "", "", "", "", "", 11.0, "WEEK 20", 140.0, "TREATMENT", "2014-05-21", 140.0]
["CDISCPILOT01", "QS", "01-701-1015", 3202.0, "NPITM01S", "DELUSIONS Score", "NPI", "DELUSIONS", "0", "", "0", 0.0, "", "", "", "", "Y", 11.0, "WEEK 20", 140.0, "TREATMENT", "2014-05-21", 140.0]
["CDISCPILOT01", "QS", "01-701-1015", 3226.0, "NPITM01", "DELUSIONS PRESENT", "NPI", "DELUSIONS", "ABSENT", "", "0", 0.0, "", "", "", "", "", 11.1, "WEEK 22 (T)", 154.0, "TREATMENT", "2014-06-04", 154.0]
["CDISCPILOT01", "QS", "01-701-1015", 3227.0, "NPITM01S", "DELUSIONS Score", "NPI", "DELUSIONS", "0", "", "0", 0.0, "", "", "", "", "Y", 11.1, "WEEK 22 (T)", 154.0, "TREATMENT", "2014-06-04", 154.0]
["CDISCPILOT01", "QS", "01-701-1015", 3251.0, "NPITM01", "DELUSIONS PRESENT", "NPI", "DELUSIONS", "ABSENT", "", "0", 0.0, "", "", "", "", "", 12.0, "WEEK 24", 168.0, "TREATMENT", "2014-06-18", 168.0]
["CDISCPILOT01", "QS", "01-701-1015", 3252.0, "NPITM01S", "DELUSIONS Score", "NPI", "DELUSIONS", "0", "", "0", 0.0, "", "", "", "", "Y", 12.0, "WEEK 24", 168.0, "TREATMENT", "2014-06-18", 168.0]
["CDISCPILOT01", "QS", "01-701-1015", 3276.0, "NPITM01", "DELUSIONS PRESENT", "NPI", "DELUSIONS", "ABSENT", "", "0", 0.0, "", "", "", "", "", 13.0, "WEEK 26", 182.0, "TREATMENT", "2014-07-02", 182.0]
["CDISCPILOT01", "QS", "01-701-1015", 3277.0, "NPITM01S", "DELUSIONS Score", "NPI", "DELUSIONS", "0", "", "0", 0.0, "", "", "", "", "Y", 13.0, "WEEK 26", 182.0, "TREATMENT", "2014-07-02", 182.0]
["CDISCPILOT01", "QS", "01-701-1015", 3003.0, "NPITM02", "HALLUCINATIONS PRESENT", "NPI", "HALLUCINATIONS", "ABSENT", "", "0", 0.0, "", "", "", "Y", "", 3.0, "BASELINE", 1.0, "TREATMENT", "2014-01-02", 1.0]
["CDISCPILOT01", "QS", "01-701-1015", 3004.0, "NPITM02S", "HALLUCINATIONS Score", "NPI", "HALLUCINATIONS", "0", "", "0", 0.0, "", "", "", "Y", "Y", 3.0, "BASELINE", 1.0, "TREATMENT", "2014-01-02", 1.0]
["CDISCPILOT01", "QS", "01-701-1015", 3028.0, "NPITM02", "HALLUCINATIONS PRESENT", "NPI", "HALLUCINATIONS", "ABSENT", "", "0", 0.0, "", "", "", "", "", 4.0, "WEEK 2", 14.0, "TREATMENT", "2014-01-16", 15.0]
["CDISCPILOT01", "QS", "01-701-1015", 3029.0, "NPITM02S", "HALLUCINATIONS Score", "NPI", "HALLUCINATIONS", "0", "", "0", 0.0, "", "", "", "", "Y", 4.0, "WEEK 2", 14.0, "TREATMENT", "2014-01-16", 15.0]
["CDISCPILOT01", "QS", "01-701-1015", 3053.0, "NPITM02", "HALLUCINATIONS PRESENT", "NPI", "HALLUCINATIONS", "ABSENT", "", "0", 0.0, "", "", "", "", "", 5.0, "WEEK 4", 28.0, "TREATMENT", "2014-01-30", 29.0]
["CDISCPILOT01", "QS", "01-701-1015", 3054.0, "NPITM02S", "HALLUCINATIONS Score", "NPI", "HALLUCINATIONS", "0", "", "0", 0.0, "", "", "", "", "Y", 5.0, "WEEK 4", 28.0, "TREATMENT", "2014-01-30", 29.0]
["CDISCPILOT01", "QS", "01-701-1015", 3078.0, "NPITM02", "HALLUCINATIONS PRESENT", "NPI", "HALLUCINATIONS", "ABSENT", "", "0", 0.0, "", "", "", "", "", 7.0, "WEEK 6", 42.0, "TREATMENT", "2014-02-12", 42.0]
["CDISCPILOT01", "QS", "01-701-1015", 3079.0, "NPITM02S", "HALLUCINATIONS Score", "NPI", "HALLUCINATIONS", "0", "", "0", 0.0, "", "", "", "", "Y", 7.0, "WEEK 6", 42.0, "TREATMENT", "2014-02-12", 42.0]
["CDISCPILOT01", "QS", "01-701-1015", 3103.0, "NPITM02", "HALLUCINATIONS PRESENT", "NPI", "HALLUCINATIONS", "ABSENT", "", "0", 0.0, "", "", "", "", "", 8.0, "WEEK 8", 56.0, "TREATMENT", "2014-03-05", 63.0]
["CDISCPILOT01", "QS", "01-701-1015", 3104.0, "NPITM02S", "HALLUCINATIONS Score", "NPI", "HALLUCINATIONS", "0", "", "0", 0.0, "", "", "", "", "Y", 8.0, "WEEK 8", 56.0, "TREATMENT", "2014-03-05", 63.0]
["CDISCPILOT01", "QS", "01-701-1015", 3128.0, "NPITM02", "HALLUCINATIONS PRESENT", "NPI", "HALLUCINATIONS", "ABSENT", "", "0", 0.0, "", "", "", "", "", 9.0, "WEEK 12", 84.0, "TREATMENT", "2014-03-26", 84.0]
["CDISCPILOT01", "QS", "01-701-1015", 3129.0, "NPITM02S", "HALLUCINATIONS Score", "NPI", "HALLUCINATIONS", "0", "", "0", 0.0, "", "", "", "", "Y", 9.0, "WEEK 12", 84.0, "TREATMENT", "2014-03-26", 84.0]
["CDISCPILOT01", "QS", "01-701-1015", 3153.0, "NPITM02", "HALLUCINATIONS PRESENT", "NPI", "HALLUCINATIONS", "ABSENT", "", "0", 0.0, "", "", "", "", "", 9.1, "WEEK 14 (T)", 98.0, "TREATMENT", "2014-04-09", 98.0]
["CDISCPILOT01", "QS", "01-701-1015", 3154.0, "NPITM02S", "HALLUCINATIONS Score", "NPI", "HALLUCINATIONS", "0", "", "0", 0.0, "", "", "", "", "Y", 9.1, "WEEK 14 (T)", 98.0, "TREATMENT", "2014-04-09", 98.0]
["CDISCPILOT01", "QS", "01-701-1015", 3178.0, "NPITM02", "HALLUCINATIONS PRESENT", "NPI", "HALLUCINATIONS", "ABSENT", "", "0", 0.0, "", "", "", "", "", 10.0, "WEEK 16", 112.0, "TREATMENT", "2014-05-07", 126.0]
["CDISCPILOT01", "QS", "01-701-1015", 3179.0, "NPITM02S", "HALLUCINATIONS Score", "NPI", "HALLUCINATIONS", "0", "", "0", 0.0, "", "", "", "", "Y", 10.0, "WEEK 16", 112.0, "TREATMENT", "2014-05-07", 126.0]
["CDISCPILOT01", "QS", "01-701-1015", 3203.0, "NPITM02", "HALLUCINATIONS PRESENT", "NPI", "HALLUCINATIONS", "ABSENT", "", "0", 0.0, "", "", "", "", "", 11.0, "WEEK 20", 140.0, "TREATMENT", "2014-05-21", 140.0]
["CDISCPILOT01", "QS", "01-701-1015", 3204.0, "NPITM02S", "HALLUCINATIONS Score", "NPI", "HALLUCINATIONS", "0", "", "0", 0.0, "", "", "", "", "Y", 11.0, "WEEK 20", 140.0, "TREATMENT", "2014-05-21", 140.0]
["CDISCPILOT01", "QS", "01-701-1015", 3228.0, "NPITM02", "HALLUCINATIONS PRESENT", "NPI", "HALLUCINATIONS", "ABSENT", "", "0", 0.0, "", "", "", "", "", 11.1, "WEEK 22 (T)", 154.0, "TREATMENT", "2014-06-04", 154.0]
["CDISCPILOT01", "QS", "01-701-1015", 3229.0, "NPITM02S", "HALLUCINATIONS Score", "NPI", "HALLUCINATIONS", "0", "", "0", 0.0, "", "", "", "", "Y", 11.1, "WEEK 22 (T)", 154.0, "TREATMENT", "2014-06-04", 154.0]
["CDISCPILOT01", "QS", "01-701-1015", 3253.0, "NPITM02", "HALLUCINATIONS PRESENT", "NPI", "HALLUCINATIONS", "ABSENT", "", "0", 0.0, "", "", "", "", "", 12.0, "WEEK 24", 168.0, "TREATMENT", "2014-06-18", 168.0]
["CDISCPILOT01", "QS", "01-701-1015", 3254.0, "NPITM02S", "HALLUCINATIONS Score", "NPI", "HALLUCINATIONS", "0", "", "0", 0.0, "", "", "", "", "Y", 12.0, "WEEK 24", 168.0, "TREATMENT", "2014-06-18", 168.0]
["CDISCPILOT01", "QS", "01-701-1015", 3278.0, "NPITM02", "HALLUCINATIONS PRESENT", "NPI", "HALLUCINATIONS", "ABSENT", "", "0", 0.0, "", "", "", "", "", 13.0, "WEEK 26", 182.0, "TREATMENT", "2014-07-02", 182.0]
["CDISCPILOT01", "QS", "01-701-1015", 3279.0, "NPITM02S", "HALLUCINATIONS Score", "NPI", "HALLUCINATIONS", "0", "", "0", 0.0, "", "", "", "", "Y", 13.0, "WEEK 26", 182.0, "TREATMENT", "2014-07-02", 182.0]
["CDISCPILOT01", "QS", "01-701-1015", 3005.0, "NPITM03", "AGITATION/AGRESSION PRESENT", "NPI", "AGITATION/AGRESSION", "ABSENT", "", "0", 0.0, "", "", "", "Y", "", 3.0, "BASELINE", 1.0, "TREATMENT", "2014-01-02", 1.0]
["CDISCPILOT01", "QS", "01-701-1015", 3006.0, "NPITM03S", "AGITATION/AGRESSION Score", "NPI", "AGITATION/AGRESSION", "0", "", "0", 0.0, "", "", "", "Y", "Y", 3.0, "BASELINE", 1.0, "TREATMENT", "2014-01-02", 1.0]
["CDISCPILOT01", "QS", "01-701-1015", 3030.0, "NPITM03", "AGITATION/AGRESSION PRESENT", "NPI", "AGITATION/AGRESSION", "ABSENT", "", "0", 0.0, "", "", "", "", "", 4.0, "WEEK 2", 14.0, "TREATMENT", "2014-01-16", 15.0]
["CDISCPILOT01", "QS", "01-701-1015", 3031.0, "NPITM03S", "AGITATION/AGRESSION Score", "NPI", "AGITATION/AGRESSION", "0", "", "0", 0.0, "", "", "", "", "Y", 4.0, "WEEK 2", 14.0, "TREATMENT", "2014-01-16", 15.0]
["CDISCPILOT01", "QS", "01-701-1015", 3055.0, "NPITM03", "AGITATION/AGRESSION PRESENT", "NPI", "AGITATION/AGRESSION", "ABSENT", "", "0", 0.0, "", "", "", "", "", 5.0, "WEEK 4", 28.0, "TREATMENT", "2014-01-30", 29.0]
["CDISCPILOT01", "QS", "01-701-1015", 3056.0, "NPITM03S", "AGITATION/AGRESSION Score", "NPI", "AGITATION/AGRESSION", "0", "", "0", 0.0, "", "", "", "", "Y", 5.0, "WEEK 4", 28.0, "TREATMENT", "2014-01-30", 29.0]
["CDISCPILOT01", "QS", "01-701-1015", 3080.0, "NPITM03", "AGITATION/AGRESSION PRESENT", "NPI", "AGITATION/AGRESSION", "ABSENT", "", "0", 0.0, "", "", "", "", "", 7.0, "WEEK 6", 42.0, "TREATMENT", "2014-02-12", 42.0]
["CDISCPILOT01", "QS", "01-701-1015", 3081.0, "NPITM03S", "AGITATION/AGRESSION Score", "NPI", "AGITATION/AGRESSION", "0", "", "0", 0.0, "", "", "", "", "Y", 7.0, "WEEK 6", 42.0, "TREATMENT", "2014-02-12", 42.0]
["CDISCPILOT01", "QS", "01-701-1015", 3105.0, "NPITM03", "AGITATION/AGRESSION PRESENT", "NPI", "AGITATION/AGRESSION", "ABSENT", "", "0", 0.0, "", "", "", "", "", 8.0, "WEEK 8", 56.0, "TREATMENT", "2014-03-05", 63.0]
["CDISCPILOT01", "QS", "01-701-1015", 3106.0, "NPITM03S", "AGITATION/AGRESSION Score", "NPI", "AGITATION/AGRESSION", "0", "", "0", 0.0, "", "", "", "", "Y", 8.0, "WEEK 8", 56.0, "TREATMENT", "2014-03-05", 63.0]
["CDISCPILOT01", "QS", "01-701-1015", 3130.0, "NPITM03", "AGITATION/AGRESSION PRESENT", "NPI", "AGITATION/AGRESSION", "ABSENT", "", "0", 0.0, "", "", "", "", "", 9.0, "WEEK 12", 84.0, "TREATMENT", "2014-03-26", 84.0]
["CDISCPILOT01", "QS", "01-701-1015", 3131.0, "NPITM03S", "AGITATION/AGRESSION Score", "NPI", "AGITATION/AGRESSION", "0", "", "0", 0.0, "", "", "", "", "Y", 9.0, "WEEK 12", 84.0, "TREATMENT", "2014-03-26", 84.0]
["CDISCPILOT01", "QS", "01-701-1015", 3155.0, "NPITM03", "AGITATION/AGRESSION PRESENT", "NPI", "AGITATION/AGRESSION", "ABSENT", "", "0", 0.0, "", "", "", "", "", 9.1, "WEEK 14 (T)", 98.0, "TREATMENT", "2014-04-09", 98.0]
["CDISCPILOT01", "QS", "01-701-1015", 3156.0, "NPITM03S", "AGITATION/AGRESSION Score", "NPI", "AGITATION/AGRESSION", "0", "", "0", 0.0, "", "", "", "", "Y", 9.1, "WEEK 14 (T)", 98.0, "TREATMENT", "2014-04-09", 98.0]
["CDISCPILOT01", "QS", "01-701-1015", 3180.0, "NPITM03", "AGITATION/AGRESSION PRESENT", "NPI", "AGITATION/AGRESSION", "ABSENT", "", "0", 0.0, "", "", "", "", "", 10.0, "WEEK 16", 112.0, "TREATMENT", "2014-05-07", 126.0]
["CDISCPILOT01", "QS", "01-701-1015", 3181.0, "NPITM03S", "AGITATION/AGRESSION Score", "NPI", "AGITATION/AGRESSION", "0", "", "0", 0.0, "", "", "", "", "Y", 10.0, "WEEK 16", 112.0, "TREATMENT", "2014-05-07", 126.0]
["CDISCPILOT01", "QS", "01-701-1015", 3205.0, "NPITM03", "AGITATION/AGRESSION PRESENT", "NPI", "AGITATION/AGRESSION", "ABSENT", "", "0", 0.0, "", "", "", "", "", 11.0, "WEEK 20", 140.0, "TREATMENT", "2014-05-21", 140.0]
["CDISCPILOT01", "QS", "01-701-1015", 3206.0, "NPITM03S", "AGITATION/AGRESSION Score", "NPI", "AGITATION/AGRESSION", "0", "", "0", 0.0, "", "", "", "", "Y", 11.0, "WEEK 20", 140.0, "TREATMENT", "2014-05-21", 140.0]
["CDISCPILOT01", "QS", "01-701-1015", 3230.0, "NPITM03", "AGITATION/AGRESSION PRESENT", "NPI", "AGITATION/AGRESSION", "ABSENT", "", "0", 0.0, "", "", "", "", "", 11.1, "WEEK 22 (T)", 154.0, "TREATMENT", "2014-06-04", 154.0]
["CDISCPILOT01", "QS", "01-701-1015", 3231.0, "NPITM03S", "AGITATION/AGRESSION Score", "NPI", "AGITATION/AGRESSION", "0", "", "0", 0.0, "", "", "", "", "Y", 11.1, "WEEK 22 (T)", 154.0, "TREATMENT", "2014-06-04", 154.0]
["CDISCPILOT01", "QS", "01-701-1015", 3255.0, "NPITM03", "AGITATION/AGRESSION PRESENT", "NPI", "AGITATION/AGRESSION", "ABSENT", "", "0", 0.0, "", "", "", "", "", 12.0, "WEEK 24", 168.0, "TREATMENT", "2014-06-18", 168.0]
["CDISCPILOT01", "QS", "01-701-1015", 3256.0, "NPITM03S", "AGITATION/AGRESSION Score", "NPI", "AGITATION/AGRESSION", "0", "", "0", 0.0, "", "", "", "", "Y", 12.0, "WEEK 24", 168.0, "TREATMENT", "2014-06-18", 168.0]
["CDISCPILOT01", "QS", "01-701-1015", 3280.0, "NPITM03", "AGITATION/AGRESSION PRESENT", "NPI", "AGITATION/AGRESSION", "ABSENT", "", "0", 0.0, "", "", "", "", "", 13.0, "WEEK 26", 182.0, "TREATMENT", "2014-07-02", 182.0]
["CDISCPILOT01", "QS", "01-701-1015", 3281.0, "NPITM03S", "AGITATION/AGRESSION Score", "NPI", "AGITATION/AGRESSION", "0", "", "0", 0.0, "", "", "", "", "Y", 13.0, "WEEK 26", 182.0, "TREATMENT", "2014-07-02", 182.0]
["CDISCPILOT01", "QS", "01-701-1015", 3007.0, "NPITM04", "DEPRESSION/DYSPHORIA PRESENT", "NPI", "DEPRESSION/DYSPHORIA", "ABSENT", "", "0", 0.0, "", "", "", "Y", "", 3.0, "BASELINE", 1.0, "TREATMENT", "2014-01-02", 1.0]
["CDISCPILOT01", "QS", "01-701-1015", 3008.0, "NPITM04S", "DEPRESSION/DYSPHORIA Score", "NPI", "DEPRESSION/DYSPHORIA", "0", "", "0", 0.0, "", "", "", "Y", "Y", 3.0, "BASELINE", 1.0, "TREATMENT", "2014-01-02", 1.0]
["CDISCPILOT01", "QS", "01-701-1015", 3032.0, "NPITM04", "DEPRESSION/DYSPHORIA PRESENT", "NPI", "DEPRESSION/DYSPHORIA", "ABSENT", "", "0", 0.0, "", "", "", "", "", 4.0, "WEEK 2", 14.0, "TREATMENT", "2014-01-16", 15.0]
["CDISCPILOT01", "QS", "01-701-1015", 3033.0, "NPITM04S", "DEPRESSION/DYSPHORIA Score", "NPI", "DEPRESSION/DYSPHORIA", "0", "", "0", 0.0, "", "", "", "", "Y", 4.0, "WEEK 2", 14.0, "TREATMENT", "2014-01-16", 15.0]
["CDISCPILOT01", "QS", "01-701-1015", 3057.0, "NPITM04", "DEPRESSION/DYSPHORIA PRESENT", "NPI", "DEPRESSION/DYSPHORIA", "ABSENT", "", "0", 0.0, "", "", "", "", "", 5.0, "WEEK 4", 28.0, "TREATMENT", "2014-01-30", 29.0]
["CDISCPILOT01", "QS", "01-701-1015", 3058.0, "NPITM04S", "DEPRESSION/DYSPHORIA Score", "NPI", "DEPRESSION/DYSPHORIA", "0", "", "0", 0.0, "", "", "", "", "Y", 5.0, "WEEK 4", 28.0, "TREATMENT", "2014-01-30", 29.0]
["CDISCPILOT01", "QS", "01-701-1015", 3082.0, "NPITM04", "DEPRESSION/DYSPHORIA PRESENT", "NPI", "DEPRESSION/DYSPHORIA", "ABSENT", "", "0", 0.0, "", "", "", "", "", 7.0, "WEEK 6", 42.0, "TREATMENT", "2014-02-12", 42.0]
["CDISCPILOT01", "QS", "01-701-1015", 3083.0, "NPITM04S", "DEPRESSION/DYSPHORIA Score", "NPI", "DEPRESSION/DYSPHORIA", "0", "", "0", 0.0, "", "", "", "", "Y", 7.0, "WEEK 6", 42.0, "TREATMENT", "2014-02-12", 42.0]
["CDISCPILOT01", "QS", "01-701-1015", 3107.0, "NPITM04", "DEPRESSION/DYSPHORIA PRESENT", "NPI", "DEPRESSION/DYSPHORIA", "ABSENT", "", "0", 0.0, "", "", "", "", "", 8.0, "WEEK 8", 56.0, "TREATMENT", "2014-03-05", 63.0]
["CDISCPILOT01", "QS", "01-701-1015", 3108.0, "NPITM04S", "DEPRESSION/DYSPHORIA Score", "NPI", "DEPRESSION/DYSPHORIA", "0", "", "0", 0.0, "", "", "", "", "Y", 8.0, "WEEK 8", 56.0, "TREATMENT", "2014-03-05", 63.0]
["CDISCPILOT01", "QS", "01-701-1015", 3132.0, "NPITM04", "DEPRESSION/DYSPHORIA PRESENT", "NPI", "DEPRESSION/DYSPHORIA", "ABSENT", "", "0", 0.0, "", "", "", "", "", 9.0, "WEEK 12", 84.0, "TREATMENT", "2014-03-26", 84.0]
["CDISCPILOT01", "QS", "01-701-1015", 3133.0, "NPITM04S", "DEPRESSION/DYSPHORIA Score", "NPI", "DEPRESSION/DYSPHORIA", "0", "", "0", 0.0, "", "", "", "", "Y", 9.0, "WEEK 12", 84.0, "TREATMENT", "2014-03-26", 84.0]
["CDISCPILOT01", "QS", "01-701-1015", 3157.0, "NPITM04", "DEPRESSION/DYSPHORIA PRESENT", "NPI", "DEPRESSION/DYSPHORIA", "ABSENT", "", "0", 0.0, "", "", "", "", "", 9.1, "WEEK 14 (T)", 98.0, "TREATMENT", "2014-04-09", 98.0]
["CDISCPILOT01", "QS", "01-701-1015", 3158.0, "NPITM04S", "DEPRESSION/DYSPHORIA Score", "NPI", "DEPRESSION/DYSPHORIA", "0", "", "0", 0.0, "", "", "", "", "Y", 9.1, "WEEK 14 (T)", 98.0, "TREATMENT", "2014-04-09", 98.0]
["CDISCPILOT01", "QS", "01-701-1015", 3182.0, "NPITM04", "DEPRESSION/DYSPHORIA PRESENT", "NPI", "DEPRESSION/DYSPHORIA", "ABSENT", "", "0", 0.0, "", "", "", "", "", 10.0, "WEEK 16", 112.0, "TREATMENT", "2014-05-07", 126.0]
["CDISCPILOT01", "QS", "01-701-1015", 3183.0, "NPITM04S", "DEPRESSION/DYSPHORIA Score", "NPI", "DEPRESSION/DYSPHORIA", "0", "", "0", 0.0, "", "", "", "", "Y", 10.0, "WEEK 16", 112.0, "TREATMENT", "2014-05-07", 126.0]
["CDISCPILOT01", "QS", "01-701-1015", 3207.0, "NPITM04", "DEPRESSION/DYSPHORIA PRESENT", "NPI", "DEPRESSION/DYSPHORIA", "ABSENT", "", "0", 0.0, "", "", "", "", "", 11.0, "WEEK 20", 140.0, "TREATMENT", "2014-05-21", 140.0]
["CDISCPILOT01", "QS", "01-701-1015", 3208.0, "NPITM04S", "DEPRESSION/DYSPHORIA Score", "NPI", "DEPRESSION/DYSPHORIA", "0", "", "0", 0.0, "", "", "", "", "Y", 11.0, "WEEK 20", 140.0, "TREATMENT", "2014-05-21", 140.0]
["CDISCPILOT01", "QS", "01-701-1015", 3232.0, "NPITM04", "DEPRESSION/DYSPHORIA PRESENT", "NPI", "DEPRESSION/DYSPHORIA", "ABSENT", "", "0", 0.0, "", "", "", "", "", 11.1, "WEEK 22 (T)", 154.0, "TREATMENT", "2014-06-04", 154.0]
["CDISCPILOT01", "QS", "01-701-1015", 3233.0, "NPITM04S", "DEPRESSION/DYSPHORIA Score", "NPI", "DEPRESSION/DYSPHORIA", "0", "", "0", 0.0, "", "", "", "", "Y", 11.1, "WEEK 22 (T)", 154.0, "TREATMENT", "2014-06-04", 154.0]
["CDISCPILOT01", "QS", "01-701-1015", 3257.0, "NPITM04", "DEPRESSION/DYSPHORIA PRESENT", "NPI", "DEPRESSION/DYSPHORIA", "ABSENT", "", "0", 0.0, "", "", "", "", "", 12.0, "WEEK 24", 168.0, "TREATMENT", "2014-06-18", 168.0]
["CDISCPILOT01", "QS", "01-701-1015", 3258.0, "NPITM04S", "DEPRESSION/DYSPHORIA Score", "NPI", "DEPRESSION/DYSPHORIA", "0", "", "0", 0.0, "", "", "", "", "Y", 12.0, "WEEK 24", 168.0, "TREATMENT", "2014-06-18", 168.0]
["CDISCPILOT01", "QS", "01-701-1015", 3282.0, "NPITM04", "DEPRESSION/DYSPHORIA PRESENT", "NPI", "DEPRESSION/DYSPHORIA", "ABSENT", "", "0", 0.0, "", "", "", "", "", 13.0, "WEEK 26", 182.0, "TREATMENT", "2014-07-02", 182.0]
["CDISCPILOT01", "QS", "01-701-1015", 3283.0, "NPITM04S", "DEPRESSION/DYSPHORIA Score", "NPI", "DEPRESSION/DYSPHORIA", "0", "", "0", 0.0, "", "", "", "", "Y", 13.0, "WEEK 26", 182.0, "TREATMENT", "2014-07-02", 182.0]
["CDISCPILOT01", "QS", "01-701-1015", 3009.0, "NPITM05", "ANXIETY PRESENT", "NPI", "ANXIETY", "ABSENT", "", "0", 0.0, "", "", "", "Y", "", 3.0, "BASELINE", 1.0, "TREATMENT", "2014-01-02", 1.0]
["CDISCPILOT01", "QS", "01-701-1015", 3010.0, "NPITM05S", "ANXIETY Score", "NPI", "ANXIETY", "0", "", "0", 0.0, "", "", "", "Y", "Y", 3.0, "BASELINE", 1.0, "TREATMENT", "2014-01-02", 1.0]
["CDISCPILOT01", "QS", "01-701-1015", 3034.0, "NPITM05", "ANXIETY PRESENT", "NPI", "ANXIETY", "ABSENT", "", "0", 0.0, "", "", "", "", "", 4.0, "WEEK 2", 14.0, "TREATMENT", "2014-01-16", 15.0]
["CDISCPILOT01", "QS", "01-701-1015", 3035.0, "NPITM05S", "ANXIETY Score", "NPI", "ANXIETY", "0", "", "0", 0.0, "", "", "", "", "Y", 4.0, "WEEK 2", 14.0, "TREATMENT", "2014-01-16", 15.0]
["CDISCPILOT01", "QS", "01-701-1015", 3059.0, "NPITM05", "ANXIETY PRESENT", "NPI", "ANXIETY", "ABSENT", "", "0", 0.0, "", "", "", "", "", 5.0, "WEEK 4", 28.0, "TREATMENT", "2014-01-30", 29.0]
["CDISCPILOT01", "QS", "01-701-1015", 3060.0, "NPITM05S", "ANXIETY Score", "NPI", "ANXIETY", "0", "", "0", 0.0, "", "", "", "", "Y", 5.0, "WEEK 4", 28.0, "TREATMENT", "2014-01-30", 29.0]
["CDISCPILOT01", "QS", "01-701-1015", 3084.0, "NPITM05", "ANXIETY PRESENT", "NPI", "ANXIETY", "ABSENT", "", "0", 0.0, "", "", "", "", "", 7.0, "WEEK 6", 42.0, "TREATMENT", "2014-02-12", 42.0]
["CDISCPILOT01", "QS", "01-701-1015", 3085.0, "NPITM05S", "ANXIETY Score", "NPI", "ANXIETY", "0", "", "0", 0.0, "", "", "", "", "Y", 7.0, "WEEK 6", 42.0, "TREATMENT", "2014-02-12", 42.0]
["CDISCPILOT01", "QS", "01-701-1015", 3109.0, "NPITM05", "ANXIETY PRESENT", "NPI", "ANXIETY", "ABSENT", "", "0", 0.0, "", "", "", "", "", 8.0, "WEEK 8", 56.0, "TREATMENT", "2014-03-05", 63.0]
["CDISCPILOT01", "QS", "01-701-1015", 3110.0, "NPITM05S", "ANXIETY Score", "NPI", "ANXIETY", "0", "", "0", 0.0, "", "", "", "", "Y", 8.0, "WEEK 8", 56.0, "TREATMENT", "2014-03-05", 63.0]
["CDISCPILOT01", "QS", "01-701-1015", 3134.0, "NPITM05", "ANXIETY PRESENT", "NPI", "ANXIETY", "ABSENT", "", "0", 0.0, "", "", "", "", "", 9.0, "WEEK 12", 84.0, "TREATMENT", "2014-03-26", 84.0]
["CDISCPILOT01", "QS", "01-701-1015", 3135.0, "NPITM05S", "ANXIETY Score", "NPI", "ANXIETY", "0", "", "0", 0.0, "", "", "", "", "Y", 9.0, "WEEK 12", 84.0, "TREATMENT", "2014-03-26", 84.0]
["CDISCPILOT01", "QS", "01-701-1015", 3159.0, "NPITM05", "ANXIETY PRESENT", "NPI", "ANXIETY", "ABSENT", "", "0", 0.0, "", "", "", "", "", 9.1, "WEEK 14 (T)", 98.0, "TREATMENT", "2014-04-09", 98.0]
["CDISCPILOT01", "QS", "01-701-1015", 3160.0, "NPITM05S", "ANXIETY Score", "NPI", "ANXIETY", "0", "", "0", 0.0, "", "", "", "", "Y", 9.1, "WEEK 14 (T)", 98.0, "TREATMENT", "2014-04-09", 98.0]
["CDISCPILOT01", "QS", "01-701-1015", 3184.0, "NPITM05", "ANXIETY PRESENT", "NPI", "ANXIETY", "ABSENT", "", "0", 0.0, "", "", "", "", "", 10.0, "WEEK 16", 112.0, "TREATMENT", "2014-05-07", 126.0]
["CDISCPILOT01", "QS", "01-701-1015", 3185.0, "NPITM05S", "ANXIETY Score", "NPI", "ANXIETY", "0", "", "0", 0.0, "", "", "", "", "Y", 10.0, "WEEK 16", 112.0, "TREATMENT", "2014-05-07", 126.0]
["CDISCPILOT01", "QS", "01-701-1015", 3209.0, "NPITM05", "ANXIETY PRESENT", "NPI", "ANXIETY", "ABSENT", "", "0", 0.0, "", "", "", "", "", 11.0, "WEEK 20", 140.0, "TREATMENT", "2014-05-21", 140.0]
["CDISCPILOT01", "QS", "01-701-1015", 3210.0, "NPITM05S", "ANXIETY Score", "NPI", "ANXIETY", "0", "", "0", 0.0, "", "", "", "", "Y", 11.0, "WEEK 20", 140.0, "TREATMENT", "2014-05-21", 140.0]
["CDISCPILOT01", "QS", "01-701-1015", 3234.0, "NPITM05", "ANXIETY PRESENT", "NPI", "ANXIETY", "ABSENT", "", "0", 0.0, "", "", "", "", "", 11.1, "WEEK 22 (T)", 154.0, "TREATMENT", "2014-06-04", 154.0]
["CDISCPILOT01", "QS", "01-701-1015", 3235.0, "NPITM05S", "ANXIETY Score", "NPI", "ANXIETY", "0", "", "0", 0.0, "", "", "", "", "Y", 11.1, "WEEK 22 (T)", 154.0, "TREATMENT", "2014-06-04", 154.0]
["CDISCPILOT01", "QS", "01-701-1015", 3259.0, "NPITM05", "ANXIETY PRESENT", "NPI", "ANXIETY", "ABSENT", "", "0", 0.0, "", "", "", "", "", 12.0, "WEEK 24", 168.0, "TREATMENT", "2014-06-18", 168.0]
["CDISCPILOT01", "QS", "01-701-1015", 3260.0, "NPITM05S", "ANXIETY Score", "NPI", "ANXIETY", "0", "", "0", 0.0, "", "", "", "", "Y", 12.0, "WEEK 24", 168.0, "TREATMENT", "2014-06-18", 168.0]
["CDISCPILOT01", "QS", "01-701-1015", 3284.0, "NPITM05", "ANXIETY PRESENT", "NPI", "ANXIETY", "ABSENT", "", "0", 0.0, "", "", "", "", "", 13.0, "WEEK 26", 182.0, "TREATMENT", "2014-07-02", 182.0]
["CDISCPILOT01", "QS", "01-701-1015", 3285.0, "NPITM05S", "ANXIETY Score", "NPI", "ANXIETY", "0", "", "0", 0.0, "", "", "", "", "Y", 13.0, "WEEK 26", 182.0, "TREATMENT", "2014-07-02", 182.0]
["CDISCPILOT01", "QS", "01-701-1015", 3011.0, "NPITM06", "EUPHORIA/ELATION PRESENT", "NPI", "EUPHORIA/ELATION", "ABSENT", "", "0", 0.0, "", "", "", "Y", "", 3.0, "BASELINE", 1.0, "TREATMENT", "2014-01-02", 1.0]
["CDISCPILOT01", "QS", "01-701-1015", 3012.0, "NPITM06S", "EUPHORIA/ELATION Score", "NPI", "EUPHORIA/ELATION", "0", "", "0", 0.0, "", "", "", "Y", "Y", 3.0, "BASELINE", 1.0, "TREATMENT", "2014-01-02", 1.0]
["CDISCPILOT01", "QS", "01-701-1015", 3036.0, "NPITM06", "EUPHORIA/ELATION PRESENT", "NPI", "EUPHORIA/ELATION", "ABSENT", "", "0", 0.0, "", "", "", "", "", 4.0, "WEEK 2", 14.0, "TREATMENT", "2014-01-16", 15.0]
["CDISCPILOT01", "QS", "01-701-1015", 3037.0, "NPITM06S", "EUPHORIA/ELATION Score", "NPI", "EUPHORIA/ELATION", "0", "", "0", 0.0, "", "", "", "", "Y", 4.0, "WEEK 2", 14.0, "TREATMENT", "2014-01-16", 15.0]
["CDISCPILOT01", "QS", "01-701-1015", 3061.0, "NPITM06", "EUPHORIA/ELATION PRESENT", "NPI", "EUPHORIA/ELATION", "ABSENT", "", "0", 0.0, "", "", "", "", "", 5.0, "WEEK 4", 28.0, "TREATMENT", "2014-01-30", 29.0]
["CDISCPILOT01", "QS", "01-701-1015", 3062.0, "NPITM06S", "EUPHORIA/ELATION Score", "NPI", "EUPHORIA/ELATION", "0", "", "0", 0.0, "", "", "", "", "Y", 5.0, "WEEK 4", 28.0, "TREATMENT", "2014-01-30", 29.0]
["CDISCPILOT01", "QS", "01-701-1015", 3086.0, "NPITM06", "EUPHORIA/ELATION PRESENT", "NPI", "EUPHORIA/ELATION", "ABSENT", "", "0", 0.0, "", "", "", "", "", 7.0, "WEEK 6", 42.0, "TREATMENT", "2014-02-12", 42.0]
["CDISCPILOT01", "QS", "01-701-1015", 3087.0, "NPITM06S", "EUPHORIA/ELATION Score", "NPI", "EUPHORIA/ELATION", "0", "", "0", 0.0, "", "", "", "", "Y", 7.0, "WEEK 6", 42.0, "TREATMENT", "2014-02-12", 42.0]
["CDISCPILOT01", "QS", "01-701-1015", 3111.0, "NPITM06", "EUPHORIA/ELATION PRESENT", "NPI", "EUPHORIA/ELATION", "ABSENT", "", "0", 0.0, "", "", "", "", "", 8.0, "WEEK 8", 56.0, "TREATMENT", "2014-03-05", 63.0]
["CDISCPILOT01", "QS", "01-701-1015", 3112.0, "NPITM06S", "EUPHORIA/ELATION Score", "NPI", "EUPHORIA/ELATION", "0", "", "0", 0.0, "", "", "", "", "Y", 8.0, "WEEK 8", 56.0, "TREATMENT", "2014-03-05", 63.0]
["CDISCPILOT01", "QS", "01-701-1015", 3136.0, "NPITM06", "EUPHORIA/ELATION PRESENT", "NPI", "EUPHORIA/ELATION", "ABSENT", "", "0", 0.0, "", "", "", "", "", 9.0, "WEEK 12", 84.0, "TREATMENT", "2014-03-26", 84.0]
["CDISCPILOT01", "QS", "01-701-1015", 3137.0, "NPITM06S", "EUPHORIA/ELATION Score", "NPI", "EUPHORIA/ELATION", "0", "", "0", 0.0, "", "", "", "", "Y", 9.0, "WEEK 12", 84.0, "TREATMENT", "2014-03-26", 84.0]
["CDISCPILOT01", "QS", "01-701-1015", 3161.0, "NPITM06", "EUPHORIA/ELATION PRESENT", "NPI", "EUPHORIA/ELATION", "ABSENT", "", "0", 0.0, "", "", "", "", "", 9.1, "WEEK 14 (T)", 98.0, "TREATMENT", "2014-04-09", 98.0]
["CDISCPILOT01", "QS", "01-701-1015", 3162.0, "NPITM06S", "EUPHORIA/ELATION Score", "NPI", "EUPHORIA/ELATION", "0", "", "0", 0.0, "", "", "", "", "Y", 9.1, "WEEK 14 (T)", 98.0, "TREATMENT", "2014-04-09", 98.0]
["CDISCPILOT01", "QS", "01-701-1015", 3186.0, "NPITM06", "EUPHORIA/ELATION PRESENT", "NPI", "EUPHORIA/ELATION", "ABSENT", "", "0", 0.0, "", "", "", "", "", 10.0, "WEEK 16", 112.0, "TREATMENT", "2014-05-07", 126.0]
["CDISCPILOT01", "QS", "01-701-1015", 3187.0, "NPITM06S", "EUPHORIA/ELATION Score", "NPI", "EUPHORIA/ELATION", "0", "", "0", 0.0, "", "", "", "", "Y", 10.0, "WEEK 16", 112.0, "TREATMENT", "2014-05-07", 126.0]
["CDISCPILOT01", "QS", "01-701-1015", 3211.0, "NPITM06", "EUPHORIA/ELATION PRESENT", "NPI", "EUPHORIA/ELATION", "ABSENT", "", "0", 0.0, "", "", "", "", "", 11.0, "WEEK 20", 140.0, "TREATMENT", "2014-05-21", 140.0]
["CDISCPILOT01", "QS", "01-701-1015", 3212.0, "NPITM06S", "EUPHORIA/ELATION Score", "NPI", "EUPHORIA/ELATION", "0", "", "0", 0.0, "", "", "", "", "Y", 11.0, "WEEK 20", 140.0, "TREATMENT", "2014-05-21", 140.0]
["CDISCPILOT01", "QS", "01-701-1015", 3236.0, "NPITM06", "EUPHORIA/ELATION PRESENT", "NPI", "EUPHORIA/ELATION", "ABSENT", "", "0", 0.0, "", "", "", "", "", 11.1, "WEEK 22 (T)", 154.0, "TREATMENT", "2014-06-04", 154.0]
["CDISCPILOT01", "QS", "01-701-1015", 3237.0, "NPITM06S", "EUPHORIA/ELATION Score", "NPI", "EUPHORIA/ELATION", "0", "", "0", 0.0, "", "", "", "", "Y", 11.1, "WEEK 22 (T)", 154.0, "TREATMENT", "2014-06-04", 154.0]
["CDISCPILOT01", "QS", "01-701-1015", 3261.0, "NPITM06", "EUPHORIA/ELATION PRESENT", "NPI", "EUPHORIA/ELATION", "ABSENT", "", "0", 0.0, "", "", "", "", "", 12.0, "WEEK 24", 168.0, "TREATMENT", "2014-06-18", 168.0]
["CDISCPILOT01", "QS", "01-701-1015", 3262.0, "NPITM06S", "EUPHORIA/ELATION Score", "NPI", "EUPHORIA/ELATION", "0", "", "0", 0.0, "", "", "", "", "Y", 12.0, "WEEK 24", 168.0, "TREATMENT", "2014-06-18", 168.0]
["CDISCPILOT01", "QS", "01-701-1015", 3286.0, "NPITM06", "EUPHORIA/ELATION PRESENT", "NPI", "EUPHORIA/ELATION", "ABSENT", "", "0", 0.0, "", "", "", "", "", 13.0, "WEEK 26", 182.0, "TREATMENT", "2014-07-02", 182.0]
["CDISCPILOT01", "QS", "01-701-1015", 3287.0, "NPITM06S", "EUPHORIA/ELATION Score", "NPI", "EUPHORIA/ELATION", "0", "", "0", 0.0, "", "", "", "", "Y", 13.0, "WEEK 26", 182.0, "TREATMENT", "2014-07-02", 182.0]
["CDISCPILOT01", "QS", "01-701-1015", 3013.0, "NPITM07", "APATHY/INDIFFERENCE PRESENT", "NPI", "APATHY/INDIFFERENCE", "ABSENT", "", "0", 0.0, "", "", "", "Y", "", 3.0, "BASELINE", 1.0, "TREATMENT", "2014-01-02", 1.0]
["CDISCPILOT01", "QS", "01-701-1015", 3014.0, "NPITM07S", "APATHY/INDIFFERENCE Score", "NPI", "APATHY/INDIFFERENCE", "0", "", "0", 0.0, "", "", "", "Y", "Y", 3.0, "BASELINE", 1.0, "TREATMENT", "2014-01-02", 1.0]
["CDISCPILOT01", "QS", "01-701-1015", 3038.0, "NPITM07", "APATHY/INDIFFERENCE PRESENT", "NPI", "APATHY/INDIFFERENCE", "ABSENT", "", "0", 0.0, "", "", "", "", "", 4.0, "WEEK 2", 14.0, "TREATMENT", "2014-01-16", 15.0]
["CDISCPILOT01", "QS", "01-701-1015", 3039.0, "NPITM07S", "APATHY/INDIFFERENCE Score", "NPI", "APATHY/INDIFFERENCE", "0", "", "0", 0.0, "", "", "", "", "Y", 4.0, "WEEK 2", 14.0, "TREATMENT", "2014-01-16", 15.0]
["CDISCPILOT01", "QS", "01-701-1015", 3063.0, "NPITM07", "APATHY/INDIFFERENCE PRESENT", "NPI", "APATHY/INDIFFERENCE", "ABSENT", "", "0", 0.0, "", "", "", "", "", 5.0, "WEEK 4", 28.0, "TREATMENT", "2014-01-30", 29.0]
["CDISCPILOT01", "QS", "01-701-1015", 3064.0, "NPITM07S", "APATHY/INDIFFERENCE Score", "NPI", "APATHY/INDIFFERENCE", "0", "", "0", 0.0, "", "", "", "", "Y", 5.0, "WEEK 4", 28.0, "TREATMENT", "2014-01-30", 29.0]
["CDISCPILOT01", "QS", "01-701-1015", 3088.0, "NPITM07", "APATHY/INDIFFERENCE PRESENT", "NPI", "APATHY/INDIFFERENCE", "ABSENT", "", "0", 0.0, "", "", "", "", "", 7.0, "WEEK 6", 42.0, "TREATMENT", "2014-02-12", 42.0]
["CDISCPILOT01", "QS", "01-701-1015", 3089.0, "NPITM07S", "APATHY/INDIFFERENCE Score", "NPI", "APATHY/INDIFFERENCE", "0", "", "0", 0.0, "", "", "", "", "Y", 7.0, "WEEK 6", 42.0, "TREATMENT", "2014-02-12", 42.0]
["CDISCPILOT01", "QS", "01-701-1015", 3113.0, "NPITM07", "APATHY/INDIFFERENCE PRESENT", "NPI", "APATHY/INDIFFERENCE", "ABSENT", "", "0", 0.0, "", "", "", "", "", 8.0, "WEEK 8", 56.0, "TREATMENT", "2014-03-05", 63.0]
["CDISCPILOT01", "QS", "01-701-1015", 3114.0, "NPITM07S", "APATHY/INDIFFERENCE Score", "NPI", "APATHY/INDIFFERENCE", "0", "", "0", 0.0, "", "", "", "", "Y", 8.0, "WEEK 8", 56.0, "TREATMENT", "2014-03-05", 63.0]
["CDISCPILOT01", "QS", "01-701-1015", 3138.0, "NPITM07", "APATHY/INDIFFERENCE PRESENT", "NPI", "APATHY/INDIFFERENCE", "ABSENT", "", "0", 0.0, "", "", "", "", "", 9.0, "WEEK 12", 84.0, "TREATMENT", "2014-03-26", 84.0]
["CDISCPILOT01", "QS", "01-701-1015", 3139.0, "NPITM07S", "APATHY/INDIFFERENCE Score", "NPI", "APATHY/INDIFFERENCE", "0", "", "0", 0.0, "", "", "", "", "Y", 9.0, "WEEK 12", 84.0, "TREATMENT", "2014-03-26", 84.0]
["CDISCPILOT01", "QS", "01-701-1015", 3163.0, "NPITM07", "APATHY/INDIFFERENCE PRESENT", "NPI", "APATHY/INDIFFERENCE", "ABSENT", "", "0", 0.0, "", "", "", "", "", 9.1, "WEEK 14 (T)", 98.0, "TREATMENT", "2014-04-09", 98.0]
["CDISCPILOT01", "QS", "01-701-1015", 3164.0, "NPITM07S", "APATHY/INDIFFERENCE Score", "NPI", "APATHY/INDIFFERENCE", "0", "", "0", 0.0, "", "", "", "", "Y", 9.1, "WEEK 14 (T)", 98.0, "TREATMENT", "2014-04-09", 98.0]
["CDISCPILOT01", "QS", "01-701-1015", 3188.0, "NPITM07", "APATHY/INDIFFERENCE PRESENT", "NPI", "APATHY/INDIFFERENCE", "ABSENT", "", "0", 0.0, "", "", "", "", "", 10.0, "WEEK 16", 112.0, "TREATMENT", "2014-05-07", 126.0]
["CDISCPILOT01", "QS", "01-701-1015", 3189.0, "NPITM07S", "APATHY/INDIFFERENCE Score", "NPI", "APATHY/INDIFFERENCE", "0", "", "0", 0.0, "", "", "", "", "Y", 10.0, "WEEK 16", 112.0, "TREATMENT", "2014-05-07", 126.0]
["CDISCPILOT01", "QS", "01-701-1015", 3213.0, "NPITM07", "APATHY/INDIFFERENCE PRESENT", "NPI", "APATHY/INDIFFERENCE", "ABSENT", "", "0", 0.0, "", "", "", "", "", 11.0, "WEEK 20", 140.0, "TREATMENT", "2014-05-21", 140.0]
["CDISCPILOT01", "QS", "01-701-1015", 3214.0, "NPITM07S", "APATHY/INDIFFERENCE Score", "NPI", "APATHY/INDIFFERENCE", "0", "", "0", 0.0, "", "", "", "", "Y", 11.0, "WEEK 20", 140.0, "TREATMENT", "2014-05-21", 140.0]
["CDISCPILOT01", "QS", "01-701-1015", 3238.0, "NPITM07", "APATHY/INDIFFERENCE PRESENT", "NPI", "APATHY/INDIFFERENCE", "ABSENT", "", "0", 0.0, "", "", "", "", "", 11.1, "WEEK 22 (T)", 154.0, "TREATMENT", "2014-06-04", 154.0]
["CDISCPILOT01", "QS", "01-701-1015", 3239.0, "NPITM07S", "APATHY/INDIFFERENCE Score", "NPI", "APATHY/INDIFFERENCE", "0", "", "0", 0.0, "", "", "", "", "Y", 11.1, "WEEK 22 (T)", 154.0, "TREATMENT", "2014-06-04", 154.0]
["CDISCPILOT01", "QS", "01-701-1015", 3263.0, "NPITM07", "APATHY/INDIFFERENCE PRESENT", "NPI", "APATHY/INDIFFERENCE", "ABSENT", "", "0", 0.0, "", "", "", "", "", 12.0, "WEEK 24", 168.0, "TREATMENT", "2014-06-18", 168.0]
["CDISCPILOT01", "QS", "01-701-1015", 3264.0, "NPITM07S", "APATHY/INDIFFERENCE Score", "NPI", "APATHY/INDIFFERENCE", "0", "", "0", 0.0, "", "", "", "", "Y", 12.0, "WEEK 24", 168.0, "TREATMENT", "2014-06-18", 168.0]
["CDISCPILOT01", "QS", "01-701-1015", 3288.0, "NPITM07", "APATHY/INDIFFERENCE PRESENT", "NPI", "APATHY/INDIFFERENCE", "ABSENT", "", "0", 0.0, "", "", "", "", "", 13.0, "WEEK 26", 182.0, "TREATMENT", "2014-07-02", 182.0]
["CDISCPILOT01", "QS", "01-701-1015", 3289.0, "NPITM07S", "APATHY/INDIFFERENCE Score", "NPI", "APATHY/INDIFFERENCE", "0", "", "0", 0.0, "", "", "", "", "Y", 13.0, "WEEK 26", 182.0, "TREATMENT", "2014-07-02", 182.0]
["CDISCPILOT01", "QS", "01-701-1015", 3015.0, "NPITM08", "DISINHIBITION PRESENT", "NPI", "DISINHIBITION", "ABSENT", "", "0", 0.0, "", "", "", "Y", "", 3.0, "BASELINE", 1.0, "TREATMENT", "2014-01-02", 1.0]
["CDISCPILOT01", "QS", "01-701-1015", 3016.0, "NPITM08S", "DISINHIBITION Score", "NPI", "DISINHIBITION", "0", "", "0", 0.0, "", "", "", "Y", "Y", 3.0, "BASELINE", 1.0, "TREATMENT", "2014-01-02", 1.0]
["CDISCPILOT01", "QS", "01-701-1015", 3040.0, "NPITM08", "DISINHIBITION PRESENT", "NPI", "DISINHIBITION", "ABSENT", "", "0", 0.0, "", "", "", "", "", 4.0, "WEEK 2", 14.0, "TREATMENT", "2014-01-16", 15.0]
["CDISCPILOT01", "QS", "01-701-1015", 3041.0, "NPITM08S", "DISINHIBITION Score", "NPI", "DISINHIBITION", "0", "", "0", 0.0, "", "", "", "", "Y", 4.0, "WEEK 2", 14.0, "TREATMENT", "2014-01-16", 15.0]
["CDISCPILOT01", "QS", "01-701-1015", 3065.0, "NPITM08", "DISINHIBITION PRESENT", "NPI", "DISINHIBITION", "ABSENT", "", "0", 0.0, "", "", "", "", "", 5.0, "WEEK 4", 28.0, "TREATMENT", "2014-01-30", 29.0]
["CDISCPILOT01", "QS", "01-701-1015", 3066.0, "NPITM08S", "DISINHIBITION Score", "NPI", "DISINHIBITION", "0", "", "0", 0.0, "", "", "", "", "Y", 5.0, "WEEK 4", 28.0, "TREATMENT", "2014-01-30", 29.0]
["CDISCPILOT01", "QS", "01-701-1015", 3090.0, "NPITM08", "DISINHIBITION PRESENT", "NPI", "DISINHIBITION", "ABSENT", "", "0", 0.0, "", "", "", "", "", 7.0, "WEEK 6", 42.0, "TREATMENT", "2014-02-12", 42.0]
["CDISCPILOT01", "QS", "01-701-1015", 3091.0, "NPITM08S", "DISINHIBITION Score", "NPI", "DISINHIBITION", "0", "", "0", 0.0, "", "", "", "", "Y", 7.0, "WEEK 6", 42.0, "TREATMENT", "2014-02-12", 42.0]
["CDISCPILOT01", "QS", "01-701-1015", 3115.0, "NPITM08", "DISINHIBITION PRESENT", "NPI", "DISINHIBITION", "ABSENT", "", "0", 0.0, "", "", "", "", "", 8.0, "WEEK 8", 56.0, "TREATMENT", "2014-03-05", 63.0]
["CDISCPILOT01", "QS", "01-701-1015", 3116.0, "NPITM08S", "DISINHIBITION Score", "NPI", "DISINHIBITION", "0", "", "0", 0.0, "", "", "", "", "Y", 8.0, "WEEK 8", 56.0, "TREATMENT", "2014-03-05", 63.0]
["CDISCPILOT01", "QS", "01-701-1015", 3140.0, "NPITM08", "DISINHIBITION PRESENT", "NPI", "DISINHIBITION", "ABSENT", "", "0", 0.0, "", "", "", "", "", 9.0, "WEEK 12", 84.0, "TREATMENT", "2014-03-26", 84.0]
["CDISCPILOT01", "QS", "01-701-1015", 3141.0, "NPITM08S", "DISINHIBITION Score", "NPI", "DISINHIBITION", "0", "", "0", 0.0, "", "", "", "", "Y", 9.0, "WEEK 12", 84.0, "TREATMENT", "2014-03-26", 84.0]
["CDISCPILOT01", "QS", "01-701-1015", 3165.0, "NPITM08", "DISINHIBITION PRESENT", "NPI", "DISINHIBITION", "ABSENT", "", "0", 0.0, "", "", "", "", "", 9.1, "WEEK 14 (T)", 98.0, "TREATMENT", "2014-04-09", 98.0]
["CDISCPILOT01", "QS", "01-701-1015", 3166.0, "NPITM08S", "DISINHIBITION Score", "NPI", "DISINHIBITION", "0", "", "0", 0.0, "", "", "", "", "Y", 9.1, "WEEK 14 (T)", 98.0, "TREATMENT", "2014-04-09", 98.0]
["CDISCPILOT01", "QS", "01-701-1015", 3190.0, "NPITM08", "DISINHIBITION PRESENT", "NPI", "DISINHIBITION", "ABSENT", "", "0", 0.0, "", "", "", "", "", 10.0, "WEEK 16", 112.0, "TREATMENT", "2014-05-07", 126.0]
["CDISCPILOT01", "QS", "01-701-1015", 3191.0, "NPITM08S", "DISINHIBITION Score", "NPI", "DISINHIBITION", "0", "", "0", 0.0, "", "", "", "", "Y", 10.0, "WEEK 16", 112.0, "TREATMENT", "2014-05-07", 126.0]
["CDISCPILOT01", "QS", "01-701-1015", 3215.0, "NPITM08", "DISINHIBITION PRESENT", "NPI", "DISINHIBITION", "ABSENT", "", "0", 0.0, "", "", "", "", "", 11.0, "WEEK 20", 140.0, "TREATMENT", "2014-05-21", 140.0]
["CDISCPILOT01", "QS", "01-701-1015", 3216.0, "NPITM08S", "DISINHIBITION Score", "NPI", "DISINHIBITION", "0", "", "0", 0.0, "", "", "", "", "Y", 11.0, "WEEK 20", 140.0, "TREATMENT", "2014-05-21", 140.0]
["CDISCPILOT01", "QS", "01-701-1015", 3240.0, "NPITM08", "DISINHIBITION PRESENT", "NPI", "DISINHIBITION", "ABSENT", "", "0", 0.0, "", "", "", "", "", 11.1, "WEEK 22 (T)", 154.0, "TREATMENT", "2014-06-04", 154.0]
["CDISCPILOT01", "QS", "01-701-1015", 3241.0, "NPITM08S", "DISINHIBITION Score", "NPI", "DISINHIBITION", "0", "", "0", 0.0, "", "", "", "", "Y", 11.1, "WEEK 22 (T)", 154.0, "TREATMENT", "2014-06-04", 154.0]
["CDISCPILOT01", "QS", "01-701-1015", 3265.0, "NPITM08", "DISINHIBITION PRESENT", "NPI", "DISINHIBITION", "ABSENT", "", "0", 0.0, "", "", "", "", "", 12.0, "WEEK 24", 168.0, "TREATMENT", "2014-06-18", 168.0]
["CDISCPILOT01", "QS", "01-701-1015", 3266.0, "NPITM08S", "DISINHIBITION Score", "NPI", "DISINHIBITION", "0", "", "0", 0.0, "", "", "", "", "Y", 12.0, "WEEK 24", 168.0, "TREATMENT", "2014-06-18", 168.0]
["CDISCPILOT01", "QS", "01-701-1015", 3290.0, "NPITM08", "DISINHIBITION PRESENT", "NPI", "DISINHIBITION", "ABSENT", "", "0", 0.0, "", "", "", "", "", 13.0, "WEEK 26", 182.0, "TREATMENT", "2014-07-02", 182.0]
["CDISCPILOT01", "QS", "01-701-1015", 3291.0, "NPITM08S", "DISINHIBITION Score", "NPI", "DISINHIBITION", "0", "", "0", 0.0, "", "", "", "", "Y", 13.0, "WEEK 26", 182.0, "TREATMENT", "2014-07-02", 182.0]
["CDISCPILOT01", "QS", "01-701-1015", 3017.0, "NPITM09", "IRRITABILITY/LABILITY PRESENT", "NPI", "IRRITABILITY/LABILITY", "ABSENT", "", "0", 0.0, "", "", "", "Y", "", 3.0, "BASELINE", 1.0, "TREATMENT", "2014-01-02", 1.0]
["CDISCPILOT01", "QS", "01-701-1015", 3018.0, "NPITM09S", "IRRITABILITY/LABILITY Score", "NPI", "IRRITABILITY/LABILITY", "0", "", "0", 0.0, "", "", "", "Y", "Y", 3.0, "BASELINE", 1.0, "TREATMENT", "2014-01-02", 1.0]
["CDISCPILOT01", "QS", "01-701-1015", 3042.0, "NPITM09", "IRRITABILITY/LABILITY PRESENT", "NPI", "IRRITABILITY/LABILITY", "ABSENT", "", "0", 0.0, "", "", "", "", "", 4.0, "WEEK 2", 14.0, "TREATMENT", "2014-01-16", 15.0]
["CDISCPILOT01", "QS", "01-701-1015", 3043.0, "NPITM09S", "IRRITABILITY/LABILITY Score", "NPI", "IRRITABILITY/LABILITY", "0", "", "0", 0.0, "", "", "", "", "Y", 4.0, "WEEK 2", 14.0, "TREATMENT", "2014-01-16", 15.0]
["CDISCPILOT01", "QS", "01-701-1015", 3067.0, "NPITM09", "IRRITABILITY/LABILITY PRESENT", "NPI", "IRRITABILITY/LABILITY", "ABSENT", "", "0", 0.0, "", "", "", "", "", 5.0, "WEEK 4", 28.0, "TREATMENT", "2014-01-30", 29.0]
["CDISCPILOT01", "QS", "01-701-1015", 3068.0, "NPITM09S", "IRRITABILITY/LABILITY Score", "NPI", "IRRITABILITY/LABILITY", "0", "", "0", 0.0, "", "", "", "", "Y", 5.0, "WEEK 4", 28.0, "TREATMENT", "2014-01-30", 29.0]
["CDISCPILOT01", "QS", "01-701-1015", 3092.0, "NPITM09", "IRRITABILITY/LABILITY PRESENT", "NPI", "IRRITABILITY/LABILITY", "ABSENT", "", "0", 0.0, "", "", "", "", "", 7.0, "WEEK 6", 42.0, "TREATMENT", "2014-02-12", 42.0]
["CDISCPILOT01", "QS", "01-701-1015", 3093.0, "NPITM09S", "IRRITABILITY/LABILITY Score", "NPI", "IRRITABILITY/LABILITY", "0", "", "0", 0.0, "", "", "", "", "Y", 7.0, "WEEK 6", 42.0, "TREATMENT", "2014-02-12", 42.0]
["CDISCPILOT01", "QS", "01-701-1015", 3117.0, "NPITM09", "IRRITABILITY/LABILITY PRESENT", "NPI", "IRRITABILITY/LABILITY", "ABSENT", "", "0", 0.0, "", "", "", "", "", 8.0, "WEEK 8", 56.0, "TREATMENT", "2014-03-05", 63.0]
["CDISCPILOT01", "QS", "01-701-1015", 3118.0, "NPITM09S", "IRRITABILITY/LABILITY Score", "NPI", "IRRITABILITY/LABILITY", "0", "", "0", 0.0, "", "", "", "", "Y", 8.0, "WEEK 8", 56.0, "TREATMENT", "2014-03-05", 63.0]
["CDISCPILOT01", "QS", "01-701-1015", 3142.0, "NPITM09", "IRRITABILITY/LABILITY PRESENT", "NPI", "IRRITABILITY/LABILITY", "ABSENT", "", "0", 0.0, "", "", "", "", "", 9.0, "WEEK 12", 84.0, "TREATMENT", "2014-03-26", 84.0]
["CDISCPILOT01", "QS", "01-701-1015", 3143.0, "NPITM09S", "IRRITABILITY/LABILITY Score", "NPI", "IRRITABILITY/LABILITY", "0", "", "0", 0.0, "", "", "", "", "Y", 9.0, "WEEK 12", 84.0, "TREATMENT", "2014-03-26", 84.0]
["CDISCPILOT01", "QS", "01-701-1015", 3167.0, "NPITM09", "IRRITABILITY/LABILITY PRESENT", "NPI", "IRRITABILITY/LABILITY", "ABSENT", "", "0", 0.0, "", "", "", "", "", 9.1, "WEEK 14 (T)", 98.0, "TREATMENT", "2014-04-09", 98.0]
["CDISCPILOT01", "QS", "01-701-1015", 3168.0, "NPITM09S", "IRRITABILITY/LABILITY Score", "NPI", "IRRITABILITY/LABILITY", "0", "", "0", 0.0, "", "", "", "", "Y", 9.1, "WEEK 14 (T)", 98.0, "TREATMENT", "2014-04-09", 98.0]
["CDISCPILOT01", "QS", "01-701-1015", 3192.0, "NPITM09", "IRRITABILITY/LABILITY PRESENT", "NPI", "IRRITABILITY/LABILITY", "ABSENT", "", "0", 0.0, "", "", "", "", "", 10.0, "WEEK 16", 112.0, "TREATMENT", "2014-05-07", 126.0]
["CDISCPILOT01", "QS", "01-701-1015", 3193.0, "NPITM09S", "IRRITABILITY/LABILITY Score", "NPI", "IRRITABILITY/LABILITY", "0", "", "0", 0.0, "", "", "", "", "Y", 10.0, "WEEK 16", 112.0, "TREATMENT", "2014-05-07", 126.0]
["CDISCPILOT01", "QS", "01-701-1015", 3217.0, "NPITM09", "IRRITABILITY/LABILITY PRESENT", "NPI", "IRRITABILITY/LABILITY", "ABSENT", "", "0", 0.0, "", "", "", "", "", 11.0, "WEEK 20", 140.0, "TREATMENT", "2014-05-21", 140.0]
["CDISCPILOT01", "QS", "01-701-1015", 3218.0, "NPITM09S", "IRRITABILITY/LABILITY Score", "NPI", "IRRITABILITY/LABILITY", "0", "", "0", 0.0, "", "", "", "", "Y", 11.0, "WEEK 20", 140.0, "TREATMENT", "2014-05-21", 140.0]
["CDISCPILOT01", "QS", "01-701-1015", 3242.0, "NPITM09", "IRRITABILITY/LABILITY PRESENT", "NPI", "IRRITABILITY/LABILITY", "ABSENT", "", "0", 0.0, "", "", "", "", "", 11.1, "WEEK 22 (T)", 154.0, "TREATMENT", "2014-06-04", 154.0]
["CDISCPILOT01", "QS", "01-701-1015", 3243.0, "NPITM09S", "IRRITABILITY/LABILITY Score", "NPI", "IRRITABILITY/LABILITY", "0", "", "0", 0.0, "", "", "", "", "Y", 11.1, "WEEK 22 (T)", 154.0, "TREATMENT", "2014-06-04", 154.0]
["CDISCPILOT01", "QS", "01-701-1015", 3267.0, "NPITM09", "IRRITABILITY/LABILITY PRESENT", "NPI", "IRRITABILITY/LABILITY", "ABSENT", "", "0", 0.0, "", "", "", "", "", 12.0, "WEEK 24", 168.0, "TREATMENT", "2014-06-18", 168.0]
["CDISCPILOT01", "QS", "01-701-1015", 3268.0, "NPITM09S", "IRRITABILITY/LABILITY Score", "NPI", "IRRITABILITY/LABILITY", "0", "", "0", 0.0, "", "", "", "", "Y", 12.0, "WEEK 24", 168.0, "TREATMENT", "2014-06-18", 168.0]
["CDISCPILOT01", "QS", "01-701-1015", 3292.0, "NPITM09", "IRRITABILITY/LABILITY PRESENT", "NPI", "IRRITABILITY/LABILITY", "ABSENT", "", "0", 0.0, "", "", "", "", "", 13.0, "WEEK 26", 182.0, "TREATMENT", "2014-07-02", 182.0]
["CDISCPILOT01", "QS", "01-701-1015", 3293.0, "NPITM09S", "IRRITABILITY/LABILITY Score", "NPI", "IRRITABILITY/LABILITY", "0", "", "0", 0.0, "", "", "", "", "Y", 13.0, "WEEK 26", 182.0, "TREATMENT", "2014-07-02", 182.0]
["CDISCPILOT01", "QS", "01-701-1015", 3019.0, "NPITM10", "ABERRANT MOTOR BEHAVIOR PRESENT", "NPI", "ABERRANT MOTOR BEHAVIOR", "ABSENT", "", "0", 0.0, "", "", "", "Y", "", 3.0, "BASELINE", 1.0, "TREATMENT", "2014-01-02", 1.0]
["CDISCPILOT01", "QS", "01-701-1015", 3020.0, "NPITM10S", "ABERRANT MOTOR BEHAVIOR Score", "NPI", "ABERRANT MOTOR BEHAVIOR", "0", "", "0", 0.0, "", "", "", "Y", "Y", 3.0, "BASELINE", 1.0, "TREATMENT", "2014-01-02", 1.0]
["CDISCPILOT01", "QS", "01-701-1015", 3044.0, "NPITM10", "ABERRANT MOTOR BEHAVIOR PRESENT", "NPI", "ABERRANT MOTOR BEHAVIOR", "ABSENT", "", "0", 0.0, "", "", "", "", "", 4.0, "WEEK 2", 14.0, "TREATMENT", "2014-01-16", 15.0]
["CDISCPILOT01", "QS", "01-701-1015", 3045.0, "NPITM10S", "ABERRANT MOTOR BEHAVIOR Score", "NPI", "ABERRANT MOTOR BEHAVIOR", "0", "", "0", 0.0, "", "", "", "", "Y", 4.0, "WEEK 2", 14.0, "TREATMENT", "2014-01-16", 15.0]
["CDISCPILOT01", "QS", "01-701-1015", 3069.0, "NPITM10", "ABERRANT MOTOR BEHAVIOR PRESENT", "NPI", "ABERRANT MOTOR BEHAVIOR", "ABSENT", "", "0", 0.0, "", "", "", "", "", 5.0, "WEEK 4", 28.0, "TREATMENT", "2014-01-30", 29.0]
["CDISCPILOT01", "QS", "01-701-1015", 3070.0, "NPITM10S", "ABERRANT MOTOR BEHAVIOR Score", "NPI", "ABERRANT MOTOR BEHAVIOR", "0", "", "0", 0.0, "", "", "", "", "Y", 5.0, "WEEK 4", 28.0, "TREATMENT", "2014-01-30", 29.0]
["CDISCPILOT01", "QS", "01-701-1015", 3094.0, "NPITM10", "ABERRANT MOTOR BEHAVIOR PRESENT", "NPI", "ABERRANT MOTOR BEHAVIOR", "ABSENT", "", "0", 0.0, "", "", "", "", "", 7.0, "WEEK 6", 42.0, "TREATMENT", "2014-02-12", 42.0]
["CDISCPILOT01", "QS", "01-701-1015", 3095.0, "NPITM10S", "ABERRANT MOTOR BEHAVIOR Score", "NPI", "ABERRANT MOTOR BEHAVIOR", "0", "", "0", 0.0, "", "", "", "", "Y", 7.0, "WEEK 6", 42.0, "TREATMENT", "2014-02-12", 42.0]
["CDISCPILOT01", "QS", "01-701-1015", 3119.0, "NPITM10", "ABERRANT MOTOR BEHAVIOR PRESENT", "NPI", "ABERRANT MOTOR BEHAVIOR", "ABSENT", "", "0", 0.0, "", "", "", "", "", 8.0, "WEEK 8", 56.0, "TREATMENT", "2014-03-05", 63.0]
["CDISCPILOT01", "QS", "01-701-1015", 3120.0, "NPITM10S", "ABERRANT MOTOR BEHAVIOR Score", "NPI", "ABERRANT MOTOR BEHAVIOR", "0", "", "0", 0.0, "", "", "", "", "Y", 8.0, "WEEK 8", 56.0, "TREATMENT", "2014-03-05", 63.0]
["CDISCPILOT01", "QS", "01-701-1015", 3144.0, "NPITM10", "ABERRANT MOTOR BEHAVIOR PRESENT", "NPI", "ABERRANT MOTOR BEHAVIOR", "ABSENT", "", "0", 0.0, "", "", "", "", "", 9.0, "WEEK 12", 84.0, "TREATMENT", "2014-03-26", 84.0]
["CDISCPILOT01", "QS", "01-701-1015", 3145.0, "NPITM10S", "ABERRANT MOTOR BEHAVIOR Score", "NPI", "ABERRANT MOTOR BEHAVIOR", "0", "", "0", 0.0, "", "", "", "", "Y", 9.0, "WEEK 12", 84.0, "TREATMENT", "2014-03-26", 84.0]
["CDISCPILOT01", "QS", "01-701-1015", 3169.0, "NPITM10", "ABERRANT MOTOR BEHAVIOR PRESENT", "NPI", "ABERRANT MOTOR BEHAVIOR", "ABSENT", "", "0", 0.0, "", "", "", "", "", 9.1, "WEEK 14 (T)", 98.0, "TREATMENT", "2014-04-09", 98.0]
["CDISCPILOT01", "QS", "01-701-1015", 3170.0, "NPITM10S", "ABERRANT MOTOR BEHAVIOR Score", "NPI", "ABERRANT MOTOR BEHAVIOR", "0", "", "0", 0.0, "", "", "", "", "Y", 9.1, "WEEK 14 (T)", 98.0, "TREATMENT", "2014-04-09", 98.0]
["CDISCPILOT01", "QS", "01-701-1015", 3194.0, "NPITM10", "ABERRANT MOTOR BEHAVIOR PRESENT", "NPI", "ABERRANT MOTOR BEHAVIOR", "ABSENT", "", "0", 0.0, "", "", "", "", "", 10.0, "WEEK 16", 112.0, "TREATMENT", "2014-05-07", 126.0]
["CDISCPILOT01", "QS", "01-701-1015", 3195.0, "NPITM10S", "ABERRANT MOTOR BEHAVIOR Score", "NPI", "ABERRANT MOTOR BEHAVIOR", "0", "", "0", 0.0, "", "", "", "", "Y", 10.0, "WEEK 16", 112.0, "TREATMENT", "2014-05-07", 126.0]
["CDISCPILOT01", "QS", "01-701-1015", 3219.0, "NPITM10", "ABERRANT MOTOR BEHAVIOR PRESENT", "NPI", "ABERRANT MOTOR BEHAVIOR", "ABSENT", "", "0", 0.0, "", "", "", "", "", 11.0, "WEEK 20", 140.0, "TREATMENT", "2014-05-21", 140.0]
["CDISCPILOT01", "QS", "01-701-1015", 3220.0, "NPITM10S", "ABERRANT MOTOR BEHAVIOR Score", "NPI", "ABERRANT MOTOR BEHAVIOR", "0", "", "0", 0.0, "", "", "", "", "Y", 11.0, "WEEK 20", 140.0, "TREATMENT", "2014-05-21", 140.0]
["CDISCPILOT01", "QS", "01-701-1015", 3244.0, "NPITM10", "ABERRANT MOTOR BEHAVIOR PRESENT", "NPI", "ABERRANT MOTOR BEHAVIOR", "ABSENT", "", "0", 0.0, "", "", "", "", "", 11.1, "WEEK 22 (T)", 154.0, "TREATMENT", "2014-06-04", 154.0]
["CDISCPILOT01", "QS", "01-701-1015", 3245.0, "NPITM10S", "ABERRANT MOTOR BEHAVIOR Score", "NPI", "ABERRANT MOTOR BEHAVIOR", "0", "", "0", 0.0, "", "", "", "", "Y", 11.1, "WEEK 22 (T)", 154.0, "TREATMENT", "2014-06-04", 154.0]
["CDISCPILOT01", "QS", "01-701-1015", 3269.0, "NPITM10", "ABERRANT MOTOR BEHAVIOR PRESENT", "NPI", "ABERRANT MOTOR BEHAVIOR", "ABSENT", "", "0", 0.0, "", "", "", "", "", 12.0, "WEEK 24", 168.0, "TREATMENT", "2014-06-18", 168.0]
["CDISCPILOT01", "QS", "01-701-1015", 3270.0, "NPITM10S", "ABERRANT MOTOR BEHAVIOR Score", "NPI", "ABERRANT MOTOR BEHAVIOR", "0", "", "0", 0.0, "", "", "", "", "Y", 12.0, "WEEK 24", 168.0, "TREATMENT", "2014-06-18", 168.0]
["CDISCPILOT01", "QS", "01-701-1015", 3294.0, "NPITM10", "ABERRANT MOTOR BEHAVIOR PRESENT", "NPI", "ABERRANT MOTOR BEHAVIOR", "ABSENT", "", "0", 0.0, "", "", "", "", "", 13.0, "WEEK 26", 182.0, "TREATMENT", "2014-07-02", 182.0]
["CDISCPILOT01", "QS", "01-701-1015", 3295.0, "NPITM10S", "ABERRANT MOTOR BEHAVIOR Score", "NPI", "ABERRANT MOTOR BEHAVIOR", "0", "", "0", 0.0, "", "", "", "", "Y", 13.0, "WEEK 26", 182.0, "TREATMENT", "2014-07-02", 182.0]
["CDISCPILOT01", "QS", "01-701-1015", 3021.0, "NPITM11", "NIGHT-TIME BEHAVIOR PRESENT", "NPI", "NIGHT-TIME BEHAVIOR", "ABSENT", "", "0", 0.0, "", "", "", "Y", "", 3.0, "BASELINE", 1.0, "TREATMENT", "2014-01-02", 1.0]
["CDISCPILOT01", "QS", "01-701-1015", 3022.0, "NPITM11S", "NIGHT-TIME BEHAVIOR Score", "NPI", "NIGHT-TIME BEHAVIOR", "0", "", "0", 0.0, "", "", "", "Y", "Y", 3.0, "BASELINE", 1.0, "TREATMENT", "2014-01-02", 1.0]
["CDISCPILOT01", "QS", "01-701-1015", 3046.0, "NPITM11", "NIGHT-TIME BEHAVIOR PRESENT", "NPI", "NIGHT-TIME BEHAVIOR", "ABSENT", "", "0", 0.0, "", "", "", "", "", 4.0, "WEEK 2", 14.0, "TREATMENT", "2014-01-16", 15.0]
["CDISCPILOT01", "QS", "01-701-1015", 3047.0, "NPITM11S", "NIGHT-TIME BEHAVIOR Score", "NPI", "NIGHT-TIME BEHAVIOR", "0", "", "0", 0.0, "", "", "", "", "Y", 4.0, "WEEK 2", 14.0, "TREATMENT", "2014-01-16", 15.0]
["CDISCPILOT01", "QS", "01-701-1015", 3071.0, "NPITM11", "NIGHT-TIME BEHAVIOR PRESENT", "NPI", "NIGHT-TIME BEHAVIOR", "ABSENT", "", "0", 0.0, "", "", "", "", "", 5.0, "WEEK 4", 28.0, "TREATMENT", "2014-01-30", 29.0]
["CDISCPILOT01", "QS", "01-701-1015", 3072.0, "NPITM11S", "NIGHT-TIME BEHAVIOR Score", "NPI", "NIGHT-TIME BEHAVIOR", "0", "", "0", 0.0, "", "", "", "", "Y", 5.0, "WEEK 4", 28.0, "TREATMENT", "2014-01-30", 29.0]
["CDISCPILOT01", "QS", "01-701-1015", 3096.0, "NPITM11", "NIGHT-TIME BEHAVIOR PRESENT", "NPI", "NIGHT-TIME BEHAVIOR", "ABSENT", "", "0", 0.0, "", "", "", "", "", 7.0, "WEEK 6", 42.0, "TREATMENT", "2014-02-12", 42.0]
["CDISCPILOT01", "QS", "01-701-1015", 3097.0, "NPITM11S", "NIGHT-TIME BEHAVIOR Score", "NPI", "NIGHT-TIME BEHAVIOR", "0", "", "0", 0.0, "", "", "", "", "Y", 7.0, "WEEK 6", 42.0, "TREATMENT", "2014-02-12", 42.0]
["CDISCPILOT01", "QS", "01-701-1015", 3121.0, "NPITM11", "NIGHT-TIME BEHAVIOR PRESENT", "NPI", "NIGHT-TIME BEHAVIOR", "ABSENT", "", "0", 0.0, "", "", "", "", "", 8.0, "WEEK 8", 56.0, "TREATMENT", "2014-03-05", 63.0]
["CDISCPILOT01", "QS", "01-701-1015", 3122.0, "NPITM11S", "NIGHT-TIME BEHAVIOR Score", "NPI", "NIGHT-TIME BEHAVIOR", "0", "", "0", 0.0, "", "", "", "", "Y", 8.0, "WEEK 8", 56.0, "TREATMENT", "2014-03-05", 63.0]
["CDISCPILOT01", "QS", "01-701-1015", 3146.0, "NPITM11", "NIGHT-TIME BEHAVIOR PRESENT", "NPI", "NIGHT-TIME BEHAVIOR", "ABSENT", "", "0", 0.0, "", "", "", "", "", 9.0, "WEEK 12", 84.0, "TREATMENT", "2014-03-26", 84.0]
["CDISCPILOT01", "QS", "01-701-1015", 3147.0, "NPITM11S", "NIGHT-TIME BEHAVIOR Score", "NPI", "NIGHT-TIME BEHAVIOR", "0", "", "0", 0.0, "", "", "", "", "Y", 9.0, "WEEK 12", 84.0, "TREATMENT", "2014-03-26", 84.0]
["CDISCPILOT01", "QS", "01-701-1015", 3171.0, "NPITM11", "NIGHT-TIME BEHAVIOR PRESENT", "NPI", "NIGHT-TIME BEHAVIOR", "ABSENT", "", "0", 0.0, "", "", "", "", "", 9.1, "WEEK 14 (T)", 98.0, "TREATMENT", "2014-04-09", 98.0]
["CDISCPILOT01", "QS", "01-701-1015", 3172.0, "NPITM11S", "NIGHT-TIME BEHAVIOR Score", "NPI", "NIGHT-TIME BEHAVIOR", "0", "", "0", 0.0, "", "", "", "", "Y", 9.1, "WEEK 14 (T)", 98.0, "TREATMENT", "2014-04-09", 98.0]
["CDISCPILOT01", "QS", "01-701-1015", 3196.0, "NPITM11", "NIGHT-TIME BEHAVIOR PRESENT", "NPI", "NIGHT-TIME BEHAVIOR", "ABSENT", "", "0", 0.0, "", "", "", "", "", 10.0, "WEEK 16", 112.0, "TREATMENT", "2014-05-07", 126.0]
["CDISCPILOT01", "QS", "01-701-1015", 3197.0, "NPITM11S", "NIGHT-TIME BEHAVIOR Score", "NPI", "NIGHT-TIME BEHAVIOR", "0", "", "0", 0.0, "", "", "", "", "Y", 10.0, "WEEK 16", 112.0, "TREATMENT", "2014-05-07", 126.0]
["CDISCPILOT01", "QS", "01-701-1015", 3221.0, "NPITM11", "NIGHT-TIME BEHAVIOR PRESENT", "NPI", "NIGHT-TIME BEHAVIOR", "ABSENT", "", "0", 0.0, "", "", "", "", "", 11.0, "WEEK 20", 140.0, "TREATMENT", "2014-05-21", 140.0]
["CDISCPILOT01", "QS", "01-701-1015", 3222.0, "NPITM11S", "NIGHT-TIME BEHAVIOR Score", "NPI", "NIGHT-TIME BEHAVIOR", "0", "", "0", 0.0, "", "", "", "", "Y", 11.0, "WEEK 20", 140.0, "TREATMENT", "2014-05-21", 140.0]
["CDISCPILOT01", "QS", "01-701-1015", 3246.0, "NPITM11", "NIGHT-TIME BEHAVIOR PRESENT", "NPI", "NIGHT-TIME BEHAVIOR", "ABSENT", "", "0", 0.0, "", "", "", "", "", 11.1, "WEEK 22 (T)", 154.0, "TREATMENT", "2014-06-04", 154.0]
["CDISCPILOT01", "QS", "01-701-1015", 3247.0, "NPITM11S", "NIGHT-TIME BEHAVIOR Score", "NPI", "NIGHT-TIME BEHAVIOR", "0", "", "0", 0.0, "", "", "", "", "Y", 11.1, "WEEK 22 (T)", 154.0, "TREATMENT", "2014-06-04", 154.0]
["CDISCPILOT01", "QS", "01-701-1015", 3271.0, "NPITM11", "NIGHT-TIME BEHAVIOR PRESENT", "NPI", "NIGHT-TIME BEHAVIOR", "ABSENT", "", "0", 0.0, "", "", "", "", "", 12.0, "WEEK 24", 168.0, "TREATMENT", "2014-06-18", 168.0]
["CDISCPILOT01", "QS", "01-701-1015", 3272.0, "NPITM11S", "NIGHT-TIME BEHAVIOR Score", "NPI", "NIGHT-TIME BEHAVIOR", "0", "", "0", 0.0, "", "", "", "", "Y", 12.0, "WEEK 24", 168.0, "TREATMENT", "2014-06-18", 168.0]
["CDISCPILOT01", "QS", "01-701-1015", 3296.0, "NPITM11", "NIGHT-TIME BEHAVIOR PRESENT", "NPI", "NIGHT-TIME BEHAVIOR", "ABSENT", "", "0", 0.0, "", "", "", "", "", 13.0, "WEEK 26", 182.0, "TREATMENT", "2014-07-02", 182.0]
["CDISCPILOT01", "QS", "01-701-1015", 3297.0, "NPITM11S", "NIGHT-TIME BEHAVIOR Score", "NPI", "NIGHT-TIME BEHAVIOR", "0", "", "0", 0.0, "", "", "", "", "Y", 13.0, "WEEK 26", 182.0, "TREATMENT", "2014-07-02", 182.0]
["CDISCPILOT01", "QS", "01-701-1015", 3023.0, "NPITM12", "APPETITE/EATING CHANGE PRESENT", "NPI", "APPETITE/EATING CHANGE", "ABSENT", "", "0", 0.0, "", "", "", "Y", "", 3.0, "BASELINE", 1.0, "TREATMENT", "2014-01-02", 1.0]
["CDISCPILOT01", "QS", "01-701-1015", 3024.0, "NPITM12S", "APPETITE/EATING CHANGE Score", "NPI", "APPETITE/EATING CHANGE", "0", "", "0", 0.0, "", "", "", "Y", "Y", 3.0, "BASELINE", 1.0, "TREATMENT", "2014-01-02", 1.0]
["CDISCPILOT01", "QS", "01-701-1015", 3048.0, "NPITM12", "APPETITE/EATING CHANGE PRESENT", "NPI", "APPETITE/EATING CHANGE", "ABSENT", "", "0", 0.0, "", "", "", "", "", 4.0, "WEEK 2", 14.0, "TREATMENT", "2014-01-16", 15.0]
["CDISCPILOT01", "QS", "01-701-1015", 3049.0, "NPITM12S", "APPETITE/EATING CHANGE Score", "NPI", "APPETITE/EATING CHANGE", "0", "", "0", 0.0, "", "", "", "", "Y", 4.0, "WEEK 2", 14.0, "TREATMENT", "2014-01-16", 15.0]
["CDISCPILOT01", "QS", "01-701-1015", 3073.0, "NPITM12", "APPETITE/EATING CHANGE PRESENT", "NPI", "APPETITE/EATING CHANGE", "ABSENT", "", "0", 0.0, "", "", "", "", "", 5.0, "WEEK 4", 28.0, "TREATMENT", "2014-01-30", 29.0]
["CDISCPILOT01", "QS", "01-701-1015", 3074.0, "NPITM12S", "APPETITE/EATING CHANGE Score", "NPI", "APPETITE/EATING CHANGE", "0", "", "0", 0.0, "", "", "", "", "Y", 5.0, "WEEK 4", 28.0, "TREATMENT", "2014-01-30", 29.0]
["CDISCPILOT01", "QS", "01-701-1015", 3098.0, "NPITM12", "APPETITE/EATING CHANGE PRESENT", "NPI", "APPETITE/EATING CHANGE", "ABSENT", "", "0", 0.0, "", "", "", "", "", 7.0, "WEEK 6", 42.0, "TREATMENT", "2014-02-12", 42.0]
["CDISCPILOT01", "QS", "01-701-1015", 3099.0, "NPITM12S", "APPETITE/EATING CHANGE Score", "NPI", "APPETITE/EATING CHANGE", "0", "", "0", 0.0, "", "", "", "", "Y", 7.0, "WEEK 6", 42.0, "TREATMENT", "2014-02-12", 42.0]
["CDISCPILOT01", "QS", "01-701-1015", 3123.0, "NPITM12", "APPETITE/EATING CHANGE PRESENT", "NPI", "APPETITE/EATING CHANGE", "ABSENT", "", "0", 0.0, "", "", "", "", "", 8.0, "WEEK 8", 56.0, "TREATMENT", "2014-03-05", 63.0]
["CDISCPILOT01", "QS", "01-701-1015", 3124.0, "NPITM12S", "APPETITE/EATING CHANGE Score", "NPI", "APPETITE/EATING CHANGE", "0", "", "0", 0.0, "", "", "", "", "Y", 8.0, "WEEK 8", 56.0, "TREATMENT", "2014-03-05", 63.0]
["CDISCPILOT01", "QS", "01-701-1015", 3148.0, "NPITM12", "APPETITE/EATING CHANGE PRESENT", "NPI", "APPETITE/EATING CHANGE", "ABSENT", "", "0", 0.0, "", "", "", "", "", 9.0, "WEEK 12", 84.0, "TREATMENT", "2014-03-26", 84.0]
["CDISCPILOT01", "QS", "01-701-1015", 3149.0, "NPITM12S", "APPETITE/EATING CHANGE Score", "NPI", "APPETITE/EATING CHANGE", "0", "", "0", 0.0, "", "", "", "", "Y", 9.0, "WEEK 12", 84.0, "TREATMENT", "2014-03-26", 84.0]
["CDISCPILOT01", "QS", "01-701-1015", 3173.0, "NPITM12", "APPETITE/EATING CHANGE PRESENT", "NPI", "APPETITE/EATING CHANGE", "ABSENT", "", "0", 0.0, "", "", "", "", "", 9.1, "WEEK 14 (T)", 98.0, "TREATMENT", "2014-04-09", 98.0]
["CDISCPILOT01", "QS", "01-701-1015", 3174.0, "NPITM12S", "APPETITE/EATING CHANGE Score", "NPI", "APPETITE/EATING CHANGE", "0", "", "0", 0.0, "", "", "", "", "Y", 9.1, "WEEK 14 (T)", 98.0, "TREATMENT", "2014-04-09", 98.0]
["CDISCPILOT01", "QS", "01-701-1015", 3198.0, "NPITM12", "APPETITE/EATING CHANGE PRESENT", "NPI", "APPETITE/EATING CHANGE", "ABSENT", "", "0", 0.0, "", "", "", "", "", 10.0, "WEEK 16", 112.0, "TREATMENT", "2014-05-07", 126.0]
["CDISCPILOT01", "QS", "01-701-1015", 3199.0, "NPITM12S", "APPETITE/EATING CHANGE Score", "NPI", "APPETITE/EATING CHANGE", "0", "", "0", 0.0, "", "", "", "", "Y", 10.0, "WEEK 16", 112.0, "TREATMENT", "2014-05-07", 126.0]
["CDISCPILOT01", "QS", "01-701-1015", 3223.0, "NPITM12", "APPETITE/EATING CHANGE PRESENT", "NPI", "APPETITE/EATING CHANGE", "ABSENT", "", "0", 0.0, "", "", "", "", "", 11.0, "WEEK 20", 140.0, "TREATMENT", "2014-05-21", 140.0]
["CDISCPILOT01", "QS", "01-701-1015", 3224.0, "NPITM12S", "APPETITE/EATING CHANGE Score", "NPI", "APPETITE/EATING CHANGE", "0", "", "0", 0.0, "", "", "", "", "Y", 11.0, "WEEK 20", 140.0, "TREATMENT", "2014-05-21", 140.0]
["CDISCPILOT01", "QS", "01-701-1015", 3248.0, "NPITM12", "APPETITE/EATING CHANGE PRESENT", "NPI", "APPETITE/EATING CHANGE", "ABSENT", "", "0", 0.0, "", "", "", "", "", 11.1, "WEEK 22 (T)", 154.0, "TREATMENT", "2014-06-04", 154.0]
["CDISCPILOT01", "QS", "01-701-1015", 3249.0, "NPITM12S", "APPETITE/EATING CHANGE Score", "NPI", "APPETITE/EATING CHANGE", "0", "", "0", 0.0, "", "", "", "", "Y", 11.1, "WEEK 22 (T)", 154.0, "TREATMENT", "2014-06-04", 154.0]
["CDISCPILOT01", "QS", "01-701-1015", 3273.0, "NPITM12", "APPETITE/EATING CHANGE PRESENT", "NPI", "APPETITE/EATING CHANGE", "ABSENT", "", "0", 0.0, "", "", "", "", "", 12.0, "WEEK 24", 168.0, "TREATMENT", "2014-06-18", 168.0]
["CDISCPILOT01", "QS", "01-701-1015", 3274.0, "NPITM12S", "APPETITE/EATING CHANGE Score", "NPI", "APPETITE/EATING CHANGE", "0", "", "0", 0.0, "", "", "", "", "Y", 12.0, "WEEK 24", 168.0, "TREATMENT", "2014-06-18", 168.0]
["CDISCPILOT01", "QS", "01-701-1015", 3298.0, "NPITM12", "APPETITE/EATING CHANGE PRESENT", "NPI", "APPETITE/EATING CHANGE", "ABSENT", "", "0", 0.0, "", "", "", "", "", 13.0, "WEEK 26", 182.0, "TREATMENT", "2014-07-02", 182.0]
["CDISCPILOT01", "QS", "01-701-1015", 3299.0, "NPITM12S", "APPETITE/EATING CHANGE Score", "NPI", "APPETITE/EATING CHANGE", "0", "", "0", 0.0, "", "", "", "", "Y", 13.0, "WEEK 26", 182.0, "TREATMENT", "2014-07-02", 182.0]
["CDISCPILOT01", "QS", "01-701-1015", 3025.0, "NPTOT", "NPI-X (9) Total Score", "NPI", "APPETITE/EATING CHANGE", "", "", "0", 0.0, "", "", "", "Y", "Y", 3.0, "BASELINE", 1.0, "TREATMENT", "2014-01-02", 1.0]
["CDISCPILOT01", "QS", "01-701-1015", 3050.0, "NPTOT", "NPI-X (9) Total Score", "NPI", "APPETITE/EATING CHANGE", "", "", "0", 0.0, "", "", "", "", "Y", 4.0, "WEEK 2", 14.0, "TREATMENT", "2014-01-16", 15.0]
["CDISCPILOT01", "QS", "01-701-1015", 3075.0, "NPTOT", "NPI-X (9) Total Score", "NPI", "APPETITE/EATING CHANGE", "", "", "0", 0.0, "", "", "", "", "Y", 5.0, "WEEK 4", 28.0, "TREATMENT", "2014-01-30", 29.0]
["CDISCPILOT01", "QS", "01-701-1015", 3100.0, "NPTOT", "NPI-X (9) Total Score", "NPI", "APPETITE/EATING CHANGE", "", "", "0", 0.0, "", "", "", "", "Y", 7.0, "WEEK 6", 42.0, "TREATMENT", "2014-02-12", 42.0]
["CDISCPILOT01", "QS", "01-701-1015", 3125.0, "NPTOT", "NPI-X (9) Total Score", "NPI", "APPETITE/EATING CHANGE", "", "", "0", 0.0, "", "", "", "", "Y", 8.0, "WEEK 8", 56.0, "TREATMENT", "2014-03-05", 63.0]
["CDISCPILOT01", "QS", "01-701-1015", 3150.0, "NPTOT", "NPI-X (9) Total Score", "NPI", "APPETITE/EATING CHANGE", "", "", "0", 0.0, "", "", "", "", "Y", 9.0, "WEEK 12", 84.0, "TREATMENT", "2014-03-26", 84.0]
["CDISCPILOT01", "QS", "01-701-1015", 3175.0, "NPTOT", "NPI-X (9) Total Score", "NPI", "APPETITE/EATING CHANGE", "", "", "0", 0.0, "", "", "", "", "Y", 9.1, "WEEK 14 (T)", 98.0, "TREATMENT", "2014-04-09", 98.0]
["CDISCPILOT01", "QS", "01-701-1015", 3200.0, "NPTOT", "NPI-X (9) Total Score", "NPI", "APPETITE/EATING CHANGE", "", "", "0", 0.0, "", "", "", "", "Y", 10.0, "WEEK 16", 112.0, "TREATMENT", "2014-05-07", 126.0]
["CDISCPILOT01", "QS", "01-701-1015", 3225.0, "NPTOT", "NPI-X (9) Total Score", "NPI", "APPETITE/EATING CHANGE", "", "", "0", 0.0, "", "", "", "", "Y", 11.0, "WEEK 20", 140.0, "TREATMENT", "2014-05-21", 140.0]
["CDISCPILOT01", "QS", "01-701-1015", 3250.0, "NPTOT", "NPI-X (9) Total Score", "NPI", "APPETITE/EATING CHANGE", "", "", "0", 0.0, "", "", "", "", "Y", 11.1, "WEEK 22 (T)", 154.0, "TREATMENT", "2014-06-04", 154.0]
["CDISCPILOT01", "QS", "01-701-1015", 3275.0, "NPTOT", "NPI-X (9) Total Score", "NPI", "APPETITE/EATING CHANGE", "", "", "0", 0.0, "", "", "", "", "Y", 12.0, "WEEK 24", 168.0, "TREATMENT", "2014-06-18", 168.0]
["CDISCPILOT01", "QS", "01-701-1015", 3300.0, "NPTOT", "NPI-X (9) Total Score", "NPI", "APPETITE/EATING CHANGE", "", "", "0", 0.0, "", "", "", "", "Y", 13.0, "WEEK 26", 182.0, "TREATMENT", "2014-07-02", 182.0]
["CDISCPILOT01", "QS", "01-701-1023", 3001.0, "NPITM01", "DELUSIONS PRESENT", "NPI", "DELUSIONS", "ABSENT", "", "0", 0.0, "", "", "", "Y", "", 3.0, "BASELINE", 1.0, "TREATMENT", "2012-08-05", 1.0]
["CDISCPILOT01", "QS", "01-701-1023", 3002.0, "NPITM01S", "DELUSIONS Score", "NPI", "DELUSIONS", "0", "", "0", 0.0, "", "", "", "Y", "Y", 3.0, "BASELINE", 1.0, "TREATMENT", "2012-08-05", 1.0]
["CDISCPILOT01", "QS", "01-701-1023", 3034.0, "NPITM01F", "DELUSIONS FREQUENCY", "NPI", "DELUSIONS", "3", "", "3", 3.0, "", "", "", "", "", 4.0, "WEEK 2", 14.0, "TREATMENT", "2012-08-27", 23.0]
["CDISCPILOT01", "QS", "01-701-1023", 3035.0, "NPITM01V", "DELUSIONS SEVERITY", "NPI", "DELUSIONS", "1", "", "1", 1.0, "", "", "", "", "", 4.0, "WEEK 2", 14.0, "TREATMENT", "2012-08-27", 23.0]
["CDISCPILOT01", "QS", "01-701-1023", 3036.0, "NPITM01D", "DELUSIONS DISTRESS", "NPI", "DELUSIONS", "0", "", "0", 0.0, "", "", "", "", "", 4.0, "WEEK 2", 14.0, "TREATMENT", "2012-08-27", 23.0]
["CDISCPILOT01", "QS", "01-701-1023", 3037.0, "NPITM01S", "DELUSIONS Score", "NPI", "DELUSIONS", "3", "", "3", 3.0, "", "", "", "", "Y", 4.0, "WEEK 2", 14.0, "TREATMENT", "2012-08-27", 23.0]
["CDISCPILOT01", "QS", "01-701-1023", 3067.0, "NPITM01", "DELUSIONS PRESENT", "NPI", "DELUSIONS", "ABSENT", "", "0", 0.0, "", "", "", "", "", 5.0, "WEEK 4", 28.0, "TREATMENT", "2012-09-02", 29.0]
["CDISCPILOT01", "QS", "01-701-1023", 3068.0, "NPITM01S", "DELUSIONS Score", "NPI", "DELUSIONS", "0", "", "0", 0.0, "", "", "", "", "Y", 5.0, "WEEK 4", 28.0, "TREATMENT", "2012-09-02", 29.0]
["CDISCPILOT01", "QS", "01-701-1023", 3100.0, "NPITM01", "DELUSIONS PRESENT", "NPI", "DELUSIONS", "ABSENT", "", "0", 0.0, "", "", "", "", "", 201.0, "RETRIEVAL", 168.0, "TREATMENT", "2013-02-18", 198.0]
["CDISCPILOT01", "QS", "01-701-1023", 3101.0, "NPITM01S", "DELUSIONS Score", "NPI", "DELUSIONS", "0", "", "0", 0.0, "", "", "", "", "Y", 201.0, "RETRIEVAL", 168.0, "TREATMENT", "2013-02-18", 198.0]
["CDISCPILOT01", "QS", "01-701-1023", 3003.0, "NPITM02", "HALLUCINATIONS PRESENT", "NPI", "HALLUCINATIONS", "ABSENT", "", "0", 0.0, "", "", "", "Y", "", 3.0, "BASELINE", 1.0, "TREATMENT", "2012-08-05", 1.0]
["CDISCPILOT01", "QS", "01-701-1023", 3004.0, "NPITM02S", "HALLUCINATIONS Score", "NPI", "HALLUCINATIONS", "0", "", "0", 0.0, "", "", "", "Y", "Y", 3.0, "BASELINE", 1.0, "TREATMENT", "2012-08-05", 1.0]
["CDISCPILOT01", "QS", "01-701-1023", 3038.0, "NPITM02", "HALLUCINATIONS PRESENT", "NPI", "HALLUCINATIONS", "ABSENT", "", "0", 0.0, "", "", "", "", "", 4.0, "WEEK 2", 14.0, "TREATMENT", "2012-08-27", 23.0]
["CDISCPILOT01", "QS", "01-701-1023", 3039.0, "NPITM02S", "HALLUCINATIONS Score", "NPI", "HALLUCINATIONS", "0", "", "0", 0.0, "", "", "", "", "Y", 4.0, "WEEK 2", 14.0, "TREATMENT", "2012-08-27", 23.0]
["CDISCPILOT01", "QS", "01-701-1023", 3069.0, "NPITM02", "HALLUCINATIONS PRESENT", "NPI", "HALLUCINATIONS", "ABSENT", "", "0", 0.0, "", "", "", "", "", 5.0, "WEEK 4", 28.0, "TREATMENT", "2012-09-02", 29.0]
["CDISCPILOT01", "QS", "01-701-1023", 3070.0, "NPITM02S", "HALLUCINATIONS Score", "NPI", "HALLUCINATIONS", "0", "", "0", 0.0, "", "", "", "", "Y", 5.0, "WEEK 4", 28.0, "TREATMENT", "2012-09-02", 29.0]
["CDISCPILOT01", "QS", "01-701-1023", 3102.0, "NPITM02", "HALLUCINATIONS PRESENT", "NPI", "HALLUCINATIONS", "ABSENT", "", "0", 0.0, "", "", "", "", "", 201.0, "RETRIEVAL", 168.0, "TREATMENT", "2013-02-18", 198.0]
["CDISCPILOT01", "QS", "01-701-1023", 3103.0, "NPITM02S", "HALLUCINATIONS Score", "NPI", "HALLUCINATIONS", "0", "", "0", 0.0, "", "", "", "", "Y", 201.0, "RETRIEVAL", 168.0, "TREATMENT", "2013-02-18", 198.0]
["CDISCPILOT01", "QS", "01-701-1023", 3005.0, "NPITM03F", "AGITATION/AGRESSION FREQUENCY", "NPI", "AGITATION/AGRESSION", "1", "", "1", 1.0, "", "", "", "Y", "", 3.0, "BASELINE", 1.0, "TREATMENT", "2012-08-05", 1.0]
["CDISCPILOT01", "QS", "01-701-1023", 3006.0, "NPITM03V", "AGITATION/AGRESSION SEVERITY", "NPI", "AGITATION/AGRESSION", "1", "", "1", 1.0, "", "", "", "Y", "", 3.0, "BASELINE", 1.0, "TREATMENT", "2012-08-05", 1.0]
["CDISCPILOT01", "QS", "01-701-1023", 3007.0, "NPITM03D", "AGITATION/AGRESSION DISTRESS", "NPI", "AGITATION/AGRESSION", "2", "", "2", 2.0, "", "", "", "Y", "", 3.0, "BASELINE", 1.0, "TREATMENT", "2012-08-05", 1.0]
["CDISCPILOT01", "QS", "01-701-1023", 3008.0, "NPITM03S", "AGITATION/AGRESSION Score", "NPI", "AGITATION/AGRESSION", "1", "", "1", 1.0, "", "", "", "Y", "Y", 3.0, "BASELINE", 1.0, "TREATMENT", "2012-08-05", 1.0]
["CDISCPILOT01", "QS", "01-701-1023", 3040.0, "NPITM03", "AGITATION/AGRESSION PRESENT", "NPI", "AGITATION/AGRESSION", "ABSENT", "", "0", 0.0, "", "", "", "", "", 4.0, "WEEK 2", 14.0, "TREATMENT", "2012-08-27", 23.0]
["CDISCPILOT01", "QS", "01-701-1023", 3041.0, "NPITM03S", "AGITATION/AGRESSION Score", "NPI", "AGITATION/AGRESSION", "0", "", "0", 0.0, "", "", "", "", "Y", 4.0, "WEEK 2", 14.0, "TREATMENT", "2012-08-27", 23.0]
["CDISCPILOT01", "QS", "01-701-1023", 3071.0, "NPITM03F", "AGITATION/AGRESSION FREQUENCY", "NPI", "AGITATION/AGRESSION", "1", "", "1", 1.0, "", "", "", "", "", 5.0, "WEEK 4", 28.0, "TREATMENT", "2012-09-02", 29.0]
["CDISCPILOT01", "QS", "01-701-1023", 3072.0, "NPITM03V", "AGITATION/AGRESSION SEVERITY", "NPI", "AGITATION/AGRESSION", "1", "", "1", 1.0, "", "", "", "", "", 5.0, "WEEK 4", 28.0, "TREATMENT", "2012-09-02", 29.0]
["CDISCPILOT01", "QS", "01-701-1023", 3073.0, "NPITM03D", "AGITATION/AGRESSION DISTRESS", "NPI", "AGITATION/AGRESSION", "2", "", "2", 2.0, "", "", "", "", "", 5.0, "WEEK 4", 28.0, "TREATMENT", "2012-09-02", 29.0]
["CDISCPILOT01", "QS", "01-701-1023", 3074.0, "NPITM03S", "AGITATION/AGRESSION Score", "NPI", "AGITATION/AGRESSION", "1", "", "1", 1.0, "", "", "", "", "Y", 5.0, "WEEK 4", 28.0, "TREATMENT", "2012-09-02", 29.0]
["CDISCPILOT01", "QS", "01-701-1023", 3104.0, "NPITM03", "AGITATION/AGRESSION PRESENT", "NPI", "AGITATION/AGRESSION", "ABSENT", "", "0", 0.0, "", "", "", "", "", 201.0, "RETRIEVAL", 168.0, "TREATMENT", "2013-02-18", 198.0]
["CDISCPILOT01", "QS", "01-701-1023", 3105.0, "NPITM03S", "AGITATION/AGRESSION Score", "NPI", "AGITATION/AGRESSION", "0", "", "0", 0.0, "", "", "", "", "Y", 201.0, "RETRIEVAL", 168.0, "TREATMENT", "2013-02-18", 198.0]
["CDISCPILOT01", "QS", "01-701-1023", 3009.0, "NPITM04F", "DEPRESSION/DYSPHORIA FREQUENCY", "NPI", "DEPRESSION/DYSPHORIA", "2", "", "2", 2.0, "", "", "", "Y", "", 3.0, "BASELINE", 1.0, "TREATMENT", "2012-08-05", 1.0]
["CDISCPILOT01", "QS", "01-701-1023", 3010.0, "NPITM04V", "DEPRESSION/DYSPHORIA SEVERITY", "NPI", "DEPRESSION/DYSPHORIA", "2", "", "2", 2.0, "", "", "", "Y", "", 3.0, "BASELINE", 1.0, "TREATMENT", "2012-08-05", 1.0]
["CDISCPILOT01", "QS", "01-701-1023", 3011.0, "NPITM04D", "DEPRESSION/DYSPHORIA DISTRESS", "NPI", "DEPRESSION/DYSPHORIA", "3", "", "3", 3.0, "", "", "", "Y", "", 3.0, "BASELINE", 1.0, "TREATMENT", "2012-08-05", 1.0]
["CDISCPILOT01", "QS", "01-701-1023", 3012.0, "NPITM04S", "DEPRESSION/DYSPHORIA Score", "NPI", "DEPRESSION/DYSPHORIA", "4", "", "4", 4.0, "", "", "", "Y", "Y", 3.0, "BASELINE", 1.0, "TREATMENT", "2012-08-05", 1.0]
["CDISCPILOT01", "QS", "01-701-1023", 3042.0, "NPITM04F", "DEPRESSION/DYSPHORIA FREQUENCY", "NPI", "DEPRESSION/DYSPHORIA", "2", "", "2", 2.0, "", "", "", "", "", 4.0, "WEEK 2", 14.0, "TREATMENT", "2012-08-27", 23.0]
["CDISCPILOT01", "QS", "01-701-1023", 3043.0, "NPITM04V", "DEPRESSION/DYSPHORIA SEVERITY", "NPI", "DEPRESSION/DYSPHORIA", "2", "", "2", 2.0, "", "", "", "", "", 4.0, "WEEK 2", 14.0, "TREATMENT", "2012-08-27", 23.0]
["CDISCPILOT01", "QS", "01-701-1023", 3044.0, "NPITM04D", "DEPRESSION/DYSPHORIA DISTRESS", "NPI", "DEPRESSION/DYSPHORIA", "0", "", "0", 0.0, "", "", "", "", "", 4.0, "WEEK 2", 14.0, "TREATMENT", "2012-08-27", 23.0]
["CDISCPILOT01", "QS", "01-701-1023", 3045.0, "NPITM04S", "DEPRESSION/DYSPHORIA Score", "NPI", "DEPRESSION/DYSPHORIA", "4", "", "4", 4.0, "", "", "", "", "Y", 4.0, "WEEK 2", 14.0, "TREATMENT", "2012-08-27", 23.0]
["CDISCPILOT01", "QS", "01-701-1023", 3075.0, "NPITM04F", "DEPRESSION/DYSPHORIA FREQUENCY", "NPI", "DEPRESSION/DYSPHORIA", "2", "", "2", 2.0, "", "", "", "", "", 5.0, "WEEK 4", 28.0, "TREATMENT", "2012-09-02", 29.0]
["CDISCPILOT01", "QS", "01-701-1023", 3076.0, "NPITM04V", "DEPRESSION/DYSPHORIA SEVERITY", "NPI", "DEPRESSION/DYSPHORIA", "2", "", "2", 2.0, "", "", "", "", "", 5.0, "WEEK 4", 28.0, "TREATMENT", "2012-09-02", 29.0]
["CDISCPILOT01", "QS", "01-701-1023", 3077.0, "NPITM04D", "DEPRESSION/DYSPHORIA DISTRESS", "NPI", "DEPRESSION/DYSPHORIA", "3", "", "3", 3.0, "", "", "", "", "", 5.0, "WEEK 4", 28.0, "TREATMENT", "2012-09-02", 29.0]
["CDISCPILOT01", "QS", "01-701-1023", 3078.0, "NPITM04S", "DEPRESSION/DYSPHORIA Score", "NPI", "DEPRESSION/DYSPHORIA", "4", "", "4", 4.0, "", "", "", "", "Y", 5.0, "WEEK 4", 28.0, "TREATMENT", "2012-09-02", 29.0]
["CDISCPILOT01", "QS", "01-701-1023", 3106.0, "NPITM04F", "DEPRESSION/DYSPHORIA FREQUENCY", "NPI", "DEPRESSION/DYSPHORIA", "1", "", "1", 1.0, "", "", "", "", "", 201.0, "RETRIEVAL", 168.0, "TREATMENT", "2013-02-18", 198.0]
["CDISCPILOT01", "QS", "01-701-1023", 3107.0, "NPITM04V", "DEPRESSION/DYSPHORIA SEVERITY", "NPI", "DEPRESSION/DYSPHORIA", "1", "", "1", 1.0, "", "", "", "", "", 201.0, "RETRIEVAL", 168.0, "TREATMENT", "2013-02-18", 198.0]
["CDISCPILOT01", "QS", "01-701-1023", 3108.0, "NPITM04D", "DEPRESSION/DYSPHORIA DISTRESS", "NPI", "DEPRESSION/DYSPHORIA", "2", "", "2", 2.0, "", "", "", "", "", 201.0, "RETRIEVAL", 168.0, "TREATMENT", "2013-02-18", 198.0]
["CDISCPILOT01", "QS", "01-701-1023", 3109.0, "NPITM04S", "DEPRESSION/DYSPHORIA Score", "NPI", "DEPRESSION/DYSPHORIA", "1", "", "1", 1.0, "", "", "", "", "Y", 201.0, "RETRIEVAL", 168.0, "TREATMENT", "2013-02-18", 198.0]
["CDISCPILOT01", "QS", "01-701-1023", 3013.0, "NPITM05F", "ANXIETY FREQUENCY", "NPI", "ANXIETY", "2", "", "2", 2.0, "", "", "", "Y", "", 3.0, "BASELINE", 1.0, "TREATMENT", "2012-08-05", 1.0]
["CDISCPILOT01", "QS", "01-701-1023", 3014.0, "NPITM05V", "ANXIETY SEVERITY", "NPI", "ANXIETY", "2", "", "2", 2.0, "", "", "", "Y", "", 3.0, "BASELINE", 1.0, "TREATMENT", "2012-08-05", 1.0]
["CDISCPILOT01", "QS", "01-701-1023", 3015.0, "NPITM05D", "ANXIETY DISTRESS", "NPI", "ANXIETY", "3", "", "3", 3.0, "", "", "", "Y", "", 3.0, "BASELINE", 1.0, "TREATMENT", "2012-08-05", 1.0]
["CDISCPILOT01", "QS", "01-701-1023", 3016.0, "NPITM05S", "ANXIETY Score", "NPI", "ANXIETY", "4", "", "4", 4.0, "", "", "", "Y", "Y", 3.0, "BASELINE", 1.0, "TREATMENT", "2012-08-05", 1.0]
["CDISCPILOT01", "QS", "01-701-1023", 3046.0, "NPITM05F", "ANXIETY FREQUENCY", "NPI", "ANXIETY", "1", "", "1", 1.0, "", "", "", "", "", 4.0, "WEEK 2", 14.0, "TREATMENT", "2012-08-27", 23.0]
["CDISCPILOT01", "QS", "01-701-1023", 3047.0, "NPITM05V", "ANXIETY SEVERITY", "NPI", "ANXIETY", "2", "", "2", 2.0, "", "", "", "", "", 4.0, "WEEK 2", 14.0, "TREATMENT", "2012-08-27", 23.0]
["CDISCPILOT01", "QS", "01-701-1023", 3048.0, "NPITM05D", "ANXIETY DISTRESS", "NPI", "ANXIETY", "0", "", "0", 0.0, "", "", "", "", "", 4.0, "WEEK 2", 14.0, "TREATMENT", "2012-08-27", 23.0]
["CDISCPILOT01", "QS", "01-701-1023", 3049.0, "NPITM05S", "ANXIETY Score", "NPI", "ANXIETY", "2", "", "2", 2.0, "", "", "", "", "Y", 4.0, "WEEK 2", 14.0, "TREATMENT", "2012-08-27", 23.0]
["CDISCPILOT01", "QS", "01-701-1023", 3079.0, "NPITM05F", "ANXIETY FREQUENCY", "NPI", "ANXIETY", "2", "", "2", 2.0, "", "", "", "", "", 5.0, "WEEK 4", 28.0, "TREATMENT", "2012-09-02", 29.0]
["CDISCPILOT01", "QS", "01-701-1023", 3080.0, "NPITM05V", "ANXIETY SEVERITY", "NPI", "ANXIETY", "2", "", "2", 2.0, "", "", "", "", "", 5.0, "WEEK 4", 28.0, "TREATMENT", "2012-09-02", 29.0]
["CDISCPILOT01", "QS", "01-701-1023", 3081.0, "NPITM05D", "ANXIETY DISTRESS", "NPI", "ANXIETY", "3", "", "3", 3.0, "", "", "", "", "", 5.0, "WEEK 4", 28.0, "TREATMENT", "2012-09-02", 29.0]
["CDISCPILOT01", "QS", "01-701-1023", 3082.0, "NPITM05S", "ANXIETY Score", "NPI", "ANXIETY", "4", "", "4", 4.0, "", "", "", "", "Y", 5.0, "WEEK 4", 28.0, "TREATMENT", "2012-09-02", 29.0]
["CDISCPILOT01", "QS", "01-701-1023", 3110.0, "NPITM05F", "ANXIETY FREQUENCY", "NPI", "ANXIETY", "2", "", "2", 2.0, "", "", "", "", "", 201.0, "RETRIEVAL", 168.0, "TREATMENT", "2013-02-18", 198.0]
["CDISCPILOT01", "QS", "01-701-1023", 3111.0, "NPITM05V", "ANXIETY SEVERITY", "NPI", "ANXIETY", "2", "", "2", 2.0, "", "", "", "", "", 201.0, "RETRIEVAL", 168.0, "TREATMENT", "2013-02-18", 198.0]
["CDISCPILOT01", "QS", "01-701-1023", 3112.0, "NPITM05D", "ANXIETY DISTRESS", "NPI", "ANXIETY", "3", "", "3", 3.0, "", "", "", "", "", 201.0, "RETRIEVAL", 168.0, "TREATMENT", "2013-02-18", 198.0]
["CDISCPILOT01", "QS", "01-701-1023", 3113.0, "NPITM05S", "ANXIETY Score", "NPI", "ANXIETY", "4", "", "4", 4.0, "", "", "", "", "Y", 201.0, "RETRIEVAL", 168.0, "TREATMENT", "2013-02-18", 198.0]
["CDISCPILOT01", "QS", "01-701-1023", 3017.0, "NPITM06", "EUPHORIA/ELATION PRESENT", "NPI", "EUPHORIA/ELATION", "ABSENT", "", "0", 0.0, "", "", "", "Y", "", 3.0, "BASELINE", 1.0, "TREATMENT", "2012-08-05", 1.0]
["CDISCPILOT01", "QS", "01-701-1023", 3018.0, "NPITM06S", "EUPHORIA/ELATION Score", "NPI", "EUPHORIA/ELATION", "0", "", "0", 0.0, "", "", "", "Y", "Y", 3.0, "BASELINE", 1.0, "TREATMENT", "2012-08-05", 1.0]
["CDISCPILOT01", "QS", "01-701-1023", 3050.0, "NPITM06", "EUPHORIA/ELATION PRESENT", "NPI", "EUPHORIA/ELATION", "ABSENT", "", "0", 0.0, "", "", "", "", "", 4.0, "WEEK 2", 14.0, "TREATMENT", "2012-08-27", 23.0]
["CDISCPILOT01", "QS", "01-701-1023", 3051.0, "NPITM06S", "EUPHORIA/ELATION Score", "NPI", "EUPHORIA/ELATION", "0", "", "0", 0.0, "", "", "", "", "Y", 4.0, "WEEK 2", 14.0, "TREATMENT", "2012-08-27", 23.0]
["CDISCPILOT01", "QS", "01-701-1023", 3083.0, "NPITM06", "EUPHORIA/ELATION PRESENT", "NPI", "EUPHORIA/ELATION", "ABSENT", "", "0", 0.0, "", "", "", "", "", 5.0, "WEEK 4", 28.0, "TREATMENT", "2012-09-02", 29.0]
["CDISCPILOT01", "QS", "01-701-1023", 3084.0, "NPITM06S", "EUPHORIA/ELATION Score", "NPI", "EUPHORIA/ELATION", "0", "", "0", 0.0, "", "", "", "", "Y", 5.0, "WEEK 4", 28.0, "TREATMENT", "2012-09-02", 29.0]
["CDISCPILOT01", "QS", "01-701-1023", 3114.0, "NPITM06", "EUPHORIA/ELATION PRESENT", "NPI", "EUPHORIA/ELATION", "ABSENT", "", "0", 0.0, "", "", "", "", "", 201.0, "RETRIEVAL", 168.0, "TREATMENT", "2013-02-18", 198.0]
["CDISCPILOT01", "QS", "01-701-1023", 3115.0, "NPITM06S", "EUPHORIA/ELATION Score", "NPI", "EUPHORIA/ELATION", "0", "", "0", 0.0, "", "", "", "", "Y", 201.0, "RETRIEVAL", 168.0, "TREATMENT", "2013-02-18", 198.0]
["CDISCPILOT01", "QS", "01-701-1023", 3019.0, "NPITM07", "APATHY/INDIFFERENCE PRESENT", "NPI", "APATHY/INDIFFERENCE", "ABSENT", "", "0", 0.0, "", "", "", "Y", "", 3.0, "BASELINE", 1.0, "TREATMENT", "2012-08-05", 1.0]
["CDISCPILOT01", "QS", "01-701-1023", 3020.0, "NPITM07S", "APATHY/INDIFFERENCE Score", "NPI", "APATHY/INDIFFERENCE", "0", "", "0", 0.0, "", "", "", "Y", "Y", 3.0, "BASELINE", 1.0, "TREATMENT", "2012-08-05", 1.0]
["CDISCPILOT01", "QS", "01-701-1023", 3052.0, "NPITM07", "APATHY/INDIFFERENCE PRESENT", "NPI", "APATHY/INDIFFERENCE", "ABSENT", "", "0", 0.0, "", "", "", "", "", 4.0, "WEEK 2", 14.0, "TREATMENT", "2012-08-27", 23.0]
["CDISCPILOT01", "QS", "01-701-1023", 3053.0, "NPITM07S", "APATHY/INDIFFERENCE Score", "NPI", "APATHY/INDIFFERENCE", "0", "", "0", 0.0, "", "", "", "", "Y", 4.0, "WEEK 2", 14.0, "TREATMENT", "2012-08-27", 23.0]
["CDISCPILOT01", "QS", "01-701-1023", 3085.0, "NPITM07", "APATHY/INDIFFERENCE PRESENT", "NPI", "APATHY/INDIFFERENCE", "ABSENT", "", "0", 0.0, "", "", "", "", "", 5.0, "WEEK 4", 28.0, "TREATMENT", "2012-09-02", 29.0]
["CDISCPILOT01", "QS", "01-701-1023", 3086.0, "NPITM07S", "APATHY/INDIFFERENCE Score", "NPI", "APATHY/INDIFFERENCE", "0", "", "0", 0.0, "", "", "", "", "Y", 5.0, "WEEK 4", 28.0, "TREATMENT", "2012-09-02", 29.0]
["CDISCPILOT01", "QS", "01-701-1023", 3116.0, "NPITM07", "APATHY/INDIFFERENCE PRESENT", "NPI", "APATHY/INDIFFERENCE", "ABSENT", "", "0", 0.0, "", "", "", "", "", 201.0, "RETRIEVAL", 168.0, "TREATMENT", "2013-02-18", 198.0]
["CDISCPILOT01", "QS", "01-701-1023", 3117.0, "NPITM07S", "APATHY/INDIFFERENCE Score", "NPI", "APATHY/INDIFFERENCE", "0", "", "0", 0.0, "", "", "", "", "Y", 201.0, "RETRIEVAL", 168.0, "TREATMENT", "2013-02-18", 198.0]
["CDISCPILOT01", "QS", "01-701-1023", 3021.0, "NPITM08", "DISINHIBITION PRESENT", "NPI", "DISINHIBITION", "ABSENT", "", "0", 0.0, "", "", "", "Y", "", 3.0, "BASELINE", 1.0, "TREATMENT", "2012-08-05", 1.0]
["CDISCPILOT01", "QS", "01-701-1023", 3022.0, "NPITM08S", "DISINHIBITION Score", "NPI", "DISINHIBITION", "0", "", "0", 0.0, "", "", "", "Y", "Y", 3.0, "BASELINE", 1.0, "TREATMENT", "2012-08-05", 1.0]
["CDISCPILOT01", "QS", "01-701-1023", 3054.0, "NPITM08", "DISINHIBITION PRESENT", "NPI", "DISINHIBITION", "ABSENT", "", "0", 0.0, "", "", "", "", "", 4.0, "WEEK 2", 14.0, "TREATMENT", "2012-08-27", 23.0]
["CDISCPILOT01", "QS", "01-701-1023", 3055.0, "NPITM08S", "DISINHIBITION Score", "NPI", "DISINHIBITION", "0", "", "0", 0.0, "", "", "", "", "Y", 4.0, "WEEK 2", 14.0, "TREATMENT", "2012-08-27", 23.0]
["CDISCPILOT01", "QS", "01-701-1023", 3087.0, "NPITM08", "DISINHIBITION PRESENT", "NPI", "DISINHIBITION", "ABSENT", "", "0", 0.0, "", "", "", "", "", 5.0, "WEEK 4", 28.0, "TREATMENT", "2012-09-02", 29.0]
["CDISCPILOT01", "QS", "01-701-1023", 3088.0, "NPITM08S", "DISINHIBITION Score", "NPI", "DISINHIBITION", "0", "", "0", 0.0, "", "", "", "", "Y", 5.0, "WEEK 4", 28.0, "TREATMENT", "2012-09-02", 29.0]
["CDISCPILOT01", "QS", "01-701-1023", 3118.0, "NPITM08", "DISINHIBITION PRESENT", "NPI", "DISINHIBITION", "ABSENT", "", "0", 0.0, "", "", "", "", "", 201.0, "RETRIEVAL", 168.0, "TREATMENT", "2013-02-18", 198.0]
["CDISCPILOT01", "QS", "01-701-1023", 3119.0, "NPITM08S", "DISINHIBITION Score", "NPI", "DISINHIBITION", "0", "", "0", 0.0, "", "", "", "", "Y", 201.0, "RETRIEVAL", 168.0, "TREATMENT", "2013-02-18", 198.0]
["CDISCPILOT01", "QS", "01-701-1023", 3023.0, "NPITM09F", "IRRITABILITY/LABILITY FREQUENCY", "NPI", "IRRITABILITY/LABILITY", "2", "", "2", 2.0, "", "", "", "Y", "", 3.0, "BASELINE", 1.0, "TREATMENT", "2012-08-05", 1.0]
["CDISCPILOT01", "QS", "01-701-1023", 3024.0, "NPITM09V", "IRRITABILITY/LABILITY SEVERITY", "NPI", "IRRITABILITY/LABILITY", "1", "", "1", 1.0, "", "", "", "Y", "", 3.0, "BASELINE", 1.0, "TREATMENT", "2012-08-05", 1.0]
["CDISCPILOT01", "QS", "01-701-1023", 3025.0, "NPITM09D", "IRRITABILITY/LABILITY DISTRESS", "NPI", "IRRITABILITY/LABILITY", "3", "", "3", 3.0, "", "", "", "Y", "", 3.0, "BASELINE", 1.0, "TREATMENT", "2012-08-05", 1.0]
["CDISCPILOT01", "QS", "01-701-1023", 3026.0, "NPITM09S", "IRRITABILITY/LABILITY Score", "NPI", "IRRITABILITY/LABILITY", "2", "", "2", 2.0, "", "", "", "Y", "Y", 3.0, "BASELINE", 1.0, "TREATMENT", "2012-08-05", 1.0]
["CDISCPILOT01", "QS", "01-701-1023", 3056.0, "NPITM09F", "IRRITABILITY/LABILITY FREQUENCY", "NPI", "IRRITABILITY/LABILITY", "1", "", "1", 1.0, "", "", "", "", "", 4.0, "WEEK 2", 14.0, "TREATMENT", "2012-08-27", 23.0]
["CDISCPILOT01", "QS", "01-701-1023", 3057.0, "NPITM09V", "IRRITABILITY/LABILITY SEVERITY", "NPI", "IRRITABILITY/LABILITY", "1", "", "1", 1.0, "", "", "", "", "", 4.0, "WEEK 2", 14.0, "TREATMENT", "2012-08-27", 23.0]
["CDISCPILOT01", "QS", "01-701-1023", 3058.0, "NPITM09D", "IRRITABILITY/LABILITY DISTRESS", "NPI", "IRRITABILITY/LABILITY", "2", "", "2", 2.0, "", "", "", "", "", 4.0, "WEEK 2", 14.0, "TREATMENT", "2012-08-27", 23.0]
["CDISCPILOT01", "QS", "01-701-1023", 3059.0, "NPITM09S", "IRRITABILITY/LABILITY Score", "NPI", "IRRITABILITY/LABILITY", "1", "", "1", 1.0, "", "", "", "", "Y", 4.0, "WEEK 2", 14.0, "TREATMENT", "2012-08-27", 23.0]
["CDISCPILOT01", "QS", "01-701-1023", 3089.0, "NPITM09F", "IRRITABILITY/LABILITY FREQUENCY", "NPI", "IRRITABILITY/LABILITY", "2", "", "2", 2.0, "", "", "", "", "", 5.0, "WEEK 4", 28.0, "TREATMENT", "2012-09-02", 29.0]
["CDISCPILOT01", "QS", "01-701-1023", 3090.0, "NPITM09V", "IRRITABILITY/LABILITY SEVERITY", "NPI", "IRRITABILITY/LABILITY", "1", "", "1", 1.0, "", "", "", "", "", 5.0, "WEEK 4", 28.0, "TREATMENT", "2012-09-02", 29.0]
["CDISCPILOT01", "QS", "01-701-1023", 3091.0, "NPITM09D", "IRRITABILITY/LABILITY DISTRESS", "NPI", "IRRITABILITY/LABILITY", "3", "", "3", 3.0, "", "", "", "", "", 5.0, "WEEK 4", 28.0, "TREATMENT", "2012-09-02", 29.0]
["CDISCPILOT01", "QS", "01-701-1023", 3092.0, "NPITM09S", "IRRITABILITY/LABILITY Score", "NPI", "IRRITABILITY/LABILITY", "2", "", "2", 2.0, "", "", "", "", "Y", 5.0, "WEEK 4", 28.0, "TREATMENT", "2012-09-02", 29.0]
["CDISCPILOT01", "QS", "01-701-1023", 3120.0, "NPITM09", "IRRITABILITY/LABILITY PRESENT", "NPI", "IRRITABILITY/LABILITY", "ABSENT", "", "0", 0.0, "", "", "", "", "", 201.0, "RETRIEVAL", 168.0, "TREATMENT", "2013-02-18", 198.0]
["CDISCPILOT01", "QS", "01-701-1023", 3121.0, "NPITM09S", "IRRITABILITY/LABILITY Score", "NPI", "IRRITABILITY/LABILITY", "0", "", "0", 0.0, "", "", "", "", "Y", 201.0, "RETRIEVAL", 168.0, "TREATMENT", "2013-02-18", 198.0]
["CDISCPILOT01", "QS", "01-701-1023", 3027.0, "NPITM10", "ABERRANT MOTOR BEHAVIOR PRESENT", "NPI", "ABERRANT MOTOR BEHAVIOR", "ABSENT", "", "0", 0.0, "", "", "", "Y", "", 3.0, "BASELINE", 1.0, "TREATMENT", "2012-08-05", 1.0]
["CDISCPILOT01", "QS", "01-701-1023", 3028.0, "NPITM10S", "ABERRANT MOTOR BEHAVIOR Score", "NPI", "ABERRANT MOTOR BEHAVIOR", "0", "", "0", 0.0, "", "", "", "Y", "Y", 3.0, "BASELINE", 1.0, "TREATMENT", "2012-08-05", 1.0]
["CDISCPILOT01", "QS", "01-701-1023", 3060.0, "NPITM10", "ABERRANT MOTOR BEHAVIOR PRESENT", "NPI", "ABERRANT MOTOR BEHAVIOR", "ABSENT", "", "0", 0.0, "", "", "", "", "", 4.0, "WEEK 2", 14.0, "TREATMENT", "2012-08-27", 23.0]
["CDISCPILOT01", "QS", "01-701-1023", 3061.0, "NPITM10S", "ABERRANT MOTOR BEHAVIOR Score", "NPI", "ABERRANT MOTOR BEHAVIOR", "0", "", "0", 0.0, "", "", "", "", "Y", 4.0, "WEEK 2", 14.0, "TREATMENT", "2012-08-27", 23.0]
["CDISCPILOT01", "QS", "01-701-1023", 3093.0, "NPITM10", "ABERRANT MOTOR BEHAVIOR PRESENT", "NPI", "ABERRANT MOTOR BEHAVIOR", "ABSENT", "", "0", 0.0, "", "", "", "", "", 5.0, "WEEK 4", 28.0, "TREATMENT", "2012-09-02", 29.0]
["CDISCPILOT01", "QS", "01-701-1023", 3094.0, "NPITM10S", "ABERRANT MOTOR BEHAVIOR Score", "NPI", "ABERRANT MOTOR BEHAVIOR", "0", "", "0", 0.0, "", "", "", "", "Y", 5.0, "WEEK 4", 28.0, "TREATMENT", "2012-09-02", 29.0]
["CDISCPILOT01", "QS", "01-701-1023", 3122.0, "NPITM10", "ABERRANT MOTOR BEHAVIOR PRESENT", "NPI", "ABERRANT MOTOR BEHAVIOR", "ABSENT", "", "0", 0.0, "", "", "", "", "", 201.0, "RETRIEVAL", 168.0, "TREATMENT", "2013-02-18", 198.0]
["CDISCPILOT01", "QS", "01-701-1023", 3123.0, "NPITM10S", "ABERRANT MOTOR BEHAVIOR Score", "NPI", "ABERRANT MOTOR BEHAVIOR", "0", "", "0", 0.0, "", "", "", "", "Y", 201.0, "RETRIEVAL", 168.0, "TREATMENT", "2013-02-18", 198.0]
["CDISCPILOT01", "QS", "01-701-1023", 3029.0, "NPITM11", "NIGHT-TIME BEHAVIOR PRESENT", "NPI", "NIGHT-TIME BEHAVIOR", "ABSENT", "", "0", 0.0, "", "", "", "Y", "", 3.0, "BASELINE", 1.0, "TREATMENT", "2012-08-05", 1.0]
["CDISCPILOT01", "QS", "01-701-1023", 3030.0, "NPITM11S", "NIGHT-TIME BEHAVIOR Score", "NPI", "NIGHT-TIME BEHAVIOR", "0", "", "0", 0.0, "", "", "", "Y", "Y", 3.0, "BASELINE", 1.0, "TREATMENT", "2012-08-05", 1.0]
["CDISCPILOT01", "QS", "01-701-1023", 3062.0, "NPITM11", "NIGHT-TIME BEHAVIOR PRESENT", "NPI", "NIGHT-TIME BEHAVIOR", "ABSENT", "", "0", 0.0, "", "", "", "", "", 4.0, "WEEK 2", 14.0, "TREATMENT", "2012-08-27", 23.0]
["CDISCPILOT01", "QS", "01-701-1023", 3063.0, "NPITM11S", "NIGHT-TIME BEHAVIOR Score", "NPI", "NIGHT-TIME BEHAVIOR", "0", "", "0", 0.0, "", "", "", "", "Y", 4.0, "WEEK 2", 14.0, "TREATMENT", "2012-08-27", 23.0]
["CDISCPILOT01", "QS", "01-701-1023", 3095.0, "NPITM11", "NIGHT-TIME BEHAVIOR PRESENT", "NPI", "NIGHT-TIME BEHAVIOR", "ABSENT", "", "0", 0.0, "", "", "", "", "", 5.0, "WEEK 4", 28.0, "TREATMENT", "2012-09-02", 29.0]
["CDISCPILOT01", "QS", "01-701-1023", 3096.0, "NPITM11S", "NIGHT-TIME BEHAVIOR Score", "NPI", "NIGHT-TIME BEHAVIOR", "0", "", "0", 0.0, "", "", "", "", "Y", 5.0, "WEEK 4", 28.0, "TREATMENT", "2012-09-02", 29.0]
["CDISCPILOT01", "QS", "01-701-1023", 3124.0, "NPITM11", "NIGHT-TIME BEHAVIOR PRESENT", "NPI", "NIGHT-TIME BEHAVIOR", "ABSENT", "", "0", 0.0, "", "", "", "", "", 201.0, "RETRIEVAL", 168.0, "TREATMENT", "2013-02-18", 198.0]
["CDISCPILOT01", "QS", "01-701-1023", 3125.0, "NPITM11S", "NIGHT-TIME BEHAVIOR Score", "NPI", "NIGHT-TIME BEHAVIOR", "0", "", "0", 0.0, "", "", "", "", "Y", 201.0, "RETRIEVAL", 168.0, "TREATMENT", "2013-02-18", 198.0]
["CDISCPILOT01", "QS", "01-701-1023", 3031.0, "NPITM12", "APPETITE/EATING CHANGE PRESENT", "NPI", "APPETITE/EATING CHANGE", "ABSENT", "", "0", 0.0, "", "", "", "Y", "", 3.0, "BASELINE", 1.0, "TREATMENT", "2012-08-05", 1.0]
["CDISCPILOT01", "QS", "01-701-1023", 3032.0, "NPITM12S", "APPETITE/EATING CHANGE Score", "NPI", "APPETITE/EATING CHANGE", "0", "", "0", 0.0, "", "", "", "Y", "Y", 3.0, "BASELINE", 1.0, "TREATMENT", "2012-08-05", 1.0]
["CDISCPILOT01", "QS", "01-701-1023", 3064.0, "NPITM12", "APPETITE/EATING CHANGE PRESENT", "NPI", "APPETITE/EATING CHANGE", "ABSENT", "", "0", 0.0, "", "", "", "", "", 4.0, "WEEK 2", 14.0, "TREATMENT", "2012-08-27", 23.0]
["CDISCPILOT01", "QS", "01-701-1023", 3065.0, "NPITM12S", "APPETITE/EATING CHANGE Score", "NPI", "APPETITE/EATING CHANGE", "0", "", "0", 0.0, "", "", "", "", "Y", 4.0, "WEEK 2", 14.0, "TREATMENT", "2012-08-27", 23.0]
["CDISCPILOT01", "QS", "01-701-1023", 3097.0, "NPITM12", "APPETITE/EATING CHANGE PRESENT", "NPI", "APPETITE/EATING CHANGE", "ABSENT", "", "0", 0.0, "", "", "", "", "", 5.0, "WEEK 4", 28.0, "TREATMENT", "2012-09-02", 29.0]
["CDISCPILOT01", "QS", "01-701-1023", 3098.0, "NPITM12S", "APPETITE/EATING CHANGE Score", "NPI", "APPETITE/EATING CHANGE", "0", "", "0", 0.0, "", "", "", "", "Y", 5.0, "WEEK 4", 28.0, "TREATMENT", "2012-09-02", 29.0]
["CDISCPILOT01", "QS", "01-701-1023", 3126.0, "NPITM12", "APPETITE/EATING CHANGE PRESENT", "NPI", "APPETITE/EATING CHANGE", "ABSENT", "", "0", 0.0, "", "", "", "", "", 201.0, "RETRIEVAL", 168.0, "TREATMENT", "2013-02-18", 198.0]
["CDISCPILOT01", "QS", "01-701-1023", 3127.0, "NPITM12S", "APPETITE/EATING CHANGE Score", "NPI", "APPETITE/EATING CHANGE", "0", "", "0", 0.0, "", "", "", "", "Y", 201.0, "RETRIEVAL", 168.0, "TREATMENT", "2013-02-18", 198.0]
["CDISCPILOT01", "QS", "01-701-1023", 3033.0, "NPTOT", "NPI-X (9) Total Score", "NPI", "APPETITE/EATING CHANGE", "", "", "11", 11.0, "", "", "", "Y", "Y", 3.0, "BASELINE", 1.0, "TREATMENT", "2012-08-05", 1.0]
["CDISCPILOT01", "QS", "01-701-1023", 3066.0, "NPTOT", "NPI-X (9) Total Score", "NPI", "APPETITE/EATING CHANGE", "", "", "10", 10.0, "", "", "", "", "Y", 4.0, "WEEK 2", 14.0, "TREATMENT", "2012-08-27", 23.0]
["CDISCPILOT01", "QS", "01-701-1023", 3099.0, "NPTOT", "NPI-X (9) Total Score", "NPI", "APPETITE/EATING CHANGE", "", "", "11", 11.0, "", "", "", "", "Y", 5.0, "WEEK 4", 28.0, "TREATMENT", "2012-09-02", 29.0]
["CDISCPILOT01", "QS", "01-701-1023", 3128.0, "NPTOT", "NPI-X (9) Total Score", "NPI", "APPETITE/EATING CHANGE", "", "", "5", 5.0, "", "", "", "", "Y", 201.0, "RETRIEVAL", 168.0, "TREATMENT", "2013-02-18", 198.0]
["CDISCPILOT01", "QS", "01-701-1028", 3001.0, "NPITM01", "DELUSIONS PRESENT", "NPI", "DELUSIONS", "ABSENT", "", "0", 0.0, "", "", "", "Y", "", 3.0, "BASELINE", 1.0, "TREATMENT", "2013-07-19", 1.0]
["CDISCPILOT01", "QS", "01-701-1028", 3002.0, "NPITM01S", "DELUSIONS Score", "NPI", "DELUSIONS", "0", "", "0", 0.0, "", "", "", "Y", "Y", 3.0, "BASELINE", 1.0, "TREATMENT", "2013-07-19", 1.0]
["CDISCPILOT01", "QS", "01-701-1028", 3028.0, "NPITM01", "DELUSIONS PRESENT", "NPI", "DELUSIONS", "ABSENT", "", "0", 0.0, "", "", "", "", "", 4.0, "WEEK 2", 14.0, "TREATMENT", "2013-08-01", 14.0]
["CDISCPILOT01", "QS", "01-701-1028", 3029.0, "NPITM01S", "DELUSIONS Score", "NPI", "DELUSIONS", "0", "", "0", 0.0, "", "", "", "", "Y", 4.0, "WEEK 2", 14.0, "TREATMENT", "2013-08-01", 14.0]
["CDISCPILOT01", "QS", "01-701-1028", 3055.0, "NPITM01", "DELUSIONS PRESENT", "NPI", "DELUSIONS", "ABSENT", "", "0", 0.0, "", "", "", "", "", 5.0, "WEEK 4", 28.0, "TREATMENT", "2013-08-14", 27.0]
["CDISCPILOT01", "QS", "01-701-1028", 3056.0, "NPITM01S", "DELUSIONS Score", "NPI", "DELUSIONS", "0", "", "0", 0.0, "", "", "", "", "Y", 5.0, "WEEK 4", 28.0, "TREATMENT", "2013-08-14", 27.0]
["CDISCPILOT01", "QS", "01-701-1028", 3082.0, "NPITM01", "DELUSIONS PRESENT", "NPI", "DELUSIONS", "ABSENT", "", "0", 0.0, "", "", "", "", "", 7.0, "WEEK 6", 42.0, "TREATMENT", "2013-08-29", 42.0]
["CDISCPILOT01", "QS", "01-701-1028", 3083.0, "NPITM01S", "DELUSIONS Score", "NPI", "DELUSIONS", "0", "", "0", 0.0, "", "", "", "", "Y", 7.0, "WEEK 6", 42.0, "TREATMENT", "2013-08-29", 42.0]
["CDISCPILOT01", "QS", "01-701-1028", 3109.0, "NPITM01", "DELUSIONS PRESENT", "NPI", "DELUSIONS", "ABSENT", "", "0", 0.0, "", "", "", "", "", 8.0, "WEEK 8", 56.0, "TREATMENT", "2013-09-10", 54.0]
["CDISCPILOT01", "QS", "01-701-1028", 3110.0, "NPITM01S", "DELUSIONS Score", "NPI", "DELUSIONS", "0", "", "0", 0.0, "", "", "", "", "Y", 8.0, "WEEK 8", 56.0, "TREATMENT", "2013-09-10", 54.0]
["CDISCPILOT01", "QS", "01-701-1028", 3138.0, "NPITM01", "DELUSIONS PRESENT", "NPI", "DELUSIONS", "ABSENT", "", "0", 0.0, "", "", "", "", "", 8.1, "WEEK 10 (T)", 70.0, "TREATMENT", "2013-09-24", 68.0]
["CDISCPILOT01", "QS", "01-701-1028", 3139.0, "NPITM01S", "DELUSIONS Score", "NPI", "DELUSIONS", "0", "", "0", 0.0, "", "", "", "", "Y", 8.1, "WEEK 10 (T)", 70.0, "TREATMENT", "2013-09-24", 68.0]
["CDISCPILOT01", "QS", "01-701-1028", 3165.0, "NPITM01", "DELUSIONS PRESENT", "NPI", "DELUSIONS", "ABSENT", "", "0", 0.0, "", "", "", "", "", 9.0, "WEEK 12", 84.0, "TREATMENT", "2013-10-09", 83.0]
["CDISCPILOT01", "QS", "01-701-1028", 3166.0, "NPITM01S", "DELUSIONS Score", "NPI", "DELUSIONS", "0", "", "0", 0.0, "", "", "", "", "Y", 9.0, "WEEK 12", 84.0, "TREATMENT", "2013-10-09", 83.0]
["CDISCPILOT01", "QS", "01-701-1028", 3192.0, "NPITM01", "DELUSIONS PRESENT", "NPI", "DELUSIONS", "ABSENT", "", "0", 0.0, "", "", "", "", "", 9.1, "WEEK 14 (T)", 98.0, "TREATMENT", "2013-10-23", 97.0]
["CDISCPILOT01", "QS", "01-701-1028", 3193.0, "NPITM01S", "DELUSIONS Score", "NPI", "DELUSIONS", "0", "", "0", 0.0, "", "", "", "", "Y", 9.1, "WEEK 14 (T)", 98.0, "TREATMENT", "2013-10-23", 97.0]
["CDISCPILOT01", "QS", "01-701-1028", 3219.0, "NPITM01", "DELUSIONS PRESENT", "NPI", "DELUSIONS", "ABSENT", "", "0", 0.0, "", "", "", "", "", 10.0, "WEEK 16", 112.0, "TREATMENT", "2013-11-06", 111.0]
["CDISCPILOT01", "QS", "01-701-1028", 3220.0, "NPITM01S", "DELUSIONS Score", "NPI", "DELUSIONS", "0", "", "0", 0.0, "", "", "", "", "Y", 10.0, "WEEK 16", 112.0, "TREATMENT", "2013-11-06", 111.0]
["CDISCPILOT01", "QS", "01-701-1028", 3246.0, "NPITM01", "DELUSIONS PRESENT", "NPI", "DELUSIONS", "ABSENT", "", "0", 0.0, "", "", "", "", "", 10.1, "WEEK 18 (T)", 126.0, "TREATMENT", "2013-11-20", 125.0]
["CDISCPILOT01", "QS", "01-701-1028", 3247.0, "NPITM01S", "DELUSIONS Score", "NPI", "DELUSIONS", "0", "", "0", 0.0, "", "", "", "", "Y", 10.1, "WEEK 18 (T)", 126.0, "TREATMENT", "2013-11-20", 125.0]
["CDISCPILOT01", "QS", "01-701-1028", 3273.0, "NPITM01", "DELUSIONS PRESENT", "NPI", "DELUSIONS", "ABSENT", "", "0", 0.0, "", "", "", "", "", 11.0, "WEEK 20", 140.0, "TREATMENT", "2013-12-04", 139.0]
["CDISCPILOT01", "QS", "01-701-1028", 3274.0, "NPITM01S", "DELUSIONS Score", "NPI", "DELUSIONS", "0", "", "0", 0.0, "", "", "", "", "Y", 11.0, "WEEK 20", 140.0, "TREATMENT", "2013-12-04", 139.0]
["CDISCPILOT01", "QS", "01-701-1028", 3300.0, "NPITM01", "DELUSIONS PRESENT", "NPI", "DELUSIONS", "ABSENT", "", "0", 0.0, "", "", "", "", "", 11.1, "WEEK 22 (T)", 154.0, "TREATMENT", "2013-12-18", 153.0]
["CDISCPILOT01", "QS", "01-701-1028", 3301.0, "NPITM01S", "DELUSIONS Score", "NPI", "DELUSIONS", "0", "", "0", 0.0, "", "", "", "", "Y", 11.1, "WEEK 22 (T)", 154.0, "TREATMENT", "2013-12-18", 153.0]
["CDISCPILOT01", "QS", "01-701-1028", 3327.0, "NPITM01", "DELUSIONS PRESENT", "NPI", "DELUSIONS", "ABSENT", "", "0", 0.0, "", "", "", "", "", 12.0, "WEEK 24", 168.0, "TREATMENT", "2014-01-06", 172.0]
["CDISCPILOT01", "QS", "01-701-1028", 3328.0, "NPITM01S", "DELUSIONS Score", "NPI", "DELUSIONS", "0", "", "0", 0.0, "", "", "", "", "Y", 12.0, "WEEK 24", 168.0, "TREATMENT", "2014-01-06", 172.0]
["CDISCPILOT01", "QS", "01-701-1028", 3354.0, "NPITM01", "DELUSIONS PRESENT", "NPI", "DELUSIONS", "ABSENT", "", "0", 0.0, "", "", "", "", "", 13.0, "WEEK 26", 182.0, "TREATMENT", "2014-01-14", 180.0]
["CDISCPILOT01", "QS", "01-701-1028", 3355.0, "NPITM01S", "DELUSIONS Score", "NPI", "DELUSIONS", "0", "", "0", 0.0, "", "", "", "", "Y", 13.0, "WEEK 26", 182.0, "TREATMENT", "2014-01-14", 180.0]
["CDISCPILOT01", "QS", "01-701-1028", 3003.0, "NPITM02", "HALLUCINATIONS PRESENT", "NPI", "HALLUCINATIONS", "ABSENT", "", "0", 0.0, "", "", "", "Y", "", 3.0, "BASELINE", 1.0, "TREATMENT", "2013-07-19", 1.0]
["CDISCPILOT01", "QS", "01-701-1028", 3004.0, "NPITM02S", "HALLUCINATIONS Score", "NPI", "HALLUCINATIONS", "0", "", "0", 0.0, "", "", "", "Y", "Y", 3.0, "BASELINE", 1.0, "TREATMENT", "2013-07-19", 1.0]
["CDISCPILOT01", "QS", "01-701-1028", 3030.0, "NPITM02", "HALLUCINATIONS PRESENT", "NPI", "HALLUCINATIONS", "ABSENT", "", "0", 0.0, "", "", "", "", "", 4.0, "WEEK 2", 14.0, "TREATMENT", "2013-08-01", 14.0]
["CDISCPILOT01", "QS", "01-701-1028", 3031.0, "NPITM02S", "HALLUCINATIONS Score", "NPI", "HALLUCINATIONS", "0", "", "0", 0.0, "", "", "", "", "Y", 4.0, "WEEK 2", 14.0, "TREATMENT", "2013-08-01", 14.0]
["CDISCPILOT01", "QS", "01-701-1028", 3057.0, "NPITM02", "HALLUCINATIONS PRESENT", "NPI", "HALLUCINATIONS", "ABSENT", "", "0", 0.0, "", "", "", "", "", 5.0, "WEEK 4", 28.0, "TREATMENT", "2013-08-14", 27.0]
["CDISCPILOT01", "QS", "01-701-1028", 3058.0, "NPITM02S", "HALLUCINATIONS Score", "NPI", "HALLUCINATIONS", "0", "", "0", 0.0, "", "", "", "", "Y", 5.0, "WEEK 4", 28.0, "TREATMENT", "2013-08-14", 27.0]
["CDISCPILOT01", "QS", "01-701-1028", 3084.0, "NPITM02", "HALLUCINATIONS PRESENT", "NPI", "HALLUCINATIONS", "ABSENT", "", "0", 0.0, "", "", "", "", "", 7.0, "WEEK 6", 42.0, "TREATMENT", "2013-08-29", 42.0]
["CDISCPILOT01", "QS", "01-701-1028", 3085.0, "NPITM02S", "HALLUCINATIONS Score", "NPI", "HALLUCINATIONS", "0", "", "0", 0.0, "", "", "", "", "Y", 7.0, "WEEK 6", 42.0, "TREATMENT", "2013-08-29", 42.0]
["CDISCPILOT01", "QS", "01-701-1028", 3111.0, "NPITM02", "HALLUCINATIONS PRESENT", "NPI", "HALLUCINATIONS", "ABSENT", "", "0", 0.0, "", "", "", "", "", 8.0, "WEEK 8", 56.0, "TREATMENT", "2013-09-10", 54.0]
["CDISCPILOT01", "QS", "01-701-1028", 3112.0, "NPITM02S", "HALLUCINATIONS Score", "NPI", "HALLUCINATIONS", "0", "", "0", 0.0, "", "", "", "", "Y", 8.0, "WEEK 8", 56.0, "TREATMENT", "2013-09-10", 54.0]
["CDISCPILOT01", "QS", "01-701-1028", 3140.0, "NPITM02", "HALLUCINATIONS PRESENT", "NPI", "HALLUCINATIONS", "ABSENT", "", "0", 0.0, "", "", "", "", "", 8.1, "WEEK 10 (T)", 70.0, "TREATMENT", "2013-09-24", 68.0]
["CDISCPILOT01", "QS", "01-701-1028", 3141.0, "NPITM02S", "HALLUCINATIONS Score", "NPI", "HALLUCINATIONS", "0", "", "0", 0.0, "", "", "", "", "Y", 8.1, "WEEK 10 (T)", 70.0, "TREATMENT", "2013-09-24", 68.0]
["CDISCPILOT01", "QS", "01-701-1028", 3167.0, "NPITM02", "HALLUCINATIONS PRESENT", "NPI", "HALLUCINATIONS", "ABSENT", "", "0", 0.0, "", "", "", "", "", 9.0, "WEEK 12", 84.0, "TREATMENT", "2013-10-09", 83.0]
["CDISCPILOT01", "QS", "01-701-1028", 3168.0, "NPITM02S", "HALLUCINATIONS Score", "NPI", "HALLUCINATIONS", "0", "", "0", 0.0, "", "", "", "", "Y", 9.0, "WEEK 12", 84.0, "TREATMENT", "2013-10-09", 83.0]
["CDISCPILOT01", "QS", "01-701-1028", 3194.0, "NPITM02", "HALLUCINATIONS PRESENT", "NPI", "HALLUCINATIONS", "ABSENT", "", "0", 0.0, "", "", "", "", "", 9.1, "WEEK 14 (T)", 98.0, "TREATMENT", "2013-10-23", 97.0]
["CDISCPILOT01", "QS", "01-701-1028", 3195.0, "NPITM02S", "HALLUCINATIONS Score", "NPI", "HALLUCINATIONS", "0", "", "0", 0.0, "", "", "", "", "Y", 9.1, "WEEK 14 (T)", 98.0, "TREATMENT", "2013-10-23", 97.0]
["CDISCPILOT01", "QS", "01-701-1028", 3221.0, "NPITM02", "HALLUCINATIONS PRESENT", "NPI", "HALLUCINATIONS", "ABSENT", "", "0", 0.0, "", "", "", "", "", 10.0, "WEEK 16", 112.0, "TREATMENT", "2013-11-06", 111.0]
["CDISCPILOT01", "QS", "01-701-1028", 3222.0, "NPITM02S", "HALLUCINATIONS Score", "NPI", "HALLUCINATIONS", "0", "", "0", 0.0, "", "", "", "", "Y", 10.0, "WEEK 16", 112.0, "TREATMENT", "2013-11-06", 111.0]
["CDISCPILOT01", "QS", "01-701-1028", 3248.0, "NPITM02", "HALLUCINATIONS PRESENT", "NPI", "HALLUCINATIONS", "ABSENT", "", "0", 0.0, "", "", "", "", "", 10.1, "WEEK 18 (T)", 126.0, "TREATMENT", "2013-11-20", 125.0]
["CDISCPILOT01", "QS", "01-701-1028", 3249.0, "NPITM02S", "HALLUCINATIONS Score", "NPI", "HALLUCINATIONS", "0", "", "0", 0.0, "", "", "", "", "Y", 10.1, "WEEK 18 (T)", 126.0, "TREATMENT", "2013-11-20", 125.0]
["CDISCPILOT01", "QS", "01-701-1028", 3275.0, "NPITM02", "HALLUCINATIONS PRESENT", "NPI", "HALLUCINATIONS", "ABSENT", "", "0", 0.0, "", "", "", "", "", 11.0, "WEEK 20", 140.0, "TREATMENT", "2013-12-04", 139.0]
["CDISCPILOT01", "QS", "01-701-1028", 3276.0, "NPITM02S", "HALLUCINATIONS Score", "NPI", "HALLUCINATIONS", "0", "", "0", 0.0, "", "", "", "", "Y", 11.0, "WEEK 20", 140.0, "TREATMENT", "2013-12-04", 139.0]
["CDISCPILOT01", "QS", "01-701-1028", 3302.0, "NPITM02", "HALLUCINATIONS PRESENT", "NPI", "HALLUCINATIONS", "ABSENT", "", "0", 0.0, "", "", "", "", "", 11.1, "WEEK 22 (T)", 154.0, "TREATMENT", "2013-12-18", 153.0]
["CDISCPILOT01", "QS", "01-701-1028", 3303.0, "NPITM02S", "HALLUCINATIONS Score", "NPI", "HALLUCINATIONS", "0", "", "0", 0.0, "", "", "", "", "Y", 11.1, "WEEK 22 (T)", 154.0, "TREATMENT", "2013-12-18", 153.0]
["CDISCPILOT01", "QS", "01-701-1028", 3329.0, "NPITM02", "HALLUCINATIONS PRESENT", "NPI", "HALLUCINATIONS", "ABSENT", "", "0", 0.0, "", "", "", "", "", 12.0, "WEEK 24", 168.0, "TREATMENT", "2014-01-06", 172.0]
["CDISCPILOT01", "QS", "01-701-1028", 3330.0, "NPITM02S", "HALLUCINATIONS Score", "NPI", "HALLUCINATIONS", "0", "", "0", 0.0, "", "", "", "", "Y", 12.0, "WEEK 24", 168.0, "TREATMENT", "2014-01-06", 172.0]
["CDISCPILOT01", "QS", "01-701-1028", 3356.0, "NPITM02", "HALLUCINATIONS PRESENT", "NPI", "HALLUCINATIONS", "ABSENT", "", "0", 0.0, "", "", "", "", "", 13.0, "WEEK 26", 182.0, "TREATMENT", "2014-01-14", 180.0]
["CDISCPILOT01", "QS", "01-701-1028", 3357.0, "NPITM02S", "HALLUCINATIONS Score", "NPI", "HALLUCINATIONS", "0", "", "0", 0.0, "", "", "", "", "Y", 13.0, "WEEK 26", 182.0, "TREATMENT", "2014-01-14", 180.0]
["CDISCPILOT01", "QS", "01-701-1028", 3005.0, "NPITM03", "AGITATION/AGRESSION PRESENT", "NPI", "AGITATION/AGRESSION", "ABSENT", "", "0", 0.0, "", "", "", "Y", "", 3.0, "BASELINE", 1.0, "TREATMENT", "2013-07-19", 1.0]
["CDISCPILOT01", "QS", "01-701-1028", 3006.0, "NPITM03S", "AGITATION/AGRESSION Score", "NPI", "AGITATION/AGRESSION", "0", "", "0", 0.0, "", "", "", "Y", "Y", 3.0, "BASELINE", 1.0, "TREATMENT", "2013-07-19", 1.0]
["CDISCPILOT01", "QS", "01-701-1028", 3032.0, "NPITM03", "AGITATION/AGRESSION PRESENT", "NPI", "AGITATION/AGRESSION", "ABSENT", "", "0", 0.0, "", "", "", "", "", 4.0, "WEEK 2", 14.0, "TREATMENT", "2013-08-01", 14.0]
["CDISCPILOT01", "QS", "01-701-1028", 3033.0, "NPITM03S", "AGITATION/AGRESSION Score", "NPI", "AGITATION/AGRESSION", "0", "", "0", 0.0, "", "", "", "", "Y", 4.0, "WEEK 2", 14.0, "TREATMENT", "2013-08-01", 14.0]
["CDISCPILOT01", "QS", "01-701-1028", 3059.0, "NPITM03", "AGITATION/AGRESSION PRESENT", "NPI", "AGITATION/AGRESSION", "ABSENT", "", "0", 0.0, "", "", "", "", "", 5.0, "WEEK 4", 28.0, "TREATMENT", "2013-08-14", 27.0]
["CDISCPILOT01", "QS", "01-701-1028", 3060.0, "NPITM03S", "AGITATION/AGRESSION Score", "NPI", "AGITATION/AGRESSION", "0", "", "0", 0.0, "", "", "", "", "Y", 5.0, "WEEK 4", 28.0, "TREATMENT", "2013-08-14", 27.0]
["CDISCPILOT01", "QS", "01-701-1028", 3086.0, "NPITM03", "AGITATION/AGRESSION PRESENT", "NPI", "AGITATION/AGRESSION", "ABSENT", "", "0", 0.0, "", "", "", "", "", 7.0, "WEEK 6", 42.0, "TREATMENT", "2013-08-29", 42.0]
["CDISCPILOT01", "QS", "01-701-1028", 3087.0, "NPITM03S", "AGITATION/AGRESSION Score", "NPI", "AGITATION/AGRESSION", "0", "", "0", 0.0, "", "", "", "", "Y", 7.0, "WEEK 6", 42.0, "TREATMENT", "2013-08-29", 42.0]
["CDISCPILOT01", "QS", "01-701-1028", 3113.0, "NPITM03", "AGITATION/AGRESSION PRESENT", "NPI", "AGITATION/AGRESSION", "ABSENT", "", "0", 0.0, "", "", "", "", "", 8.0, "WEEK 8", 56.0, "TREATMENT", "2013-09-10", 54.0]
["CDISCPILOT01", "QS", "01-701-1028", 3114.0, "NPITM03S", "AGITATION/AGRESSION Score", "NPI", "AGITATION/AGRESSION", "0", "", "0", 0.0, "", "", "", "", "Y", 8.0, "WEEK 8", 56.0, "TREATMENT", "2013-09-10", 54.0]
["CDISCPILOT01", "QS", "01-701-1028", 3142.0, "NPITM03", "AGITATION/AGRESSION PRESENT", "NPI", "AGITATION/AGRESSION", "ABSENT", "", "0", 0.0, "", "", "", "", "", 8.1, "WEEK 10 (T)", 70.0, "TREATMENT", "2013-09-24", 68.0]
["CDISCPILOT01", "QS", "01-701-1028", 3143.0, "NPITM03S", "AGITATION/AGRESSION Score", "NPI", "AGITATION/AGRESSION", "0", "", "0", 0.0, "", "", "", "", "Y", 8.1, "WEEK 10 (T)", 70.0, "TREATMENT", "2013-09-24", 68.0]
["CDISCPILOT01", "QS", "01-701-1028", 3169.0, "NPITM03", "AGITATION/AGRESSION PRESENT", "NPI", "AGITATION/AGRESSION", "ABSENT", "", "0", 0.0, "", "", "", "", "", 9.0, "WEEK 12", 84.0, "TREATMENT", "2013-10-09", 83.0]
["CDISCPILOT01", "QS", "01-701-1028", 3170.0, "NPITM03S", "AGITATION/AGRESSION Score", "NPI", "AGITATION/AGRESSION", "0", "", "0", 0.0, "", "", "", "", "Y", 9.0, "WEEK 12", 84.0, "TREATMENT", "2013-10-09", 83.0]
["CDISCPILOT01", "QS", "01-701-1028", 3196.0, "NPITM03", "AGITATION/AGRESSION PRESENT", "NPI", "AGITATION/AGRESSION", "ABSENT", "", "0", 0.0, "", "", "", "", "", 9.1, "WEEK 14 (T)", 98.0, "TREATMENT", "2013-10-23", 97.0]
["CDISCPILOT01", "QS", "01-701-1028", 3197.0, "NPITM03S", "AGITATION/AGRESSION Score", "NPI", "AGITATION/AGRESSION", "0", "", "0", 0.0, "", "", "", "", "Y", 9.1, "WEEK 14 (T)", 98.0, "TREATMENT", "2013-10-23", 97.0]
["CDISCPILOT01", "QS", "01-701-1028", 3223.0, "NPITM03", "AGITATION/AGRESSION PRESENT", "NPI", "AGITATION/AGRESSION", "ABSENT", "", "0", 0.0, "", "", "", "", "", 10.0, "WEEK 16", 112.0, "TREATMENT", "2013-11-06", 111.0]
["CDISCPILOT01", "QS", "01-701-1028", 3224.0, "NPITM03S", "AGITATION/AGRESSION Score", "NPI", "AGITATION/AGRESSION", "0", "", "0", 0.0, "", "", "", "", "Y", 10.0, "WEEK 16", 112.0, "TREATMENT", "2013-11-06", 111.0]
["CDISCPILOT01", "QS", "01-701-1028", 3250.0, "NPITM03", "AGITATION/AGRESSION PRESENT", "NPI", "AGITATION/AGRESSION", "ABSENT", "", "0", 0.0, "", "", "", "", "", 10.1, "WEEK 18 (T)", 126.0, "TREATMENT", "2013-11-20", 125.0]
["CDISCPILOT01", "QS", "01-701-1028", 3251.0, "NPITM03S", "AGITATION/AGRESSION Score", "NPI", "AGITATION/AGRESSION", "0", "", "0", 0.0, "", "", "", "", "Y", 10.1, "WEEK 18 (T)", 126.0, "TREATMENT", "2013-11-20", 125.0]
["CDISCPILOT01", "QS", "01-701-1028", 3277.0, "NPITM03", "AGITATION/AGRESSION PRESENT", "NPI", "AGITATION/AGRESSION", "ABSENT", "", "0", 0.0, "", "", "", "", "", 11.0, "WEEK 20", 140.0, "TREATMENT", "2013-12-04", 139.0]
["CDISCPILOT01", "QS", "01-701-1028", 3278.0, "NPITM03S", "AGITATION/AGRESSION Score", "NPI", "AGITATION/AGRESSION", "0", "", "0", 0.0, "", "", "", "", "Y", 11.0, "WEEK 20", 140.0, "TREATMENT", "2013-12-04", 139.0]
["CDISCPILOT01", "QS", "01-701-1028", 3304.0, "NPITM03", "AGITATION/AGRESSION PRESENT", "NPI", "AGITATION/AGRESSION", "ABSENT", "", "0", 0.0, "", "", "", "", "", 11.1, "WEEK 22 (T)", 154.0, "TREATMENT", "2013-12-18", 153.0]
["CDISCPILOT01", "QS", "01-701-1028", 3305.0, "NPITM03S", "AGITATION/AGRESSION Score", "NPI", "AGITATION/AGRESSION", "0", "", "0", 0.0, "", "", "", "", "Y", 11.1, "WEEK 22 (T)", 154.0, "TREATMENT", "2013-12-18", 153.0]
["CDISCPILOT01", "QS", "01-701-1028", 3331.0, "NPITM03", "AGITATION/AGRESSION PRESENT", "NPI", "AGITATION/AGRESSION", "ABSENT", "", "0", 0.0, "", "", "", "", "", 12.0, "WEEK 24", 168.0, "TREATMENT", "2014-01-06", 172.0]
["CDISCPILOT01", "QS", "01-701-1028", 3332.0, "NPITM03S", "AGITATION/AGRESSION Score", "NPI", "AGITATION/AGRESSION", "0", "", "0", 0.0, "", "", "", "", "Y", 12.0, "WEEK 24", 168.0, "TREATMENT", "2014-01-06", 172.0]
["CDISCPILOT01", "QS", "01-701-1028", 3358.0, "NPITM03", "AGITATION/AGRESSION PRESENT", "NPI", "AGITATION/AGRESSION", "ABSENT", "", "0", 0.0, "", "", "", "", "", 13.0, "WEEK 26", 182.0, "TREATMENT", "2014-01-14", 180.0]
["CDISCPILOT01", "QS", "01-701-1028", 3359.0, "NPITM03S", "AGITATION/AGRESSION Score", "NPI", "AGITATION/AGRESSION", "0", "", "0", 0.0, "", "", "", "", "Y", 13.0, "WEEK 26", 182.0, "TREATMENT", "2014-01-14", 180.0]
["CDISCPILOT01", "QS", "01-701-1028", 3007.0, "NPITM04", "DEPRESSION/DYSPHORIA PRESENT", "NPI", "DEPRESSION/DYSPHORIA", "ABSENT", "", "0", 0.0, "", "", "", "Y", "", 3.0, "BASELINE", 1.0, "TREATMENT", "2013-07-19", 1.0]
["CDISCPILOT01", "QS", "01-701-1028", 3008.0, "NPITM04S", "DEPRESSION/DYSPHORIA Score", "NPI", "DEPRESSION/DYSPHORIA", "0", "", "0", 0.0, "", "", "", "Y", "Y", 3.0, "BASELINE", 1.0, "TREATMENT", "2013-07-19", 1.0]
["CDISCPILOT01", "QS", "01-701-1028", 3034.0, "NPITM04", "DEPRESSION/DYSPHORIA PRESENT", "NPI", "DEPRESSION/DYSPHORIA", "ABSENT", "", "0", 0.0, "", "", "", "", "", 4.0, "WEEK 2", 14.0, "TREATMENT", "2013-08-01", 14.0]
["CDISCPILOT01", "QS", "01-701-1028", 3035.0, "NPITM04S", "DEPRESSION/DYSPHORIA Score", "NPI", "DEPRESSION/DYSPHORIA", "0", "", "0", 0.0, "", "", "", "", "Y", 4.0, "WEEK 2", 14.0, "TREATMENT", "2013-08-01", 14.0]
["CDISCPILOT01", "QS", "01-701-1028", 3061.0, "NPITM04", "DEPRESSION/DYSPHORIA PRESENT", "NPI", "DEPRESSION/DYSPHORIA", "ABSENT", "", "0", 0.0, "", "", "", "", "", 5.0, "WEEK 4", 28.0, "TREATMENT", "2013-08-14", 27.0]
["CDISCPILOT01", "QS", "01-701-1028", 3062.0, "NPITM04S", "DEPRESSION/DYSPHORIA Score", "NPI", "DEPRESSION/DYSPHORIA", "0", "", "0", 0.0, "", "", "", "", "Y", 5.0, "WEEK 4", 28.0, "TREATMENT", "2013-08-14", 27.0]
["CDISCPILOT01", "QS", "01-701-1028", 3088.0, "NPITM04", "DEPRESSION/DYSPHORIA PRESENT", "NPI", "DEPRESSION/DYSPHORIA", "ABSENT", "", "0", 0.0, "", "", "", "", "", 7.0, "WEEK 6", 42.0, "TREATMENT", "2013-08-29", 42.0]
["CDISCPILOT01", "QS", "01-701-1028", 3089.0, "NPITM04S", "DEPRESSION/DYSPHORIA Score", "NPI", "DEPRESSION/DYSPHORIA", "0", "", "0", 0.0, "", "", "", "", "Y", 7.0, "WEEK 6", 42.0, "TREATMENT", "2013-08-29", 42.0]
["CDISCPILOT01", "QS", "01-701-1028", 3115.0, "NPITM04", "DEPRESSION/DYSPHORIA PRESENT", "NPI", "DEPRESSION/DYSPHORIA", "ABSENT", "", "0", 0.0, "", "", "", "", "", 8.0, "WEEK 8", 56.0, "TREATMENT", "2013-09-10", 54.0]
["CDISCPILOT01", "QS", "01-701-1028", 3116.0, "NPITM04S", "DEPRESSION/DYSPHORIA Score", "NPI", "DEPRESSION/DYSPHORIA", "0", "", "0", 0.0, "", "", "", "", "Y", 8.0, "WEEK 8", 56.0, "TREATMENT", "2013-09-10", 54.0]
["CDISCPILOT01", "QS", "01-701-1028", 3144.0, "NPITM04", "DEPRESSION/DYSPHORIA PRESENT", "NPI", "DEPRESSION/DYSPHORIA", "ABSENT", "", "0", 0.0, "", "", "", "", "", 8.1, "WEEK 10 (T)", 70.0, "TREATMENT", "2013-09-24", 68.0]
["CDISCPILOT01", "QS", "01-701-1028", 3145.0, "NPITM04S", "DEPRESSION/DYSPHORIA Score", "NPI", "DEPRESSION/DYSPHORIA", "0", "", "0", 0.0, "", "", "", "", "Y", 8.1, "WEEK 10 (T)", 70.0, "TREATMENT", "2013-09-24", 68.0]
["CDISCPILOT01", "QS", "01-701-1028", 3171.0, "NPITM04", "DEPRESSION/DYSPHORIA PRESENT", "NPI", "DEPRESSION/DYSPHORIA", "ABSENT", "", "0", 0.0, "", "", "", "", "", 9.0, "WEEK 12", 84.0, "TREATMENT", "2013-10-09", 83.0]
["CDISCPILOT01", "QS", "01-701-1028", 3172.0, "NPITM04S", "DEPRESSION/DYSPHORIA Score", "NPI", "DEPRESSION/DYSPHORIA", "0", "", "0", 0.0, "", "", "", "", "Y", 9.0, "WEEK 12", 84.0, "TREATMENT", "2013-10-09", 83.0]
["CDISCPILOT01", "QS", "01-701-1028", 3198.0, "NPITM04", "DEPRESSION/DYSPHORIA PRESENT", "NPI", "DEPRESSION/DYSPHORIA", "ABSENT", "", "0", 0.0, "", "", "", "", "", 9.1, "WEEK 14 (T)", 98.0, "TREATMENT", "2013-10-23", 97.0]
["CDISCPILOT01", "QS", "01-701-1028", 3199.0, "NPITM04S", "DEPRESSION/DYSPHORIA Score", "NPI", "DEPRESSION/DYSPHORIA", "0", "", "0", 0.0, "", "", "", "", "Y", 9.1, "WEEK 14 (T)", 98.0, "TREATMENT", "2013-10-23", 97.0]
["CDISCPILOT01", "QS", "01-701-1028", 3225.0, "NPITM04", "DEPRESSION/DYSPHORIA PRESENT", "NPI", "DEPRESSION/DYSPHORIA", "ABSENT", "", "0", 0.0, "", "", "", "", "", 10.0, "WEEK 16", 112.0, "TREATMENT", "2013-11-06", 111.0]
["CDISCPILOT01", "QS", "01-701-1028", 3226.0, "NPITM04S", "DEPRESSION/DYSPHORIA Score", "NPI", "DEPRESSION/DYSPHORIA", "0", "", "0", 0.0, "", "", "", "", "Y", 10.0, "WEEK 16", 112.0, "TREATMENT", "2013-11-06", 111.0]
["CDISCPILOT01", "QS", "01-701-1028", 3252.0, "NPITM04", "DEPRESSION/DYSPHORIA PRESENT", "NPI", "DEPRESSION/DYSPHORIA", "ABSENT", "", "0", 0.0, "", "", "", "", "", 10.1, "WEEK 18 (T)", 126.0, "TREATMENT", "2013-11-20", 125.0]
["CDISCPILOT01", "QS", "01-701-1028", 3253.0, "NPITM04S", "DEPRESSION/DYSPHORIA Score", "NPI", "DEPRESSION/DYSPHORIA", "0", "", "0", 0.0, "", "", "", "", "Y", 10.1, "WEEK 18 (T)", 126.0, "TREATMENT", "2013-11-20", 125.0]
["CDISCPILOT01", "QS", "01-701-1028", 3279.0, "NPITM04", "DEPRESSION/DYSPHORIA PRESENT", "NPI", "DEPRESSION/DYSPHORIA", "ABSENT", "", "0", 0.0, "", "", "", "", "", 11.0, "WEEK 20", 140.0, "TREATMENT", "2013-12-04", 139.0]
["CDISCPILOT01", "QS", "01-701-1028", 3280.0, "NPITM04S", "DEPRESSION/DYSPHORIA Score", "NPI", "DEPRESSION/DYSPHORIA", "0", "", "0", 0.0, "", "", "", "", "Y", 11.0, "WEEK 20", 140.0, "TREATMENT", "2013-12-04", 139.0]
["CDISCPILOT01", "QS", "01-701-1028", 3306.0, "NPITM04", "DEPRESSION/DYSPHORIA PRESENT", "NPI", "DEPRESSION/DYSPHORIA", "ABSENT", "", "0", 0.0, "", "", "", "", "", 11.1, "WEEK 22 (T)", 154.0, "TREATMENT", "2013-12-18", 153.0]
["CDISCPILOT01", "QS", "01-701-1028", 3307.0, "NPITM04S", "DEPRESSION/DYSPHORIA Score", "NPI", "DEPRESSION/DYSPHORIA", "0", "", "0", 0.0, "", "", "", "", "Y", 11.1, "WEEK 22 (T)", 154.0, "TREATMENT", "2013-12-18", 153.0]
["CDISCPILOT01", "QS", "01-701-1028", 3333.0, "NPITM04", "DEPRESSION/DYSPHORIA PRESENT", "NPI", "DEPRESSION/DYSPHORIA", "ABSENT", "", "0", 0.0, "", "", "", "", "", 12.0, "WEEK 24", 168.0, "TREATMENT", "2014-01-06", 172.0]
["CDISCPILOT01", "QS", "01-701-1028", 3334.0, "NPITM04S", "DEPRESSION/DYSPHORIA Score", "NPI", "DEPRESSION/DYSPHORIA", "0", "", "0", 0.0, "", "", "", "", "Y", 12.0, "WEEK 24", 168.0, "TREATMENT", "2014-01-06", 172.0]
["CDISCPILOT01", "QS", "01-701-1028", 3360.0, "NPITM04", "DEPRESSION/DYSPHORIA PRESENT", "NPI", "DEPRESSION/DYSPHORIA", "ABSENT", "", "0", 0.0, "", "", "", "", "", 13.0, "WEEK 26", 182.0, "TREATMENT", "2014-01-14", 180.0]
["CDISCPILOT01", "QS", "01-701-1028", 3361.0, "NPITM04S", "DEPRESSION/DYSPHORIA Score", "NPI", "DEPRESSION/DYSPHORIA", "0", "", "0", 0.0, "", "", "", "", "Y", 13.0, "WEEK 26", 182.0, "TREATMENT", "2014-01-14", 180.0]
["CDISCPILOT01", "QS", "01-701-1028", 3009.0, "NPITM05", "ANXIETY PRESENT", "NPI", "ANXIETY", "ABSENT", "", "0", 0.0, "", "", "", "Y", "", 3.0, "BASELINE", 1.0, "TREATMENT", "2013-07-19", 1.0]
["CDISCPILOT01", "QS", "01-701-1028", 3010.0, "NPITM05S", "ANXIETY Score", "NPI", "ANXIETY", "0", "", "0", 0.0, "", "", "", "Y", "Y", 3.0, "BASELINE", 1.0, "TREATMENT", "2013-07-19", 1.0]
["CDISCPILOT01", "QS", "01-701-1028", 3036.0, "NPITM05", "ANXIETY PRESENT", "NPI", "ANXIETY", "ABSENT", "", "0", 0.0, "", "", "", "", "", 4.0, "WEEK 2", 14.0, "TREATMENT", "2013-08-01", 14.0]
["CDISCPILOT01", "QS", "01-701-1028", 3037.0, "NPITM05S", "ANXIETY Score", "NPI", "ANXIETY", "0", "", "0", 0.0, "", "", "", "", "Y", 4.0, "WEEK 2", 14.0, "TREATMENT", "2013-08-01", 14.0]
["CDISCPILOT01", "QS", "01-701-1028", 3063.0, "NPITM05", "ANXIETY PRESENT", "NPI", "ANXIETY", "ABSENT", "", "0", 0.0, "", "", "", "", "", 5.0, "WEEK 4", 28.0, "TREATMENT", "2013-08-14", 27.0]
["CDISCPILOT01", "QS", "01-701-1028", 3064.0, "NPITM05S", "ANXIETY Score", "NPI", "ANXIETY", "0", "", "0", 0.0, "", "", "", "", "Y", 5.0, "WEEK 4", 28.0, "TREATMENT", "2013-08-14", 27.0]
["CDISCPILOT01", "QS", "01-701-1028", 3090.0, "NPITM05", "ANXIETY PRESENT", "NPI", "ANXIETY", "ABSENT", "", "0", 0.0, "", "", "", "", "", 7.0, "WEEK 6", 42.0, "TREATMENT", "2013-08-29", 42.0]
["CDISCPILOT01", "QS", "01-701-1028", 3091.0, "NPITM05S", "ANXIETY Score", "NPI", "ANXIETY", "0", "", "0", 0.0, "", "", "", "", "Y", 7.0, "WEEK 6", 42.0, "TREATMENT", "2013-08-29", 42.0]
["CDISCPILOT01", "QS", "01-701-1028", 3117.0, "NPITM05", "ANXIETY PRESENT", "NPI", "ANXIETY", "ABSENT", "", "0", 0.0, "", "", "", "", "", 8.0, "WEEK 8", 56.0, "TREATMENT", "2013-09-10", 54.0]
["CDISCPILOT01", "QS", "01-701-1028", 3118.0, "NPITM05S", "ANXIETY Score", "NPI", "ANXIETY", "0", "", "0", 0.0, "", "", "", "", "Y", 8.0, "WEEK 8", 56.0, "TREATMENT", "2013-09-10", 54.0]
["CDISCPILOT01", "QS", "01-701-1028", 3146.0, "NPITM05", "ANXIETY PRESENT", "NPI", "ANXIETY", "ABSENT", "", "0", 0.0, "", "", "", "", "", 8.1, "WEEK 10 (T)", 70.0, "TREATMENT", "2013-09-24", 68.0]
["CDISCPILOT01", "QS", "01-701-1028", 3147.0, "NPITM05S", "ANXIETY Score", "NPI", "ANXIETY", "0", "", "0", 0.0, "", "", "", "", "Y", 8.1, "WEEK 10 (T)", 70.0, "TREATMENT", "2013-09-24", 68.0]
["CDISCPILOT01", "QS", "01-701-1028", 3173.0, "NPITM05", "ANXIETY PRESENT", "NPI", "ANXIETY", "ABSENT", "", "0", 0.0, "", "", "", "", "", 9.0, "WEEK 12", 84.0, "TREATMENT", "2013-10-09", 83.0]
["CDISCPILOT01", "QS", "01-701-1028", 3174.0, "NPITM05S", "ANXIETY Score", "NPI", "ANXIETY", "0", "", "0", 0.0, "", "", "", "", "Y", 9.0, "WEEK 12", 84.0, "TREATMENT", "2013-10-09", 83.0]
["CDISCPILOT01", "QS", "01-701-1028", 3200.0, "NPITM05", "ANXIETY PRESENT", "NPI", "ANXIETY", "ABSENT", "", "0", 0.0, "", "", "", "", "", 9.1, "WEEK 14 (T)", 98.0, "TREATMENT", "2013-10-23", 97.0]
["CDISCPILOT01", "QS", "01-701-1028", 3201.0, "NPITM05S", "ANXIETY Score", "NPI", "ANXIETY", "0", "", "0", 0.0, "", "", "", "", "Y", 9.1, "WEEK 14 (T)", 98.0, "TREATMENT", "2013-10-23", 97.0]
["CDISCPILOT01", "QS", "01-701-1028", 3227.0, "NPITM05", "ANXIETY PRESENT", "NPI", "ANXIETY", "ABSENT", "", "0", 0.0, "", "", "", "", "", 10.0, "WEEK 16", 112.0, "TREATMENT", "2013-11-06", 111.0]
["CDISCPILOT01", "QS", "01-701-1028", 3228.0, "NPITM05S", "ANXIETY Score", "NPI", "ANXIETY", "0", "", "0", 0.0, "", "", "", "", "Y", 10.0, "WEEK 16", 112.0, "TREATMENT", "2013-11-06", 111.0]
["CDISCPILOT01", "QS", "01-701-1028", 3254.0, "NPITM05", "ANXIETY PRESENT", "NPI", "ANXIETY", "ABSENT", "", "0", 0.0, "", "", "", "", "", 10.1, "WEEK 18 (T)", 126.0, "TREATMENT", "2013-11-20", 125.0]
["CDISCPILOT01", "QS", "01-701-1028", 3255.0, "NPITM05S", "ANXIETY Score", "NPI", "ANXIETY", "0", "", "0", 0.0, "", "", "", "", "Y", 10.1, "WEEK 18 (T)", 126.0, "TREATMENT", "2013-11-20", 125.0]
["CDISCPILOT01", "QS", "01-701-1028", 3281.0, "NPITM05", "ANXIETY PRESENT", "NPI", "ANXIETY", "ABSENT", "", "0", 0.0, "", "", "", "", "", 11.0, "WEEK 20", 140.0, "TREATMENT", "2013-12-04", 139.0]
["CDISCPILOT01", "QS", "01-701-1028", 3282.0, "NPITM05S", "ANXIETY Score", "NPI", "ANXIETY", "0", "", "0", 0.0, "", "", "", "", "Y", 11.0, "WEEK 20", 140.0, "TREATMENT", "2013-12-04", 139.0]
["CDISCPILOT01", "QS", "01-701-1028", 3308.0, "NPITM05", "ANXIETY PRESENT", "NPI", "ANXIETY", "ABSENT", "", "0", 0.0, "", "", "", "", "", 11.1, "WEEK 22 (T)", 154.0, "TREATMENT", "2013-12-18", 153.0]
["CDISCPILOT01", "QS", "01-701-1028", 3309.0, "NPITM05S", "ANXIETY Score", "NPI", "ANXIETY", "0", "", "0", 0.0, "", "", "", "", "Y", 11.1, "WEEK 22 (T)", 154.0, "TREATMENT", "2013-12-18", 153.0]
["CDISCPILOT01", "QS", "01-701-1028", 3335.0, "NPITM05", "ANXIETY PRESENT", "NPI", "ANXIETY", "ABSENT", "", "0", 0.0, "", "", "", "", "", 12.0, "WEEK 24", 168.0, "TREATMENT", "2014-01-06", 172.0]
["CDISCPILOT01", "QS", "01-701-1028", 3336.0, "NPITM05S", "ANXIETY Score", "NPI", "ANXIETY", "0", "", "0", 0.0, "", "", "", "", "Y", 12.0, "WEEK 24", 168.0, "TREATMENT", "2014-01-06", 172.0]
["CDISCPILOT01", "QS", "01-701-1028", 3362.0, "NPITM05", "ANXIETY PRESENT", "NPI", "ANXIETY", "ABSENT", "", "0", 0.0, "", "", "", "", "", 13.0, "WEEK 26", 182.0, "TREATMENT", "2014-01-14", 180.0]
["CDISCPILOT01", "QS", "01-701-1028", 3363.0, "NPITM05S", "ANXIETY Score", "NPI", "ANXIETY", "0", "", "0", 0.0, "", "", "", "", "Y", 13.0, "WEEK 26", 182.0, "TREATMENT", "2014-01-14", 180.0]
["CDISCPILOT01", "QS", "01-701-1028", 3011.0, "NPITM06", "EUPHORIA/ELATION PRESENT", "NPI", "EUPHORIA/ELATION", "ABSENT", "", "0", 0.0, "", "", "", "Y", "", 3.0, "BASELINE", 1.0, "TREATMENT", "2013-07-19", 1.0]
["CDISCPILOT01", "QS", "01-701-1028", 3012.0, "NPITM06S", "EUPHORIA/ELATION Score", "NPI", "EUPHORIA/ELATION", "0", "", "0", 0.0, "", "", "", "Y", "Y", 3.0, "BASELINE", 1.0, "TREATMENT", "2013-07-19", 1.0]
["CDISCPILOT01", "QS", "01-701-1028", 3038.0, "NPITM06", "EUPHORIA/ELATION PRESENT", "NPI", "EUPHORIA/ELATION", "ABSENT", "", "0", 0.0, "", "", "", "", "", 4.0, "WEEK 2", 14.0, "TREATMENT", "2013-08-01", 14.0]
["CDISCPILOT01", "QS", "01-701-1028", 3039.0, "NPITM06S", "EUPHORIA/ELATION Score", "NPI", "EUPHORIA/ELATION", "0", "", "0", 0.0, "", "", "", "", "Y", 4.0, "WEEK 2", 14.0, "TREATMENT", "2013-08-01", 14.0]
["CDISCPILOT01", "QS", "01-701-1028", 3065.0, "NPITM06", "EUPHORIA/ELATION PRESENT", "NPI", "EUPHORIA/ELATION", "ABSENT", "", "0", 0.0, "", "", "", "", "", 5.0, "WEEK 4", 28.0, "TREATMENT", "2013-08-14", 27.0]
["CDISCPILOT01", "QS", "01-701-1028", 3066.0, "NPITM06S", "EUPHORIA/ELATION Score", "NPI", "EUPHORIA/ELATION", "0", "", "0", 0.0, "", "", "", "", "Y", 5.0, "WEEK 4", 28.0, "TREATMENT", "2013-08-14", 27.0]
["CDISCPILOT01", "QS", "01-701-1028", 3092.0, "NPITM06", "EUPHORIA/ELATION PRESENT", "NPI", "EUPHORIA/ELATION", "ABSENT", "", "0", 0.0, "", "", "", "", "", 7.0, "WEEK 6", 42.0, "TREATMENT", "2013-08-29", 42.0]
["CDISCPILOT01", "QS", "01-701-1028", 3093.0, "NPITM06S", "EUPHORIA/ELATION Score", "NPI", "EUPHORIA/ELATION", "0", "", "0", 0.0, "", "", "", "", "Y", 7.0, "WEEK 6", 42.0, "TREATMENT", "2013-08-29", 42.0]
["CDISCPILOT01", "QS", "01-701-1028", 3119.0, "NPITM06F", "EUPHORIA/ELATION FREQUENCY", "NPI", "EUPHORIA/ELATION", "1", "", "1", 1.0, "", "", "", "", "", 8.0, "WEEK 8", 56.0, "TREATMENT", "2013-09-10", 54.0]
["CDISCPILOT01", "QS", "01-701-1028", 3120.0, "NPITM06V", "EUPHORIA/ELATION SEVERITY", "NPI", "EUPHORIA/ELATION", "2", "", "2", 2.0, "", "", "", "", "", 8.0, "WEEK 8", 56.0, "TREATMENT", "2013-09-10", 54.0]
["CDISCPILOT01", "QS", "01-701-1028", 3121.0, "NPITM06D", "EUPHORIA/ELATION DISTRESS", "NPI", "EUPHORIA/ELATION", "1", "", "1", 1.0, "", "", "", "", "", 8.0, "WEEK 8", 56.0, "TREATMENT", "2013-09-10", 54.0]
["CDISCPILOT01", "QS", "01-701-1028", 3122.0, "NPITM06S", "EUPHORIA/ELATION Score", "NPI", "EUPHORIA/ELATION", "0", "", "0", 0.0, "", "", "", "", "Y", 8.0, "WEEK 8", 56.0, "TREATMENT", "2013-09-10", 54.0]
["CDISCPILOT01", "QS", "01-701-1028", 3148.0, "NPITM06", "EUPHORIA/ELATION PRESENT", "NPI", "EUPHORIA/ELATION", "ABSENT", "", "0", 0.0, "", "", "", "", "", 8.1, "WEEK 10 (T)", 70.0, "TREATMENT", "2013-09-24", 68.0]
["CDISCPILOT01", "QS", "01-701-1028", 3149.0, "NPITM06S", "EUPHORIA/ELATION Score", "NPI", "EUPHORIA/ELATION", "0", "", "0", 0.0, "", "", "", "", "Y", 8.1, "WEEK 10 (T)", 70.0, "TREATMENT", "2013-09-24", 68.0]
["CDISCPILOT01", "QS", "01-701-1028", 3175.0, "NPITM06", "EUPHORIA/ELATION PRESENT", "NPI", "EUPHORIA/ELATION", "ABSENT", "", "0", 0.0, "", "", "", "", "", 9.0, "WEEK 12", 84.0, "TREATMENT", "2013-10-09", 83.0]
["CDISCPILOT01", "QS", "01-701-1028", 3176.0, "NPITM06S", "EUPHORIA/ELATION Score", "NPI", "EUPHORIA/ELATION", "0", "", "0", 0.0, "", "", "", "", "Y", 9.0, "WEEK 12", 84.0, "TREATMENT", "2013-10-09", 83.0]
["CDISCPILOT01", "QS", "01-701-1028", 3202.0, "NPITM06", "EUPHORIA/ELATION PRESENT", "NPI", "EUPHORIA/ELATION", "ABSENT", "", "0", 0.0, "", "", "", "", "", 9.1, "WEEK 14 (T)", 98.0, "TREATMENT", "2013-10-23", 97.0]
["CDISCPILOT01", "QS", "01-701-1028", 3203.0, "NPITM06S", "EUPHORIA/ELATION Score", "NPI", "EUPHORIA/ELATION", "0", "", "0", 0.0, "", "", "", "", "Y", 9.1, "WEEK 14 (T)", 98.0, "TREATMENT", "2013-10-23", 97.0]
["CDISCPILOT01", "QS", "01-701-1028", 3229.0, "NPITM06", "EUPHORIA/ELATION PRESENT", "NPI", "EUPHORIA/ELATION", "ABSENT", "", "0", 0.0, "", "", "", "", "", 10.0, "WEEK 16", 112.0, "TREATMENT", "2013-11-06", 111.0]
["CDISCPILOT01", "QS", "01-701-1028", 3230.0, "NPITM06S", "EUPHORIA/ELATION Score", "NPI", "EUPHORIA/ELATION", "0", "", "0", 0.0, "", "", "", "", "Y", 10.0, "WEEK 16", 112.0, "TREATMENT", "2013-11-06", 111.0]
["CDISCPILOT01", "QS", "01-701-1028", 3256.0, "NPITM06", "EUPHORIA/ELATION PRESENT", "NPI", "EUPHORIA/ELATION", "ABSENT", "", "0", 0.0, "", "", "", "", "", 10.1, "WEEK 18 (T)", 126.0, "TREATMENT", "2013-11-20", 125.0]
["CDISCPILOT01", "QS", "01-701-1028", 3257.0, "NPITM06S", "EUPHORIA/ELATION Score", "NPI", "EUPHORIA/ELATION", "0", "", "0", 0.0, "", "", "", "", "Y", 10.1, "WEEK 18 (T)", 126.0, "TREATMENT", "2013-11-20", 125.0]
["CDISCPILOT01", "QS", "01-701-1028", 3283.0, "NPITM06", "EUPHORIA/ELATION PRESENT", "NPI", "EUPHORIA/ELATION", "ABSENT", "", "0", 0.0, "", "", "", "", "", 11.0, "WEEK 20", 140.0, "TREATMENT", "2013-12-04", 139.0]
["CDISCPILOT01", "QS", "01-701-1028", 3284.0, "NPITM06S", "EUPHORIA/ELATION Score", "NPI", "EUPHORIA/ELATION", "0", "", "0", 0.0, "", "", "", "", "Y", 11.0, "WEEK 20", 140.0, "TREATMENT", "2013-12-04", 139.0]
["CDISCPILOT01", "QS", "01-701-1028", 3310.0, "NPITM06", "EUPHORIA/ELATION PRESENT", "NPI", "EUPHORIA/ELATION", "ABSENT", "", "0", 0.0, "", "", "", "", "", 11.1, "WEEK 22 (T)", 154.0, "TREATMENT", "2013-12-18", 153.0]
["CDISCPILOT01", "QS", "01-701-1028", 3311.0, "NPITM06S", "EUPHORIA/ELATION Score", "NPI", "EUPHORIA/ELATION", "0", "", "0", 0.0, "", "", "", "", "Y", 11.1, "WEEK 22 (T)", 154.0, "TREATMENT", "2013-12-18", 153.0]
["CDISCPILOT01", "QS", "01-701-1028", 3337.0, "NPITM06", "EUPHORIA/ELATION PRESENT", "NPI", "EUPHORIA/ELATION", "ABSENT", "", "0", 0.0, "", "", "", "", "", 12.0, "WEEK 24", 168.0, "TREATMENT", "2014-01-06", 172.0]
["CDISCPILOT01", "QS", "01-701-1028", 3338.0, "NPITM06S", "EUPHORIA/ELATION Score", "NPI", "EUPHORIA/ELATION", "0", "", "0", 0.0, "", "", "", "", "Y", 12.0, "WEEK 24", 168.0, "TREATMENT", "2014-01-06", 172.0]
["CDISCPILOT01", "QS", "01-701-1028", 3364.0, "NPITM06", "EUPHORIA/ELATION PRESENT", "NPI", "EUPHORIA/ELATION", "ABSENT", "", "0", 0.0, "", "", "", "", "", 13.0, "WEEK 26", 182.0, "TREATMENT", "2014-01-14", 180.0]
["CDISCPILOT01", "QS", "01-701-1028", 3365.0, "NPITM06S", "EUPHORIA/ELATION Score", "NPI", "EUPHORIA/ELATION", "0", "", "0", 0.0, "", "", "", "", "Y", 13.0, "WEEK 26", 182.0, "TREATMENT", "2014-01-14", 180.0]
["CDISCPILOT01", "QS", "01-701-1028", 3013.0, "NPITM07", "APATHY/INDIFFERENCE PRESENT", "NPI", "APATHY/INDIFFERENCE", "ABSENT", "", "0", 0.0, "", "", "", "Y", "", 3.0, "BASELINE", 1.0, "TREATMENT", "2013-07-19", 1.0]
["CDISCPILOT01", "QS", "01-701-1028", 3014.0, "NPITM07S", "APATHY/INDIFFERENCE Score", "NPI", "APATHY/INDIFFERENCE", "0", "", "0", 0.0, "", "", "", "Y", "Y", 3.0, "BASELINE", 1.0, "TREATMENT", "2013-07-19", 1.0]
["CDISCPILOT01", "QS", "01-701-1028", 3040.0, "NPITM07", "APATHY/INDIFFERENCE PRESENT", "NPI", "APATHY/INDIFFERENCE", "ABSENT", "", "0", 0.0, "", "", "", "", "", 4.0, "WEEK 2", 14.0, "TREATMENT", "2013-08-01", 14.0]
["CDISCPILOT01", "QS", "01-701-1028", 3041.0, "NPITM07S", "APATHY/INDIFFERENCE Score", "NPI", "APATHY/INDIFFERENCE", "0", "", "0", 0.0, "", "", "", "", "Y", 4.0, "WEEK 2", 14.0, "TREATMENT", "2013-08-01", 14.0]
["CDISCPILOT01", "QS", "01-701-1028", 3067.0, "NPITM07", "APATHY/INDIFFERENCE PRESENT", "NPI", "APATHY/INDIFFERENCE", "ABSENT", "", "0", 0.0, "", "", "", "", "", 5.0, "WEEK 4", 28.0, "TREATMENT", "2013-08-14", 27.0]
["CDISCPILOT01", "QS", "01-701-1028", 3068.0, "NPITM07S", "APATHY/INDIFFERENCE Score", "NPI", "APATHY/INDIFFERENCE", "0", "", "0", 0.0, "", "", "", "", "Y", 5.0, "WEEK 4", 28.0, "TREATMENT", "2013-08-14", 27.0]
["CDISCPILOT01", "QS", "01-701-1028", 3094.0, "NPITM07", "APATHY/INDIFFERENCE PRESENT", "NPI", "APATHY/INDIFFERENCE", "ABSENT", "", "0", 0.0, "", "", "", "", "", 7.0, "WEEK 6", 42.0, "TREATMENT", "2013-08-29", 42.0]
["CDISCPILOT01", "QS", "01-701-1028", 3095.0, "NPITM07S", "APATHY/INDIFFERENCE Score", "NPI", "APATHY/INDIFFERENCE", "0", "", "0", 0.0, "", "", "", "", "Y", 7.0, "WEEK 6", 42.0, "TREATMENT", "2013-08-29", 42.0]
["CDISCPILOT01", "QS", "01-701-1028", 3123.0, "NPITM07", "APATHY/INDIFFERENCE PRESENT", "NPI", "APATHY/INDIFFERENCE", "ABSENT", "", "0", 0.0, "", "", "", "", "", 8.0, "WEEK 8", 56.0, "TREATMENT", "2013-09-10", 54.0]
["CDISCPILOT01", "QS", "01-701-1028", 3124.0, "NPITM07S", "APATHY/INDIFFERENCE Score", "NPI", "APATHY/INDIFFERENCE", "0", "", "0", 0.0, "", "", "", "", "Y", 8.0, "WEEK 8", 56.0, "TREATMENT", "2013-09-10", 54.0]
["CDISCPILOT01", "QS", "01-701-1028", 3150.0, "NPITM07", "APATHY/INDIFFERENCE PRESENT", "NPI", "APATHY/INDIFFERENCE", "ABSENT", "", "0", 0.0, "", "", "", "", "", 8.1, "WEEK 10 (T)", 70.0, "TREATMENT", "2013-09-24", 68.0]
["CDISCPILOT01", "QS", "01-701-1028", 3151.0, "NPITM07S", "APATHY/INDIFFERENCE Score", "NPI", "APATHY/INDIFFERENCE", "0", "", "0", 0.0, "", "", "", "", "Y", 8.1, "WEEK 10 (T)", 70.0, "TREATMENT", "2013-09-24", 68.0]
["CDISCPILOT01", "QS", "01-701-1028", 3177.0, "NPITM07", "APATHY/INDIFFERENCE PRESENT", "NPI", "APATHY/INDIFFERENCE", "ABSENT", "", "0", 0.0, "", "", "", "", "", 9.0, "WEEK 12", 84.0, "TREATMENT", "2013-10-09", 83.0]
["CDISCPILOT01", "QS", "01-701-1028", 3178.0, "NPITM07S", "APATHY/INDIFFERENCE Score", "NPI", "APATHY/INDIFFERENCE", "0", "", "0", 0.0, "", "", "", "", "Y", 9.0, "WEEK 12", 84.0, "TREATMENT", "2013-10-09", 83.0]
["CDISCPILOT01", "QS", "01-701-1028", 3204.0, "NPITM07", "APATHY/INDIFFERENCE PRESENT", "NPI", "APATHY/INDIFFERENCE", "ABSENT", "", "0", 0.0, "", "", "", "", "", 9.1, "WEEK 14 (T)", 98.0, "TREATMENT", "2013-10-23", 97.0]
["CDISCPILOT01", "QS", "01-701-1028", 3205.0, "NPITM07S", "APATHY/INDIFFERENCE Score", "NPI", "APATHY/INDIFFERENCE", "0", "", "0", 0.0, "", "", "", "", "Y", 9.1, "WEEK 14 (T)", 98.0, "TREATMENT", "2013-10-23", 97.0]
["CDISCPILOT01", "QS", "01-701-1028", 3231.0, "NPITM07", "APATHY/INDIFFERENCE PRESENT", "NPI", "APATHY/INDIFFERENCE", "ABSENT", "", "0", 0.0, "", "", "", "", "", 10.0, "WEEK 16", 112.0, "TREATMENT", "2013-11-06", 111.0]
["CDISCPILOT01", "QS", "01-701-1028", 3232.0, "NPITM07S", "APATHY/INDIFFERENCE Score", "NPI", "APATHY/INDIFFERENCE", "0", "", "0", 0.0, "", "", "", "", "Y", 10.0, "WEEK 16", 112.0, "TREATMENT", "2013-11-06", 111.0]
["CDISCPILOT01", "QS", "01-701-1028", 3258.0, "NPITM07", "APATHY/INDIFFERENCE PRESENT", "NPI", "APATHY/INDIFFERENCE", "ABSENT", "", "0", 0.0, "", "", "", "", "", 10.1, "WEEK 18 (T)", 126.0, "TREATMENT", "2013-11-20", 125.0]
["CDISCPILOT01", "QS", "01-701-1028", 3259.0, "NPITM07S", "APATHY/INDIFFERENCE Score", "NPI", "APATHY/INDIFFERENCE", "0", "", "0", 0.0, "", "", "", "", "Y", 10.1, "WEEK 18 (T)", 126.0, "TREATMENT", "2013-11-20", 125.0]
["CDISCPILOT01", "QS", "01-701-1028", 3285.0, "NPITM07", "APATHY/INDIFFERENCE PRESENT", "NPI", "APATHY/INDIFFERENCE", "ABSENT", "", "0", 0.0, "", "", "", "", "", 11.0, "WEEK 20", 140.0, "TREATMENT", "2013-12-04", 139.0]
["CDISCPILOT01", "QS", "01-701-1028", 3286.0, "NPITM07S", "APATHY/INDIFFERENCE Score", "NPI", "APATHY/INDIFFERENCE", "0", "", "0", 0.0, "", "", "", "", "Y", 11.0, "WEEK 20", 140.0, "TREATMENT", "2013-12-04", 139.0]
["CDISCPILOT01", "QS", "01-701-1028", 3312.0, "NPITM07", "APATHY/INDIFFERENCE PRESENT", "NPI", "APATHY/INDIFFERENCE", "ABSENT", "", "0", 0.0, "", "", "", "", "", 11.1, "WEEK 22 (T)", 154.0, "TREATMENT", "2013-12-18", 153.0]
["CDISCPILOT01", "QS", "01-701-1028", 3313.0, "NPITM07S", "APATHY/INDIFFERENCE Score", "NPI", "APATHY/INDIFFERENCE", "0", "", "0", 0.0, "", "", "", "", "Y", 11.1, "WEEK 22 (T)", 154.0, "TREATMENT", "2013-12-18", 153.0]
["CDISCPILOT01", "QS", "01-701-1028", 3339.0, "NPITM07", "APATHY/INDIFFERENCE PRESENT", "NPI", "APATHY/INDIFFERENCE", "ABSENT", "", "0", 0.0, "", "", "", "", "", 12.0, "WEEK 24", 168.0, "TREATMENT", "2014-01-06", 172.0]
["CDISCPILOT01", "QS", "01-701-1028", 3340.0, "NPITM07S", "APATHY/INDIFFERENCE Score", "NPI", "APATHY/INDIFFERENCE", "0", "", "0", 0.0, "", "", "", "", "Y", 12.0, "WEEK 24", 168.0, "TREATMENT", "2014-01-06", 172.0]
["CDISCPILOT01", "QS", "01-701-1028", 3366.0, "NPITM07", "APATHY/INDIFFERENCE PRESENT", "NPI", "APATHY/INDIFFERENCE", "ABSENT", "", "0", 0.0, "", "", "", "", "", 13.0, "WEEK 26", 182.0, "TREATMENT", "2014-01-14", 180.0]
["CDISCPILOT01", "QS", "01-701-1028", 3367.0, "NPITM07S", "APATHY/INDIFFERENCE Score", "NPI", "APATHY/INDIFFERENCE", "0", "", "0", 0.0, "", "", "", "", "Y", 13.0, "WEEK 26", 182.0, "TREATMENT", "2014-01-14", 180.0]
["CDISCPILOT01", "QS", "01-701-1028", 3015.0, "NPITM08", "DISINHIBITION PRESENT", "NPI", "DISINHIBITION", "ABSENT", "", "0", 0.0, "", "", "", "Y", "", 3.0, "BASELINE", 1.0, "TREATMENT", "2013-07-19", 1.0]
["CDISCPILOT01", "QS", "01-701-1028", 3016.0, "NPITM08S", "DISINHIBITION Score", "NPI", "DISINHIBITION", "0", "", "0", 0.0, "", "", "", "Y", "Y", 3.0, "BASELINE", 1.0, "TREATMENT", "2013-07-19", 1.0]
["CDISCPILOT01", "QS", "01-701-1028", 3042.0, "NPITM08", "DISINHIBITION PRESENT", "NPI", "DISINHIBITION", "ABSENT", "", "0", 0.0, "", "", "", "", "", 4.0, "WEEK 2", 14.0, "TREATMENT", "2013-08-01", 14.0]
["CDISCPILOT01", "QS", "01-701-1028", 3043.0, "NPITM08S", "DISINHIBITION Score", "NPI", "DISINHIBITION", "0", "", "0", 0.0, "", "", "", "", "Y", 4.0, "WEEK 2", 14.0, "TREATMENT", "2013-08-01", 14.0]
["CDISCPILOT01", "QS", "01-701-1028", 3069.0, "NPITM08", "DISINHIBITION PRESENT", "NPI", "DISINHIBITION", "ABSENT", "", "0", 0.0, "", "", "", "", "", 5.0, "WEEK 4", 28.0, "TREATMENT", "2013-08-14", 27.0]
["CDISCPILOT01", "QS", "01-701-1028", 3070.0, "NPITM08S", "DISINHIBITION Score", "NPI", "DISINHIBITION", "0", "", "0", 0.0, "", "", "", "", "Y", 5.0, "WEEK 4", 28.0, "TREATMENT", "2013-08-14", 27.0]
["CDISCPILOT01", "QS", "01-701-1028", 3096.0, "NPITM08", "DISINHIBITION PRESENT", "NPI", "DISINHIBITION", "ABSENT", "", "0", 0.0, "", "", "", "", "", 7.0, "WEEK 6", 42.0, "TREATMENT", "2013-08-29", 42.0]
["CDISCPILOT01", "QS", "01-701-1028", 3097.0, "NPITM08S", "DISINHIBITION Score", "NPI", "DISINHIBITION", "0", "", "0", 0.0, "", "", "", "", "Y", 7.0, "WEEK 6", 42.0, "TREATMENT", "2013-08-29", 42.0]
["CDISCPILOT01", "QS", "01-701-1028", 3125.0, "NPITM08", "DISINHIBITION PRESENT", "NPI", "DISINHIBITION", "ABSENT", "", "0", 0.0, "", "", "", "", "", 8.0, "WEEK 8", 56.0, "TREATMENT", "2013-09-10", 54.0]
["CDISCPILOT01", "QS", "01-701-1028", 3126.0, "NPITM08S", "DISINHIBITION Score", "NPI", "DISINHIBITION", "0", "", "0", 0.0, "", "", "", "", "Y", 8.0, "WEEK 8", 56.0, "TREATMENT", "2013-09-10", 54.0]
["CDISCPILOT01", "QS", "01-701-1028", 3152.0, "NPITM08", "DISINHIBITION PRESENT", "NPI", "DISINHIBITION", "ABSENT", "", "0", 0.0, "", "", "", "", "", 8.1, "WEEK 10 (T)", 70.0, "TREATMENT", "2013-09-24", 68.0]
["CDISCPILOT01", "QS", "01-701-1028", 3153.0, "NPITM08S", "DISINHIBITION Score", "NPI", "DISINHIBITION", "0", "", "0", 0.0, "", "", "", "", "Y", 8.1, "WEEK 10 (T)", 70.0, "TREATMENT", "2013-09-24", 68.0]
["CDISCPILOT01", "QS", "01-701-1028", 3179.0, "NPITM08", "DISINHIBITION PRESENT", "NPI", "DISINHIBITION", "ABSENT", "", "0", 0.0, "", "", "", "", "", 9.0, "WEEK 12", 84.0, "TREATMENT", "2013-10-09", 83.0]
["CDISCPILOT01", "QS", "01-701-1028", 3180.0, "NPITM08S", "DISINHIBITION Score", "NPI", "DISINHIBITION", "0", "", "0", 0.0, "", "", "", "", "Y", 9.0, "WEEK 12", 84.0, "TREATMENT", "2013-10-09", 83.0]
["CDISCPILOT01", "QS", "01-701-1028", 3206.0, "NPITM08", "DISINHIBITION PRESENT", "NPI", "DISINHIBITION", "ABSENT", "", "0", 0.0, "", "", "", "", "", 9.1, "WEEK 14 (T)", 98.0, "TREATMENT", "2013-10-23", 97.0]
["CDISCPILOT01", "QS", "01-701-1028", 3207.0, "NPITM08S", "DISINHIBITION Score", "NPI", "DISINHIBITION", "0", "", "0", 0.0, "", "", "", "", "Y", 9.1, "WEEK 14 (T)", 98.0, "TREATMENT", "2013-10-23", 97.0]
["CDISCPILOT01", "QS", "01-701-1028", 3233.0, "NPITM08", "DISINHIBITION PRESENT", "NPI", "DISINHIBITION", "ABSENT", "", "0", 0.0, "", "", "", "", "", 10.0, "WEEK 16", 112.0, "TREATMENT", "2013-11-06", 111.0]
["CDISCPILOT01", "QS", "01-701-1028", 3234.0, "NPITM08S", "DISINHIBITION Score", "NPI", "DISINHIBITION", "0", "", "0", 0.0, "", "", "", "", "Y", 10.0, "WEEK 16", 112.0, "TREATMENT", "2013-11-06", 111.0]
["CDISCPILOT01", "QS", "01-701-1028", 3260.0, "NPITM08", "DISINHIBITION PRESENT", "NPI", "DISINHIBITION", "ABSENT", "", "0", 0.0, "", "", "", "", "", 10.1, "WEEK 18 (T)", 126.0, "TREATMENT", "2013-11-20", 125.0]
["CDISCPILOT01", "QS", "01-701-1028", 3261.0, "NPITM08S", "DISINHIBITION Score", "NPI", "DISINHIBITION", "0", "", "0", 0.0, "", "", "", "", "Y", 10.1, "WEEK 18 (T)", 126.0, "TREATMENT", "2013-11-20", 125.0]
["CDISCPILOT01", "QS", "01-701-1028", 3287.0, "NPITM08", "DISINHIBITION PRESENT", "NPI", "DISINHIBITION", "ABSENT", "", "0", 0.0, "", "", "", "", "", 11.0, "WEEK 20", 140.0, "TREATMENT", "2013-12-04", 139.0]
["CDISCPILOT01", "QS", "01-701-1028", 3288.0, "NPITM08S", "DISINHIBITION Score", "NPI", "DISINHIBITION", "0", "", "0", 0.0, "", "", "", "", "Y", 11.0, "WEEK 20", 140.0, "TREATMENT", "2013-12-04", 139.0]
["CDISCPILOT01", "QS", "01-701-1028", 3314.0, "NPITM08", "DISINHIBITION PRESENT", "NPI", "DISINHIBITION", "ABSENT", "", "0", 0.0, "", "", "", "", "", 11.1, "WEEK 22 (T)", 154.0, "TREATMENT", "2013-12-18", 153.0]
["CDISCPILOT01", "QS", "01-701-1028", 3315.0, "NPITM08S", "DISINHIBITION Score", "NPI", "DISINHIBITION", "0", "", "0", 0.0, "", "", "", "", "Y", 11.1, "WEEK 22 (T)", 154.0, "TREATMENT", "2013-12-18", 153.0]
["CDISCPILOT01", "QS", "01-701-1028", 3341.0, "NPITM08", "DISINHIBITION PRESENT", "NPI", "DISINHIBITION", "ABSENT", "", "0", 0.0, "", "", "", "", "", 12.0, "WEEK 24", 168.0, "TREATMENT", "2014-01-06", 172.0]
["CDISCPILOT01", "QS", "01-701-1028", 3342.0, "NPITM08S", "DISINHIBITION Score", "NPI", "DISINHIBITION", "0", "", "0", 0.0, "", "", "", "", "Y", 12.0, "WEEK 24", 168.0, "TREATMENT", "2014-01-06", 172.0]
["CDISCPILOT01", "QS", "01-701-1028", 3368.0, "NPITM08", "DISINHIBITION PRESENT", "NPI", "DISINHIBITION", "ABSENT", "", "0", 0.0, "", "", "", "", "", 13.0, "WEEK 26", 182.0, "TREATMENT", "2014-01-14", 180.0]
["CDISCPILOT01", "QS", "01-701-1028", 3369.0, "NPITM08S", "DISINHIBITION Score", "NPI", "DISINHIBITION", "0", "", "0", 0.0, "", "", "", "", "Y", 13.0, "WEEK 26", 182.0, "TREATMENT", "2014-01-14", 180.0]
["CDISCPILOT01", "QS", "01-701-1028", 3017.0, "NPITM09", "IRRITABILITY/LABILITY PRESENT", "NPI", "IRRITABILITY/LABILITY", "ABSENT", "", "0", 0.0, "", "", "", "Y", "", 3.0, "BASELINE", 1.0, "TREATMENT", "2013-07-19", 1.0]
["CDISCPILOT01", "QS", "01-701-1028", 3018.0, "NPITM09S", "IRRITABILITY/LABILITY Score", "NPI", "IRRITABILITY/LABILITY", "0", "", "0", 0.0, "", "", "", "Y", "Y", 3.0, "BASELINE", 1.0, "TREATMENT", "2013-07-19", 1.0]
["CDISCPILOT01", "QS", "01-701-1028", 3044.0, "NPITM09", "IRRITABILITY/LABILITY PRESENT", "NPI", "IRRITABILITY/LABILITY", "ABSENT", "", "0", 0.0, "", "", "", "", "", 4.0, "WEEK 2", 14.0, "TREATMENT", "2013-08-01", 14.0]
["CDISCPILOT01", "QS", "01-701-1028", 3045.0, "NPITM09S", "IRRITABILITY/LABILITY Score", "NPI", "IRRITABILITY/LABILITY", "0", "", "0", 0.0, "", "", "", "", "Y", 4.0, "WEEK 2", 14.0, "TREATMENT", "2013-08-01", 14.0]
["CDISCPILOT01", "QS", "01-701-1028", 3071.0, "NPITM09", "IRRITABILITY/LABILITY PRESENT", "NPI", "IRRITABILITY/LABILITY", "ABSENT", "", "0", 0.0, "", "", "", "", "", 5.0, "WEEK 4", 28.0, "TREATMENT", "2013-08-14", 27.0]
["CDISCPILOT01", "QS", "01-701-1028", 3072.0, "NPITM09S", "IRRITABILITY/LABILITY Score", "NPI", "IRRITABILITY/LABILITY", "0", "", "0", 0.0, "", "", "", "", "Y", 5.0, "WEEK 4", 28.0, "TREATMENT", "2013-08-14", 27.0]
["CDISCPILOT01", "QS", "01-701-1028", 3098.0, "NPITM09", "IRRITABILITY/LABILITY PRESENT", "NPI", "IRRITABILITY/LABILITY", "ABSENT", "", "0", 0.0, "", "", "", "", "", 7.0, "WEEK 6", 42.0, "TREATMENT", "2013-08-29", 42.0]
["CDISCPILOT01", "QS", "01-701-1028", 3099.0, "NPITM09S", "IRRITABILITY/LABILITY Score", "NPI", "IRRITABILITY/LABILITY", "0", "", "0", 0.0, "", "", "", "", "Y", 7.0, "WEEK 6", 42.0, "TREATMENT", "2013-08-29", 42.0]
["CDISCPILOT01", "QS", "01-701-1028", 3127.0, "NPITM09", "IRRITABILITY/LABILITY PRESENT", "NPI", "IRRITABILITY/LABILITY", "ABSENT", "", "0", 0.0, "", "", "", "", "", 8.0, "WEEK 8", 56.0, "TREATMENT", "2013-09-10", 54.0]
["CDISCPILOT01", "QS", "01-701-1028", 3128.0, "NPITM09S", "IRRITABILITY/LABILITY Score", "NPI", "IRRITABILITY/LABILITY", "0", "", "0", 0.0, "", "", "", "", "Y", 8.0, "WEEK 8", 56.0, "TREATMENT", "2013-09-10", 54.0]
["CDISCPILOT01", "QS", "01-701-1028", 3154.0, "NPITM09", "IRRITABILITY/LABILITY PRESENT", "NPI", "IRRITABILITY/LABILITY", "ABSENT", "", "0", 0.0, "", "", "", "", "", 8.1, "WEEK 10 (T)", 70.0, "TREATMENT", "2013-09-24", 68.0]
["CDISCPILOT01", "QS", "01-701-1028", 3155.0, "NPITM09S", "IRRITABILITY/LABILITY Score", "NPI", "IRRITABILITY/LABILITY", "0", "", "0", 0.0, "", "", "", "", "Y", 8.1, "WEEK 10 (T)", 70.0, "TREATMENT", "2013-09-24", 68.0]
["CDISCPILOT01", "QS", "01-701-1028", 3181.0, "NPITM09", "IRRITABILITY/LABILITY PRESENT", "NPI", "IRRITABILITY/LABILITY", "ABSENT", "", "0", 0.0, "", "", "", "", "", 9.0, "WEEK 12", 84.0, "TREATMENT", "2013-10-09", 83.0]
["CDISCPILOT01", "QS", "01-701-1028", 3182.0, "NPITM09S", "IRRITABILITY/LABILITY Score", "NPI", "IRRITABILITY/LABILITY", "0", "", "0", 0.0, "", "", "", "", "Y", 9.0, "WEEK 12", 84.0, "TREATMENT", "2013-10-09", 83.0]
["CDISCPILOT01", "QS", "01-701-1028", 3208.0, "NPITM09", "IRRITABILITY/LABILITY PRESENT", "NPI", "IRRITABILITY/LABILITY", "ABSENT", "", "0", 0.0, "", "", "", "", "", 9.1, "WEEK 14 (T)", 98.0, "TREATMENT", "2013-10-23", 97.0]
["CDISCPILOT01", "QS", "01-701-1028", 3209.0, "NPITM09S", "IRRITABILITY/LABILITY Score", "NPI", "IRRITABILITY/LABILITY", "0", "", "0", 0.0, "", "", "", "", "Y", 9.1, "WEEK 14 (T)", 98.0, "TREATMENT", "2013-10-23", 97.0]
["CDISCPILOT01", "QS", "01-701-1028", 3235.0, "NPITM09", "IRRITABILITY/LABILITY PRESENT", "NPI", "IRRITABILITY/LABILITY", "ABSENT", "", "0", 0.0, "", "", "", "", "", 10.0, "WEEK 16", 112.0, "TREATMENT", "2013-11-06", 111.0]
["CDISCPILOT01", "QS", "01-701-1028", 3236.0, "NPITM09S", "IRRITABILITY/LABILITY Score", "NPI", "IRRITABILITY/LABILITY", "0", "", "0", 0.0, "", "", "", "", "Y", 10.0, "WEEK 16", 112.0, "TREATMENT", "2013-11-06", 111.0]
["CDISCPILOT01", "QS", "01-701-1028", 3262.0, "NPITM09", "IRRITABILITY/LABILITY PRESENT", "NPI", "IRRITABILITY/LABILITY", "ABSENT", "", "0", 0.0, "", "", "", "", "", 10.1, "WEEK 18 (T)", 126.0, "TREATMENT", "2013-11-20", 125.0]
["CDISCPILOT01", "QS", "01-701-1028", 3263.0, "NPITM09S", "IRRITABILITY/LABILITY Score", "NPI", "IRRITABILITY/LABILITY", "0", "", "0", 0.0, "", "", "", "", "Y", 10.1, "WEEK 18 (T)", 126.0, "TREATMENT", "2013-11-20", 125.0]
["CDISCPILOT01", "QS", "01-701-1028", 3289.0, "NPITM09", "IRRITABILITY/LABILITY PRESENT", "NPI", "IRRITABILITY/LABILITY", "ABSENT", "", "0", 0.0, "", "", "", "", "", 11.0, "WEEK 20", 140.0, "TREATMENT", "2013-12-04", 139.0]
["CDISCPILOT01", "QS", "01-701-1028", 3290.0, "NPITM09S", "IRRITABILITY/LABILITY Score", "NPI", "IRRITABILITY/LABILITY", "0", "", "0", 0.0, "", "", "", "", "Y", 11.0, "WEEK 20", 140.0, "TREATMENT", "2013-12-04", 139.0]
["CDISCPILOT01", "QS", "01-701-1028", 3316.0, "NPITM09", "IRRITABILITY/LABILITY PRESENT", "NPI", "IRRITABILITY/LABILITY", "ABSENT", "", "0", 0.0, "", "", "", "", "", 11.1, "WEEK 22 (T)", 154.0, "TREATMENT", "2013-12-18", 153.0]
["CDISCPILOT01", "QS", "01-701-1028", 3317.0, "NPITM09S", "IRRITABILITY/LABILITY Score", "NPI", "IRRITABILITY/LABILITY", "0", "", "0", 0.0, "", "", "", "", "Y", 11.1, "WEEK 22 (T)", 154.0, "TREATMENT", "2013-12-18", 153.0]
["CDISCPILOT01", "QS", "01-701-1028", 3343.0, "NPITM09", "IRRITABILITY/LABILITY PRESENT", "NPI", "IRRITABILITY/LABILITY", "ABSENT", "", "0", 0.0, "", "", "", "", "", 12.0, "WEEK 24", 168.0, "TREATMENT", "2014-01-06", 172.0]
["CDISCPILOT01", "QS", "01-701-1028", 3344.0, "NPITM09S", "IRRITABILITY/LABILITY Score", "NPI", "IRRITABILITY/LABILITY", "0", "", "0", 0.0, "", "", "", "", "Y", 12.0, "WEEK 24", 168.0, "TREATMENT", "2014-01-06", 172.0]
["CDISCPILOT01", "QS", "01-701-1028", 3370.0, "NPITM09", "IRRITABILITY/LABILITY PRESENT", "NPI", "IRRITABILITY/LABILITY", "ABSENT", "", "0", 0.0, "", "", "", "", "", 13.0, "WEEK 26", 182.0, "TREATMENT", "2014-01-14", 180.0]
["CDISCPILOT01", "QS", "01-701-1028", 3371.0, "NPITM09S", "IRRITABILITY/LABILITY Score", "NPI", "IRRITABILITY/LABILITY", "0", "", "0", 0.0, "", "", "", "", "Y", 13.0, "WEEK 26", 182.0, "TREATMENT", "2014-01-14", 180.0]
["CDISCPILOT01", "QS", "01-701-1028", 3019.0, "NPITM10", "ABERRANT MOTOR BEHAVIOR PRESENT", "NPI", "ABERRANT MOTOR BEHAVIOR", "ABSENT", "", "0", 0.0, "", "", "", "Y", "", 3.0, "BASELINE", 1.0, "TREATMENT", "2013-07-19", 1.0]
["CDISCPILOT01", "QS", "01-701-1028", 3020.0, "NPITM10S", "ABERRANT MOTOR BEHAVIOR Score", "NPI", "ABERRANT MOTOR BEHAVIOR", "0", "", "0", 0.0, "", "", "", "Y", "Y", 3.0, "BASELINE", 1.0, "TREATMENT", "2013-07-19", 1.0]
["CDISCPILOT01", "QS", "01-701-1028", 3046.0, "NPITM10", "ABERRANT MOTOR BEHAVIOR PRESENT", "NPI", "ABERRANT MOTOR BEHAVIOR", "ABSENT", "", "0", 0.0, "", "", "", "", "", 4.0, "WEEK 2", 14.0, "TREATMENT", "2013-08-01", 14.0]
["CDISCPILOT01", "QS", "01-701-1028", 3047.0, "NPITM10S", "ABERRANT MOTOR BEHAVIOR Score", "NPI", "ABERRANT MOTOR BEHAVIOR", "0", "", "0", 0.0, "", "", "", "", "Y", 4.0, "WEEK 2", 14.0, "TREATMENT", "2013-08-01", 14.0]
["CDISCPILOT01", "QS", "01-701-1028", 3073.0, "NPITM10", "ABERRANT MOTOR BEHAVIOR PRESENT", "NPI", "ABERRANT MOTOR BEHAVIOR", "ABSENT", "", "0", 0.0, "", "", "", "", "", 5.0, "WEEK 4", 28.0, "TREATMENT", "2013-08-14", 27.0]
["CDISCPILOT01", "QS", "01-701-1028", 3074.0, "NPITM10S", "ABERRANT MOTOR BEHAVIOR Score", "NPI", "ABERRANT MOTOR BEHAVIOR", "0", "", "0", 0.0, "", "", "", "", "Y", 5.0, "WEEK 4", 28.0, "TREATMENT", "2013-08-14", 27.0]
["CDISCPILOT01", "QS", "01-701-1028", 3100.0, "NPITM10", "ABERRANT MOTOR BEHAVIOR PRESENT", "NPI", "ABERRANT MOTOR BEHAVIOR", "ABSENT", "", "0", 0.0, "", "", "", "", "", 7.0, "WEEK 6", 42.0, "TREATMENT", "2013-08-29", 42.0]
["CDISCPILOT01", "QS", "01-701-1028", 3101.0, "NPITM10S", "ABERRANT MOTOR BEHAVIOR Score", "NPI", "ABERRANT MOTOR BEHAVIOR", "0", "", "0", 0.0, "", "", "", "", "Y", 7.0, "WEEK 6", 42.0, "TREATMENT", "2013-08-29", 42.0]
["CDISCPILOT01", "QS", "01-701-1028", 3129.0, "NPITM10", "ABERRANT MOTOR BEHAVIOR PRESENT", "NPI", "ABERRANT MOTOR BEHAVIOR", "ABSENT", "", "0", 0.0, "", "", "", "", "", 8.0, "WEEK 8", 56.0, "TREATMENT", "2013-09-10", 54.0]
["CDISCPILOT01", "QS", "01-701-1028", 3130.0, "NPITM10S", "ABERRANT MOTOR BEHAVIOR Score", "NPI", "ABERRANT MOTOR BEHAVIOR", "0", "", "0", 0.0, "", "", "", "", "Y", 8.0, "WEEK 8", 56.0, "TREATMENT", "2013-09-10", 54.0]
["CDISCPILOT01", "QS", "01-701-1028", 3156.0, "NPITM10", "ABERRANT MOTOR BEHAVIOR PRESENT", "NPI", "ABERRANT MOTOR BEHAVIOR", "ABSENT", "", "0", 0.0, "", "", "", "", "", 8.1, "WEEK 10 (T)", 70.0, "TREATMENT", "2013-09-24", 68.0]
["CDISCPILOT01", "QS", "01-701-1028", 3157.0, "NPITM10S", "ABERRANT MOTOR BEHAVIOR Score", "NPI", "ABERRANT MOTOR BEHAVIOR", "0", "", "0", 0.0, "", "", "", "", "Y", 8.1, "WEEK 10 (T)", 70.0, "TREATMENT", "2013-09-24", 68.0]
["CDISCPILOT01", "QS", "01-701-1028", 3183.0, "NPITM10", "ABERRANT MOTOR BEHAVIOR PRESENT", "NPI", "ABERRANT MOTOR BEHAVIOR", "ABSENT", "", "0", 0.0, "", "", "", "", "", 9.0, "WEEK 12", 84.0, "TREATMENT", "2013-10-09", 83.0]
["CDISCPILOT01", "QS", "01-701-1028", 3184.0, "NPITM10S", "ABERRANT MOTOR BEHAVIOR Score", "NPI", "ABERRANT MOTOR BEHAVIOR", "0", "", "0", 0.0, "", "", "", "", "Y", 9.0, "WEEK 12", 84.0, "TREATMENT", "2013-10-09", 83.0]
["CDISCPILOT01", "QS", "01-701-1028", 3210.0, "NPITM10", "ABERRANT MOTOR BEHAVIOR PRESENT", "NPI", "ABERRANT MOTOR BEHAVIOR", "ABSENT", "", "0", 0.0, "", "", "", "", "", 9.1, "WEEK 14 (T)", 98.0, "TREATMENT", "2013-10-23", 97.0]
["CDISCPILOT01", "QS", "01-701-1028", 3211.0, "NPITM10S", "ABERRANT MOTOR BEHAVIOR Score", "NPI", "ABERRANT MOTOR BEHAVIOR", "0", "", "0", 0.0, "", "", "", "", "Y", 9.1, "WEEK 14 (T)", 98.0, "TREATMENT", "2013-10-23", 97.0]
["CDISCPILOT01", "QS", "01-701-1028", 3237.0, "NPITM10", "ABERRANT MOTOR BEHAVIOR PRESENT", "NPI", "ABERRANT MOTOR BEHAVIOR", "ABSENT", "", "0", 0.0, "", "", "", "", "", 10.0, "WEEK 16", 112.0, "TREATMENT", "2013-11-06", 111.0]
["CDISCPILOT01", "QS", "01-701-1028", 3238.0, "NPITM10S", "ABERRANT MOTOR BEHAVIOR Score", "NPI", "ABERRANT MOTOR BEHAVIOR", "0", "", "0", 0.0, "", "", "", "", "Y", 10.0, "WEEK 16", 112.0, "TREATMENT", "2013-11-06", 111.0]
["CDISCPILOT01", "QS", "01-701-1028", 3264.0, "NPITM10", "ABERRANT MOTOR BEHAVIOR PRESENT", "NPI", "ABERRANT MOTOR BEHAVIOR", "ABSENT", "", "0", 0.0, "", "", "", "", "", 10.1, "WEEK 18 (T)", 126.0, "TREATMENT", "2013-11-20", 125.0]
["CDISCPILOT01", "QS", "01-701-1028", 3265.0, "NPITM10S", "ABERRANT MOTOR BEHAVIOR Score", "NPI", "ABERRANT MOTOR BEHAVIOR", "0", "", "0", 0.0, "", "", "", "", "Y", 10.1, "WEEK 18 (T)", 126.0, "TREATMENT", "2013-11-20", 125.0]
["CDISCPILOT01", "QS", "01-701-1028", 3291.0, "NPITM10", "ABERRANT MOTOR BEHAVIOR PRESENT", "NPI", "ABERRANT MOTOR BEHAVIOR", "ABSENT", "", "0", 0.0, "", "", "", "", "", 11.0, "WEEK 20", 140.0, "TREATMENT", "2013-12-04", 139.0]
["CDISCPILOT01", "QS", "01-701-1028", 3292.0, "NPITM10S", "ABERRANT MOTOR BEHAVIOR Score", "NPI", "ABERRANT MOTOR BEHAVIOR", "0", "", "0", 0.0, "", "", "", "", "Y", 11.0, "WEEK 20", 140.0, "TREATMENT", "2013-12-04", 139.0]
["CDISCPILOT01", "QS", "01-701-1028", 3318.0, "NPITM10", "ABERRANT MOTOR BEHAVIOR PRESENT", "NPI", "ABERRANT MOTOR BEHAVIOR", "ABSENT", "", "0", 0.0, "", "", "", "", "", 11.1, "WEEK 22 (T)", 154.0, "TREATMENT", "2013-12-18", 153.0]
["CDISCPILOT01", "QS", "01-701-1028", 3319.0, "NPITM10S", "ABERRANT MOTOR BEHAVIOR Score", "NPI", "ABERRANT MOTOR BEHAVIOR", "0", "", "0", 0.0, "", "", "", "", "Y", 11.1, "WEEK 22 (T)", 154.0, "TREATMENT", "2013-12-18", 153.0]
["CDISCPILOT01", "QS", "01-701-1028", 3345.0, "NPITM10", "ABERRANT MOTOR BEHAVIOR PRESENT", "NPI", "ABERRANT MOTOR BEHAVIOR", "ABSENT", "", "0", 0.0, "", "", "", "", "", 12.0, "WEEK 24", 168.0, "TREATMENT", "2014-01-06", 172.0]
["CDISCPILOT01", "QS", "01-701-1028", 3346.0, "NPITM10S", "ABERRANT MOTOR BEHAVIOR Score", "NPI", "ABERRANT MOTOR BEHAVIOR", "0", "", "0", 0.0, "", "", "", "", "Y", 12.0, "WEEK 24", 168.0, "TREATMENT", "2014-01-06", 172.0]
["CDISCPILOT01", "QS", "01-701-1028", 3372.0, "NPITM10", "ABERRANT MOTOR BEHAVIOR PRESENT", "NPI", "ABERRANT MOTOR BEHAVIOR", "ABSENT", "", "0", 0.0, "", "", "", "", "", 13.0, "WEEK 26", 182.0, "TREATMENT", "2014-01-14", 180.0]
["CDISCPILOT01", "QS", "01-701-1028", 3373.0, "NPITM10S", "ABERRANT MOTOR BEHAVIOR Score", "NPI", "ABERRANT MOTOR BEHAVIOR", "0", "", "0", 0.0, "", "", "", "", "Y", 13.0, "WEEK 26", 182.0, "TREATMENT", "2014-01-14", 180.0]
["CDISCPILOT01", "QS", "01-701-1028", 3021.0, "NPITM11F", "NIGHT-TIME BEHAVIOR FREQUENCY", "NPI", "NIGHT-TIME BEHAVIOR", "4", "", "4", 4.0, "", "", "", "Y", "", 3.0, "BASELINE", 1.0, "TREATMENT", "2013-07-19", 1.0]
["CDISCPILOT01", "QS", "01-701-1028", 3022.0, "NPITM11V", "NIGHT-TIME BEHAVIOR SEVERITY", "NPI", "NIGHT-TIME BEHAVIOR", "3", "", "3", 3.0, "", "", "", "Y", "", 3.0, "BASELINE", 1.0, "TREATMENT", "2013-07-19", 1.0]
["CDISCPILOT01", "QS", "01-701-1028", 3023.0, "NPITM11D", "NIGHT-TIME BEHAVIOR DISTRESS", "NPI", "NIGHT-TIME BEHAVIOR", "3", "", "3", 3.0, "", "", "", "Y", "", 3.0, "BASELINE", 1.0, "TREATMENT", "2013-07-19", 1.0]
["CDISCPILOT01", "QS", "01-701-1028", 3024.0, "NPITM11S", "NIGHT-TIME BEHAVIOR Score", "NPI", "NIGHT-TIME BEHAVIOR", "0", "", "0", 0.0, "", "", "", "Y", "Y", 3.0, "BASELINE", 1.0, "TREATMENT", "2013-07-19", 1.0]
["CDISCPILOT01", "QS", "01-701-1028", 3048.0, "NPITM11F", "NIGHT-TIME BEHAVIOR FREQUENCY", "NPI", "NIGHT-TIME BEHAVIOR", "3", "", "3", 3.0, "", "", "", "", "", 4.0, "WEEK 2", 14.0, "TREATMENT", "2013-08-01", 14.0]
["CDISCPILOT01", "QS", "01-701-1028", 3049.0, "NPITM11V", "NIGHT-TIME BEHAVIOR SEVERITY", "NPI", "NIGHT-TIME BEHAVIOR", "2", "", "2", 2.0, "", "", "", "", "", 4.0, "WEEK 2", 14.0, "TREATMENT", "2013-08-01", 14.0]
["CDISCPILOT01", "QS", "01-701-1028", 3050.0, "NPITM11D", "NIGHT-TIME BEHAVIOR DISTRESS", "NPI", "NIGHT-TIME BEHAVIOR", "2", "", "2", 2.0, "", "", "", "", "", 4.0, "WEEK 2", 14.0, "TREATMENT", "2013-08-01", 14.0]
["CDISCPILOT01", "QS", "01-701-1028", 3051.0, "NPITM11S", "NIGHT-TIME BEHAVIOR Score", "NPI", "NIGHT-TIME BEHAVIOR", "0", "", "0", 0.0, "", "", "", "", "Y", 4.0, "WEEK 2", 14.0, "TREATMENT", "2013-08-01", 14.0]
["CDISCPILOT01", "QS", "01-701-1028", 3075.0, "NPITM11F", "NIGHT-TIME BEHAVIOR FREQUENCY", "NPI", "NIGHT-TIME BEHAVIOR", "4", "", "4", 4.0, "", "", "", "", "", 5.0, "WEEK 4", 28.0, "TREATMENT", "2013-08-14", 27.0]
["CDISCPILOT01", "QS", "01-701-1028", 3076.0, "NPITM11V", "NIGHT-TIME BEHAVIOR SEVERITY", "NPI", "NIGHT-TIME BEHAVIOR", "3", "", "3", 3.0, "", "", "", "", "", 5.0, "WEEK 4", 28.0, "TREATMENT", "2013-08-14", 27.0]
["CDISCPILOT01", "QS", "01-701-1028", 3077.0, "NPITM11D", "NIGHT-TIME BEHAVIOR DISTRESS", "NPI", "NIGHT-TIME BEHAVIOR", "1", "", "1", 1.0, "", "", "", "", "", 5.0, "WEEK 4", 28.0, "TREATMENT", "2013-08-14", 27.0]
["CDISCPILOT01", "QS", "01-701-1028", 3078.0, "NPITM11S", "NIGHT-TIME BEHAVIOR Score", "NPI", "NIGHT-TIME BEHAVIOR", "0", "", "0", 0.0, "", "", "", "", "Y", 5.0, "WEEK 4", 28.0, "TREATMENT", "2013-08-14", 27.0]
["CDISCPILOT01", "QS", "01-701-1028", 3102.0, "NPITM11F", "NIGHT-TIME BEHAVIOR FREQUENCY", "NPI", "NIGHT-TIME BEHAVIOR", "4", "", "4", 4.0, "", "", "", "", "", 7.0, "WEEK 6", 42.0, "TREATMENT", "2013-08-29", 42.0]
["CDISCPILOT01", "QS", "01-701-1028", 3103.0, "NPITM11V", "NIGHT-TIME BEHAVIOR SEVERITY", "NPI", "NIGHT-TIME BEHAVIOR", "2", "", "2", 2.0, "", "", "", "", "", 7.0, "WEEK 6", 42.0, "TREATMENT", "2013-08-29", 42.0]
["CDISCPILOT01", "QS", "01-701-1028", 3104.0, "NPITM11D", "NIGHT-TIME BEHAVIOR DISTRESS", "NPI", "NIGHT-TIME BEHAVIOR", "1", "", "1", 1.0, "", "", "", "", "", 7.0, "WEEK 6", 42.0, "TREATMENT", "2013-08-29", 42.0]
["CDISCPILOT01", "QS", "01-701-1028", 3105.0, "NPITM11S", "NIGHT-TIME BEHAVIOR Score", "NPI", "NIGHT-TIME BEHAVIOR", "0", "", "0", 0.0, "", "", "", "", "Y", 7.0, "WEEK 6", 42.0, "TREATMENT", "2013-08-29", 42.0]
["CDISCPILOT01", "QS", "01-701-1028", 3131.0, "NPITM11F", "NIGHT-TIME BEHAVIOR FREQUENCY", "NPI", "NIGHT-TIME BEHAVIOR", "4", "", "4", 4.0, "", "", "", "", "", 8.0, "WEEK 8", 56.0, "TREATMENT", "2013-09-10", 54.0]
["CDISCPILOT01", "QS", "01-701-1028", 3132.0, "NPITM11V", "NIGHT-TIME BEHAVIOR SEVERITY", "NPI", "NIGHT-TIME BEHAVIOR", "3", "", "3", 3.0, "", "", "", "", "", 8.0, "WEEK 8", 56.0, "TREATMENT", "2013-09-10", 54.0]
["CDISCPILOT01", "QS", "01-701-1028", 3133.0, "NPITM11D", "NIGHT-TIME BEHAVIOR DISTRESS", "NPI", "NIGHT-TIME BEHAVIOR", "1", "", "1", 1.0, "", "", "", "", "", 8.0, "WEEK 8", 56.0, "TREATMENT", "2013-09-10", 54.0]
["CDISCPILOT01", "QS", "01-701-1028", 3134.0, "NPITM11S", "NIGHT-TIME BEHAVIOR Score", "NPI", "NIGHT-TIME BEHAVIOR", "0", "", "0", 0.0, "", "", "", "", "Y", 8.0, "WEEK 8", 56.0, "TREATMENT", "2013-09-10", 54.0]
["CDISCPILOT01", "QS", "01-701-1028", 3158.0, "NPITM11F", "NIGHT-TIME BEHAVIOR FREQUENCY", "NPI", "NIGHT-TIME BEHAVIOR", "3", "", "3", 3.0, "", "", "", "", "", 8.1, "WEEK 10 (T)", 70.0, "TREATMENT", "2013-09-24", 68.0]
["CDISCPILOT01", "QS", "01-701-1028", 3159.0, "NPITM11V", "NIGHT-TIME BEHAVIOR SEVERITY", "NPI", "NIGHT-TIME BEHAVIOR", "2", "", "2", 2.0, "", "", "", "", "", 8.1, "WEEK 10 (T)", 70.0, "TREATMENT", "2013-09-24", 68.0]
["CDISCPILOT01", "QS", "01-701-1028", 3160.0, "NPITM11D", "NIGHT-TIME BEHAVIOR DISTRESS", "NPI", "NIGHT-TIME BEHAVIOR", "1", "", "1", 1.0, "", "", "", "", "", 8.1, "WEEK 10 (T)", 70.0, "TREATMENT", "2013-09-24", 68.0]
["CDISCPILOT01", "QS", "01-701-1028", 3161.0, "NPITM11S", "NIGHT-TIME BEHAVIOR Score", "NPI", "NIGHT-TIME BEHAVIOR", "0", "", "0", 0.0, "", "", "", "", "Y", 8.1, "WEEK 10 (T)", 70.0, "TREATMENT", "2013-09-24", 68.0]
["CDISCPILOT01", "QS", "01-701-1028", 3185.0, "NPITM11F", "NIGHT-TIME BEHAVIOR FREQUENCY", "NPI", "NIGHT-TIME BEHAVIOR", "3", "", "3", 3.0, "", "", "", "", "", 9.0, "WEEK 12", 84.0, "TREATMENT", "2013-10-09", 83.0]
["CDISCPILOT01", "QS", "01-701-1028", 3186.0, "NPITM11V", "NIGHT-TIME BEHAVIOR SEVERITY", "NPI", "NIGHT-TIME BEHAVIOR", "2", "", "2", 2.0, "", "", "", "", "", 9.0, "WEEK 12", 84.0, "TREATMENT", "2013-10-09", 83.0]
["CDISCPILOT01", "QS", "01-701-1028", 3187.0, "NPITM11D", "NIGHT-TIME BEHAVIOR DISTRESS", "NPI", "NIGHT-TIME BEHAVIOR", "1", "", "1", 1.0, "", "", "", "", "", 9.0, "WEEK 12", 84.0, "TREATMENT", "2013-10-09", 83.0]
["CDISCPILOT01", "QS", "01-701-1028", 3188.0, "NPITM11S", "NIGHT-TIME BEHAVIOR Score", "NPI", "NIGHT-TIME BEHAVIOR", "0", "", "0", 0.0, "", "", "", "", "Y", 9.0, "WEEK 12", 84.0, "TREATMENT", "2013-10-09", 83.0]
["CDISCPILOT01", "QS", "01-701-1028", 3212.0, "NPITM11F", "NIGHT-TIME BEHAVIOR FREQUENCY", "NPI", "NIGHT-TIME BEHAVIOR", "1", "", "1", 1.0, "", "", "", "", "", 9.1, "WEEK 14 (T)", 98.0, "TREATMENT", "2013-10-23", 97.0]
["CDISCPILOT01", "QS", "01-701-1028", 3213.0, "NPITM11V", "NIGHT-TIME BEHAVIOR SEVERITY", "NPI", "NIGHT-TIME BEHAVIOR", "1", "", "1", 1.0, "", "", "", "", "", 9.1, "WEEK 14 (T)", 98.0, "TREATMENT", "2013-10-23", 97.0]
["CDISCPILOT01", "QS", "01-701-1028", 3214.0, "NPITM11D", "NIGHT-TIME BEHAVIOR DISTRESS", "NPI", "NIGHT-TIME BEHAVIOR", "1", "", "1", 1.0, "", "", "", "", "", 9.1, "WEEK 14 (T)", 98.0, "TREATMENT", "2013-10-23", 97.0]
["CDISCPILOT01", "QS", "01-701-1028", 3215.0, "NPITM11S", "NIGHT-TIME BEHAVIOR Score", "NPI", "NIGHT-TIME BEHAVIOR", "0", "", "0", 0.0, "", "", "", "", "Y", 9.1, "WEEK 14 (T)", 98.0, "TREATMENT", "2013-10-23", 97.0]
["CDISCPILOT01", "QS", "01-701-1028", 3239.0, "NPITM11F", "NIGHT-TIME BEHAVIOR FREQUENCY", "NPI", "NIGHT-TIME BEHAVIOR", "3", "", "3", 3.0, "", "", "", "", "", 10.0, "WEEK 16", 112.0, "TREATMENT", "2013-11-06", 111.0]
["CDISCPILOT01", "QS", "01-701-1028", 3240.0, "NPITM11V", "NIGHT-TIME BEHAVIOR SEVERITY", "NPI", "NIGHT-TIME BEHAVIOR", "2", "", "2", 2.0, "", "", "", "", "", 10.0, "WEEK 16", 112.0, "TREATMENT", "2013-11-06", 111.0]
["CDISCPILOT01", "QS", "01-701-1028", 3241.0, "NPITM11D", "NIGHT-TIME BEHAVIOR DISTRESS", "NPI", "NIGHT-TIME BEHAVIOR", "1", "", "1", 1.0, "", "", "", "", "", 10.0, "WEEK 16", 112.0, "TREATMENT", "2013-11-06", 111.0]
["CDISCPILOT01", "QS", "01-701-1028", 3242.0, "NPITM11S", "NIGHT-TIME BEHAVIOR Score", "NPI", "NIGHT-TIME BEHAVIOR", "0", "", "0", 0.0, "", "", "", "", "Y", 10.0, "WEEK 16", 112.0, "TREATMENT", "2013-11-06", 111.0]
["CDISCPILOT01", "QS", "01-701-1028", 3266.0, "NPITM11F", "NIGHT-TIME BEHAVIOR FREQUENCY", "NPI", "NIGHT-TIME BEHAVIOR", "3", "", "3", 3.0, "", "", "", "", "", 10.1, "WEEK 18 (T)", 126.0, "TREATMENT", "2013-11-20", 125.0]
["CDISCPILOT01", "QS", "01-701-1028", 3267.0, "NPITM11V", "NIGHT-TIME BEHAVIOR SEVERITY", "NPI", "NIGHT-TIME BEHAVIOR", "2", "", "2", 2.0, "", "", "", "", "", 10.1, "WEEK 18 (T)", 126.0, "TREATMENT", "2013-11-20", 125.0]
["CDISCPILOT01", "QS", "01-701-1028", 3268.0, "NPITM11D", "NIGHT-TIME BEHAVIOR DISTRESS", "NPI", "NIGHT-TIME BEHAVIOR", "1", "", "1", 1.0, "", "", "", "", "", 10.1, "WEEK 18 (T)", 126.0, "TREATMENT", "2013-11-20", 125.0]
["CDISCPILOT01", "QS", "01-701-1028", 3269.0, "NPITM11S", "NIGHT-TIME BEHAVIOR Score", "NPI", "NIGHT-TIME BEHAVIOR", "0", "", "0", 0.0, "", "", "", "", "Y", 10.1, "WEEK 18 (T)", 126.0, "TREATMENT", "2013-11-20", 125.0]
["CDISCPILOT01", "QS", "01-701-1028", 3293.0, "NPITM11F", "NIGHT-TIME BEHAVIOR FREQUENCY", "NPI", "NIGHT-TIME BEHAVIOR", "3", "", "3", 3.0, "", "", "", "", "", 11.0, "WEEK 20", 140.0, "TREATMENT", "2013-12-04", 139.0]
["CDISCPILOT01", "QS", "01-701-1028", 3294.0, "NPITM11V", "NIGHT-TIME BEHAVIOR SEVERITY", "NPI", "NIGHT-TIME BEHAVIOR", "2", "", "2", 2.0, "", "", "", "", "", 11.0, "WEEK 20", 140.0, "TREATMENT", "2013-12-04", 139.0]
["CDISCPILOT01", "QS", "01-701-1028", 3295.0, "NPITM11D", "NIGHT-TIME BEHAVIOR DISTRESS", "NPI", "NIGHT-TIME BEHAVIOR", "2", "", "2", 2.0, "", "", "", "", "", 11.0, "WEEK 20", 140.0, "TREATMENT", "2013-12-04", 139.0]
["CDISCPILOT01", "QS", "01-701-1028", 3296.0, "NPITM11S", "NIGHT-TIME BEHAVIOR Score", "NPI", "NIGHT-TIME BEHAVIOR", "0", "", "0", 0.0, "", "", "", "", "Y", 11.0, "WEEK 20", 140.0, "TREATMENT", "2013-12-04", 139.0]
["CDISCPILOT01", "QS", "01-701-1028", 3320.0, "NPITM11F", "NIGHT-TIME BEHAVIOR FREQUENCY", "NPI", "NIGHT-TIME BEHAVIOR", "3", "", "3", 3.0, "", "", "", "", "", 11.1, "WEEK 22 (T)", 154.0, "TREATMENT", "2013-12-18", 153.0]
["CDISCPILOT01", "QS", "01-701-1028", 3321.0, "NPITM11V", "NIGHT-TIME BEHAVIOR SEVERITY", "NPI", "NIGHT-TIME BEHAVIOR", "2", "", "2", 2.0, "", "", "", "", "", 11.1, "WEEK 22 (T)", 154.0, "TREATMENT", "2013-12-18", 153.0]
["CDISCPILOT01", "QS", "01-701-1028", 3322.0, "NPITM11D", "NIGHT-TIME BEHAVIOR DISTRESS", "NPI", "NIGHT-TIME BEHAVIOR", "2", "", "2", 2.0, "", "", "", "", "", 11.1, "WEEK 22 (T)", 154.0, "TREATMENT", "2013-12-18", 153.0]
["CDISCPILOT01", "QS", "01-701-1028", 3323.0, "NPITM11S", "NIGHT-TIME BEHAVIOR Score", "NPI", "NIGHT-TIME BEHAVIOR", "0", "", "0", 0.0, "", "", "", "", "Y", 11.1, "WEEK 22 (T)", 154.0, "TREATMENT", "2013-12-18", 153.0]
["CDISCPILOT01", "QS", "01-701-1028", 3347.0, "NPITM11F", "NIGHT-TIME BEHAVIOR FREQUENCY", "NPI", "NIGHT-TIME BEHAVIOR", "4", "", "4", 4.0, "", "", "", "", "", 12.0, "WEEK 24", 168.0, "TREATMENT", "2014-01-06", 172.0]
["CDISCPILOT01", "QS", "01-701-1028", 3348.0, "NPITM11V", "NIGHT-TIME BEHAVIOR SEVERITY", "NPI", "NIGHT-TIME BEHAVIOR", "2", "", "2", 2.0, "", "", "", "", "", 12.0, "WEEK 24", 168.0, "TREATMENT", "2014-01-06", 172.0]
["CDISCPILOT01", "QS", "01-701-1028", 3349.0, "NPITM11D", "NIGHT-TIME BEHAVIOR DISTRESS", "NPI", "NIGHT-TIME BEHAVIOR", "1", "", "1", 1.0, "", "", "", "", "", 12.0, "WEEK 24", 168.0, "TREATMENT", "2014-01-06", 172.0]
["CDISCPILOT01", "QS", "01-701-1028", 3350.0, "NPITM11S", "NIGHT-TIME BEHAVIOR Score", "NPI", "NIGHT-TIME BEHAVIOR", "0", "", "0", 0.0, "", "", "", "", "Y", 12.0, "WEEK 24", 168.0, "TREATMENT", "2014-01-06", 172.0]
["CDISCPILOT01", "QS", "01-701-1028", 3374.0, "NPITM11F", "NIGHT-TIME BEHAVIOR FREQUENCY", "NPI", "NIGHT-TIME BEHAVIOR", "3", "", "3", 3.0, "", "", "", "", "", 13.0, "WEEK 26", 182.0, "TREATMENT", "2014-01-14", 180.0]
["CDISCPILOT01", "QS", "01-701-1028", 3375.0, "NPITM11V", "NIGHT-TIME BEHAVIOR SEVERITY", "NPI", "NIGHT-TIME BEHAVIOR", "2", "", "2", 2.0, "", "", "", "", "", 13.0, "WEEK 26", 182.0, "TREATMENT", "2014-01-14", 180.0]
["CDISCPILOT01", "QS", "01-701-1028", 3376.0, "NPITM11D", "NIGHT-TIME BEHAVIOR DISTRESS", "NPI", "NIGHT-TIME BEHAVIOR", "1", "", "1", 1.0, "", "", "", "", "", 13.0, "WEEK 26", 182.0, "TREATMENT", "2014-01-14", 180.0]
["CDISCPILOT01", "QS", "01-701-1028", 3377.0, "NPITM11S", "NIGHT-TIME BEHAVIOR Score", "NPI", "NIGHT-TIME BEHAVIOR", "0", "", "0", 0.0, "", "", "", "", "Y", 13.0, "WEEK 26", 182.0, "TREATMENT", "2014-01-14", 180.0]
["CDISCPILOT01", "QS", "01-701-1028", 3025.0, "NPITM12", "APPETITE/EATING CHANGE PRESENT", "NPI", "APPETITE/EATING CHANGE", "ABSENT", "", "0", 0.0, "", "", "", "Y", "", 3.0, "BASELINE", 1.0, "TREATMENT", "2013-07-19", 1.0]
["CDISCPILOT01", "QS", "01-701-1028", 3026.0, "NPITM12S", "APPETITE/EATING CHANGE Score", "NPI", "APPETITE/EATING CHANGE", "0", "", "0", 0.0, "", "", "", "Y", "Y", 3.0, "BASELINE", 1.0, "TREATMENT", "2013-07-19", 1.0]
["CDISCPILOT01", "QS", "01-701-1028", 3052.0, "NPITM12", "APPETITE/EATING CHANGE PRESENT", "NPI", "APPETITE/EATING CHANGE", "ABSENT", "", "0", 0.0, "", "", "", "", "", 4.0, "WEEK 2", 14.0, "TREATMENT", "2013-08-01", 14.0]
["CDISCPILOT01", "QS", "01-701-1028", 3053.0, "NPITM12S", "APPETITE/EATING CHANGE Score", "NPI", "APPETITE/EATING CHANGE", "0", "", "0", 0.0, "", "", "", "", "Y", 4.0, "WEEK 2", 14.0, "TREATMENT", "2013-08-01", 14.0]
["CDISCPILOT01", "QS", "01-701-1028", 3079.0, "NPITM12", "APPETITE/EATING CHANGE PRESENT", "NPI", "APPETITE/EATING CHANGE", "ABSENT", "", "0", 0.0, "", "", "", "", "", 5.0, "WEEK 4", 28.0, "TREATMENT", "2013-08-14", 27.0]
["CDISCPILOT01", "QS", "01-701-1028", 3080.0, "NPITM12S", "APPETITE/EATING CHANGE Score", "NPI", "APPETITE/EATING CHANGE", "0", "", "0", 0.0, "", "", "", "", "Y", 5.0, "WEEK 4", 28.0, "TREATMENT", "2013-08-14", 27.0]
["CDISCPILOT01", "QS", "01-701-1028", 3106.0, "NPITM12", "APPETITE/EATING CHANGE PRESENT", "NPI", "APPETITE/EATING CHANGE", "ABSENT", "", "0", 0.0, "", "", "", "", "", 7.0, "WEEK 6", 42.0, "TREATMENT", "2013-08-29", 42.0]
["CDISCPILOT01", "QS", "01-701-1028", 3107.0, "NPITM12S", "APPETITE/EATING CHANGE Score", "NPI", "APPETITE/EATING CHANGE", "0", "", "0", 0.0, "", "", "", "", "Y", 7.0, "WEEK 6", 42.0, "TREATMENT", "2013-08-29", 42.0]
["CDISCPILOT01", "QS", "01-701-1028", 3135.0, "NPITM12", "APPETITE/EATING CHANGE PRESENT", "NPI", "APPETITE/EATING CHANGE", "ABSENT", "", "0", 0.0, "", "", "", "", "", 8.0, "WEEK 8", 56.0, "TREATMENT", "2013-09-10", 54.0]
["CDISCPILOT01", "QS", "01-701-1028", 3136.0, "NPITM12S", "APPETITE/EATING CHANGE Score", "NPI", "APPETITE/EATING CHANGE", "0", "", "0", 0.0, "", "", "", "", "Y", 8.0, "WEEK 8", 56.0, "TREATMENT", "2013-09-10", 54.0]
["CDISCPILOT01", "QS", "01-701-1028", 3162.0, "NPITM12", "APPETITE/EATING CHANGE PRESENT", "NPI", "APPETITE/EATING CHANGE", "ABSENT", "", "0", 0.0, "", "", "", "", "", 8.1, "WEEK 10 (T)", 70.0, "TREATMENT", "2013-09-24", 68.0]
["CDISCPILOT01", "QS", "01-701-1028", 3163.0, "NPITM12S", "APPETITE/EATING CHANGE Score", "NPI", "APPETITE/EATING CHANGE", "0", "", "0", 0.0, "", "", "", "", "Y", 8.1, "WEEK 10 (T)", 70.0, "TREATMENT", "2013-09-24", 68.0]
["CDISCPILOT01", "QS", "01-701-1028", 3189.0, "NPITM12", "APPETITE/EATING CHANGE PRESENT", "NPI", "APPETITE/EATING CHANGE", "ABSENT", "", "0", 0.0, "", "", "", "", "", 9.0, "WEEK 12", 84.0, "TREATMENT", "2013-10-09", 83.0]
["CDISCPILOT01", "QS", "01-701-1028", 3190.0, "NPITM12S", "APPETITE/EATING CHANGE Score", "NPI", "APPETITE/EATING CHANGE", "0", "", "0", 0.0, "", "", "", "", "Y", 9.0, "WEEK 12", 84.0, "TREATMENT", "2013-10-09", 83.0]
["CDISCPILOT01", "QS", "01-701-1028", 3216.0, "NPITM12", "APPETITE/EATING CHANGE PRESENT", "NPI", "APPETITE/EATING CHANGE", "ABSENT", "", "0", 0.0, "", "", "", "", "", 9.1, "WEEK 14 (T)", 98.0, "TREATMENT", "2013-10-23", 97.0]
["CDISCPILOT01", "QS", "01-701-1028", 3217.0, "NPITM12S", "APPETITE/EATING CHANGE Score", "NPI", "APPETITE/EATING CHANGE", "0", "", "0", 0.0, "", "", "", "", "Y", 9.1, "WEEK 14 (T)", 98.0, "TREATMENT", "2013-10-23", 97.0]
["CDISCPILOT01", "QS", "01-701-1028", 3243.0, "NPITM12", "APPETITE/EATING CHANGE PRESENT", "NPI", "APPETITE/EATING CHANGE", "ABSENT", "", "0", 0.0, "", "", "", "", "", 10.0, "WEEK 16", 112.0, "TREATMENT", "2013-11-06", 111.0]
["CDISCPILOT01", "QS", "01-701-1028", 3244.0, "NPITM12S", "APPETITE/EATING CHANGE Score", "NPI", "APPETITE/EATING CHANGE", "0", "", "0", 0.0, "", "", "", "", "Y", 10.0, "WEEK 16", 112.0, "TREATMENT", "2013-11-06", 111.0]
["CDISCPILOT01", "QS", "01-701-1028", 3270.0, "NPITM12", "APPETITE/EATING CHANGE PRESENT", "NPI", "APPETITE/EATING CHANGE", "ABSENT", "", "0", 0.0, "", "", "", "", "", 10.1, "WEEK 18 (T)", 126.0, "TREATMENT", "2013-11-20", 125.0]
["CDISCPILOT01", "QS", "01-701-1028", 3271.0, "NPITM12S", "APPETITE/EATING CHANGE Score", "NPI", "APPETITE/EATING CHANGE", "0", "", "0", 0.0, "", "", "", "", "Y", 10.1, "WEEK 18 (T)", 126.0, "TREATMENT", "2013-11-20", 125.0]
["CDISCPILOT01", "QS", "01-701-1028", 3297.0, "NPITM12", "APPETITE/EATING CHANGE PRESENT", "NPI", "APPETITE/EATING CHANGE", "ABSENT", "", "0", 0.0, "", "", "", "", "", 11.0, "WEEK 20", 140.0, "TREATMENT", "2013-12-04", 139.0]
["CDISCPILOT01", "QS", "01-701-1028", 3298.0, "NPITM12S", "APPETITE/EATING CHANGE Score", "NPI", "APPETITE/EATING CHANGE", "0", "", "0", 0.0, "", "", "", "", "Y", 11.0, "WEEK 20", 140.0, "TREATMENT", "2013-12-04", 139.0]
["CDISCPILOT01", "QS", "01-701-1028", 3324.0, "NPITM12", "APPETITE/EATING CHANGE PRESENT", "NPI", "APPETITE/EATING CHANGE", "ABSENT", "", "0", 0.0, "", "", "", "", "", 11.1, "WEEK 22 (T)", 154.0, "TREATMENT", "2013-12-18", 153.0]
["CDISCPILOT01", "QS", "01-701-1028", 3325.0, "NPITM12S", "APPETITE/EATING CHANGE Score", "NPI", "APPETITE/EATING CHANGE", "0", "", "0", 0.0, "", "", "", "", "Y", 11.1, "WEEK 22 (T)", 154.0, "TREATMENT", "2013-12-18", 153.0]
["CDISCPILOT01", "QS", "01-701-1028", 3351.0, "NPITM12", "APPETITE/EATING CHANGE PRESENT", "NPI", "APPETITE/EATING CHANGE", "ABSENT", "", "0", 0.0, "", "", "", "", "", 12.0, "WEEK 24", 168.0, "TREATMENT", "2014-01-06", 172.0]
["CDISCPILOT01", "QS", "01-701-1028", 3352.0, "NPITM12S", "APPETITE/EATING CHANGE Score", "NPI", "APPETITE/EATING CHANGE", "0", "", "0", 0.0, "", "", "", "", "Y", 12.0, "WEEK 24", 168.0, "TREATMENT", "2014-01-06", 172.0]
["CDISCPILOT01", "QS", "01-701-1028", 3378.0, "NPITM12", "APPETITE/EATING CHANGE PRESENT", "NPI", "APPETITE/EATING CHANGE", "ABSENT", "", "0", 0.0, "", "", "", "", "", 13.0, "WEEK 26", 182.0, "TREATMENT", "2014-01-14", 180.0]
["CDISCPILOT01", "QS", "01-701-1028", 3379.0, "NPITM12S", "APPETITE/EATING CHANGE Score", "NPI", "APPETITE/EATING CHANGE", "0", "", "0", 0.0, "", "", "", "", "Y", 13.0, "WEEK 26", 182.0, "TREATMENT", "2014-01-14", 180.0]
["CDISCPILOT01", "QS", "01-701-1028", 3027.0, "NPTOT", "NPI-X (9) Total Score", "NPI", "APPETITE/EATING CHANGE", "", "", "0", 0.0, "", "", "", "Y", "Y", 3.0, "BASELINE", 1.0, "TREATMENT", "2013-07-19", 1.0]
["CDISCPILOT01", "QS", "01-701-1028", 3054.0, "NPTOT", "NPI-X (9) Total Score", "NPI", "APPETITE/EATING CHANGE", "", "", "0", 0.0, "", "", "", "", "Y", 4.0, "WEEK 2", 14.0, "TREATMENT", "2013-08-01", 14.0]
["CDISCPILOT01", "QS", "01-701-1028", 3081.0, "NPTOT", "NPI-X (9) Total Score", "NPI", "APPETITE/EATING CHANGE", "", "", "0", 0.0, "", "", "", "", "Y", 5.0, "WEEK 4", 28.0, "TREATMENT", "2013-08-14", 27.0]
["CDISCPILOT01", "QS", "01-701-1028", 3108.0, "NPTOT", "NPI-X (9) Total Score", "NPI", "APPETITE/EATING CHANGE", "", "", "0", 0.0, "", "", "", "", "Y", 7.0, "WEEK 6", 42.0, "TREATMENT", "2013-08-29", 42.0]
["CDISCPILOT01", "QS", "01-701-1028", 3137.0, "NPTOT", "NPI-X (9) Total Score", "NPI", "APPETITE/EATING CHANGE", "", "", "0", 0.0, "", "", "", "", "Y", 8.0, "WEEK 8", 56.0, "TREATMENT", "2013-09-10", 54.0]
["CDISCPILOT01", "QS", "01-701-1028", 3164.0, "NPTOT", "NPI-X (9) Total Score", "NPI", "APPETITE/EATING CHANGE", "", "", "0", 0.0, "", "", "", "", "Y", 8.1, "WEEK 10 (T)", 70.0, "TREATMENT", "2013-09-24", 68.0]
["CDISCPILOT01", "QS", "01-701-1028", 3191.0, "NPTOT", "NPI-X (9) Total Score", "NPI", "APPETITE/EATING CHANGE", "", "", "0", 0.0, "", "", "", "", "Y", 9.0, "WEEK 12", 84.0, "TREATMENT", "2013-10-09", 83.0]
["CDISCPILOT01", "QS", "01-701-1028", 3218.0, "NPTOT", "NPI-X (9) Total Score", "NPI", "APPETITE/EATING CHANGE", "", "", "0", 0.0, "", "", "", "", "Y", 9.1, "WEEK 14 (T)", 98.0, "TREATMENT", "2013-10-23", 97.0]
["CDISCPILOT01", "QS", "01-701-1028", 3245.0, "NPTOT", "NPI-X (9) Total Score", "NPI", "APPETITE/EATING CHANGE", "", "", "0", 0.0, "", "", "", "", "Y", 10.0, "WEEK 16", 112.0, "TREATMENT", "2013-11-06", 111.0]
["CDISCPILOT01", "QS", "01-701-1028", 3272.0, "NPTOT", "NPI-X (9) Total Score", "NPI", "APPETITE/EATING CHANGE", "", "", "0", 0.0, "", "", "", "", "Y", 10.1, "WEEK 18 (T)", 126.0, "TREATMENT", "2013-11-20", 125.0]
["CDISCPILOT01", "QS", "01-701-1028", 3299.0, "NPTOT", "NPI-X (9) Total Score", "NPI", "APPETITE/EATING CHANGE", "", "", "0", 0.0, "", "", "", "", "Y", 11.0, "WEEK 20", 140.0, "TREATMENT", "2013-12-04", 139.0]
["CDISCPILOT01", "QS", "01-701-1028", 3326.0, "NPTOT", "NPI-X (9) Total Score", "NPI", "APPETITE/EATING CHANGE", "", "", "0", 0.0, "", "", "", "", "Y", 11.1, "WEEK 22 (T)", 154.0, "TREATMENT", "2013-12-18", 153.0]
["CDISCPILOT01", "QS", "01-701-1028", 3353.0, "NPTOT", "NPI-X (9) Total Score", "NPI", "APPETITE/EATING CHANGE", "", "", "0", 0.0, "", "", "", "", "Y", 12.0, "WEEK 24", 168.0, "TREATMENT", "2014-01-06", 172.0]
["CDISCPILOT01", "QS", "01-701-1028", 3380.0, "NPTOT", "NPI-X (9) Total Score", "NPI", "APPETITE/EATING CHANGE", "", "", "0", 0.0, "", "", "", "", "Y", 13.0, "WEEK 26", 182.0, "TREATMENT", "2014-01-14", 180.0]
["CDISCPILOT01", "QS", "01-701-1033", 3001.0, "NPITM01", "DELUSIONS PRESENT", "NPI", "DELUSIONS", "ABSENT", "", "0", 0.0, "", "", "", "Y", "", 3.0, "BASELINE", 1.0, "TREATMENT", "2014-03-18", 1.0]
["CDISCPILOT01", "QS", "01-701-1033", 3002.0, "NPITM01S", "DELUSIONS Score", "NPI", "DELUSIONS", "0", "", "0", 0.0, "", "", "", "Y", "Y", 3.0, "BASELINE", 1.0, "TREATMENT", "2014-03-18", 1.0]
["CDISCPILOT01", "QS", "01-701-1033", 3028.0, "NPITM01", "DELUSIONS PRESENT", "NPI", "DELUSIONS", "ABSENT", "", "0", 0.0, "", "", "", "", "", 4.0, "WEEK 2", 14.0, "TREATMENT", "2014-04-01", 15.0]
["CDISCPILOT01", "QS", "01-701-1033", 3029.0, "NPITM01S", "DELUSIONS Score", "NPI", "DELUSIONS", "0", "", "0", 0.0, "", "", "", "", "Y", 4.0, "WEEK 2", 14.0, "TREATMENT", "2014-04-01", 15.0]
["CDISCPILOT01", "QS", "01-701-1033", 3055.0, "NPITM01", "DELUSIONS PRESENT", "NPI", "DELUSIONS", "ABSENT", "", "0", 0.0, "", "", "", "", "", 5.0, "WEEK 4", 28.0, "TREATMENT", "2014-04-14", 28.0]
["CDISCPILOT01", "QS", "01-701-1033", 3056.0, "NPITM01S", "DELUSIONS Score", "NPI", "DELUSIONS", "0", "", "0", 0.0, "", "", "", "", "Y", 5.0, "WEEK 4", 28.0, "TREATMENT", "2014-04-14", 28.0]
["CDISCPILOT01", "QS", "01-701-1033", 3080.0, "NPITM01", "DELUSIONS PRESENT", "NPI", "DELUSIONS", "ABSENT", "", "0", 0.0, "", "", "", "", "", 201.0, "RETRIEVAL", 168.0, "TREATMENT", "2014-09-15", 182.0]
["CDISCPILOT01", "QS", "01-701-1033", 3081.0, "NPITM01S", "DELUSIONS Score", "NPI", "DELUSIONS", "0", "", "0", 0.0, "", "", "", "", "Y", 201.0, "RETRIEVAL", 168.0, "TREATMENT", "2014-09-15", 182.0]
["CDISCPILOT01", "QS", "01-701-1033", 3003.0, "NPITM02", "HALLUCINATIONS PRESENT", "NPI", "HALLUCINATIONS", "ABSENT", "", "0", 0.0, "", "", "", "Y", "", 3.0, "BASELINE", 1.0, "TREATMENT", "2014-03-18", 1.0]
["CDISCPILOT01", "QS", "01-701-1033", 3004.0, "NPITM02S", "HALLUCINATIONS Score", "NPI", "HALLUCINATIONS", "0", "", "0", 0.0, "", "", "", "Y", "Y", 3.0, "BASELINE", 1.0, "TREATMENT", "2014-03-18", 1.0]
["CDISCPILOT01", "QS", "01-701-1033", 3030.0, "NPITM02", "HALLUCINATIONS PRESENT", "NPI", "HALLUCINATIONS", "ABSENT", "", "0", 0.0, "", "", "", "", "", 4.0, "WEEK 2", 14.0, "TREATMENT", "2014-04-01", 15.0]
["CDISCPILOT01", "QS", "01-701-1033", 3031.0, "NPITM02S", "HALLUCINATIONS Score", "NPI", "HALLUCINATIONS", "0", "", "0", 0.0, "", "", "", "", "Y", 4.0, "WEEK 2", 14.0, "TREATMENT", "2014-04-01", 15.0]
["CDISCPILOT01", "QS", "01-701-1033", 3057.0, "NPITM02", "HALLUCINATIONS PRESENT", "NPI", "HALLUCINATIONS", "ABSENT", "", "0", 0.0, "", "", "", "", "", 5.0, "WEEK 4", 28.0, "TREATMENT", "2014-04-14", 28.0]
["CDISCPILOT01", "QS", "01-701-1033", 3058.0, "NPITM02S", "HALLUCINATIONS Score", "NPI", "HALLUCINATIONS", "0", "", "0", 0.0, "", "", "", "", "Y", 5.0, "WEEK 4", 28.0, "TREATMENT", "2014-04-14", 28.0]
["CDISCPILOT01", "QS", "01-701-1033", 3082.0, "NPITM02", "HALLUCINATIONS PRESENT", "NPI", "HALLUCINATIONS", "ABSENT", "", "0", 0.0, "", "", "", "", "", 201.0, "RETRIEVAL", 168.0, "TREATMENT", "2014-09-15", 182.0]
["CDISCPILOT01", "QS", "01-701-1033", 3083.0, "NPITM02S", "HALLUCINATIONS Score", "NPI", "HALLUCINATIONS", "0", "", "0", 0.0, "", "", "", "", "Y", 201.0, "RETRIEVAL", 168.0, "TREATMENT", "2014-09-15", 182.0]
["CDISCPILOT01", "QS", "01-701-1033", 3005.0, "NPITM03", "AGITATION/AGRESSION PRESENT", "NPI", "AGITATION/AGRESSION", "ABSENT", "", "0", 0.0, "", "", "", "Y", "", 3.0, "BASELINE", 1.0, "TREATMENT", "2014-03-18", 1.0]
["CDISCPILOT01", "QS", "01-701-1033", 3006.0, "NPITM03S", "AGITATION/AGRESSION Score", "NPI", "AGITATION/AGRESSION", "0", "", "0", 0.0, "", "", "", "Y", "Y", 3.0, "BASELINE", 1.0, "TREATMENT", "2014-03-18", 1.0]
["CDISCPILOT01", "QS", "01-701-1033", 3032.0, "NPITM03", "AGITATION/AGRESSION PRESENT", "NPI", "AGITATION/AGRESSION", "ABSENT", "", "0", 0.0, "", "", "", "", "", 4.0, "WEEK 2", 14.0, "TREATMENT", "2014-04-01", 15.0]
["CDISCPILOT01", "QS", "01-701-1033", 3033.0, "NPITM03S", "AGITATION/AGRESSION Score", "NPI", "AGITATION/AGRESSION", "0", "", "0", 0.0, "", "", "", "", "Y", 4.0, "WEEK 2", 14.0, "TREATMENT", "2014-04-01", 15.0]
["CDISCPILOT01", "QS", "01-701-1033", 3059.0, "NPITM03", "AGITATION/AGRESSION PRESENT", "NPI", "AGITATION/AGRESSION", "ABSENT", "", "0", 0.0, "", "", "", "", "", 5.0, "WEEK 4", 28.0, "TREATMENT", "2014-04-14", 28.0]
["CDISCPILOT01", "QS", "01-701-1033", 3060.0, "NPITM03S", "AGITATION/AGRESSION Score", "NPI", "AGITATION/AGRESSION", "0", "", "0", 0.0, "", "", "", "", "Y", 5.0, "WEEK 4", 28.0, "TREATMENT", "2014-04-14", 28.0]
["CDISCPILOT01", "QS", "01-701-1033", 3084.0, "NPITM03", "AGITATION/AGRESSION PRESENT", "NPI", "AGITATION/AGRESSION", "ABSENT", "", "0", 0.0, "", "", "", "", "", 201.0, "RETRIEVAL", 168.0, "TREATMENT", "2014-09-15", 182.0]
["CDISCPILOT01", "QS", "01-701-1033", 3085.0, "NPITM03S", "AGITATION/AGRESSION Score", "NPI", "AGITATION/AGRESSION", "0", "", "0", 0.0, "", "", "", "", "Y", 201.0, "RETRIEVAL", 168.0, "TREATMENT", "2014-09-15", 182.0]
["CDISCPILOT01", "QS", "01-701-1033", 3007.0, "NPITM04F", "DEPRESSION/DYSPHORIA FREQUENCY", "NPI", "DEPRESSION/DYSPHORIA", "1", "", "1", 1.0, "", "", "", "Y", "", 3.0, "BASELINE", 1.0, "TREATMENT", "2014-03-18", 1.0]
["CDISCPILOT01", "QS", "01-701-1033", 3008.0, "NPITM04V", "DEPRESSION/DYSPHORIA SEVERITY", "NPI", "DEPRESSION/DYSPHORIA", "1", "", "1", 1.0, "", "", "", "Y", "", 3.0, "BASELINE", 1.0, "TREATMENT", "2014-03-18", 1.0]
["CDISCPILOT01", "QS", "01-701-1033", 3009.0, "NPITM04D", "DEPRESSION/DYSPHORIA DISTRESS", "NPI", "DEPRESSION/DYSPHORIA", "1", "", "1", 1.0, "", "", "", "Y", "", 3.0, "BASELINE", 1.0, "TREATMENT", "2014-03-18", 1.0]
["CDISCPILOT01", "QS", "01-701-1033", 3010.0, "NPITM04S", "DEPRESSION/DYSPHORIA Score", "NPI", "DEPRESSION/DYSPHORIA", "1", "", "1", 1.0, "", "", "", "Y", "Y", 3.0, "BASELINE", 1.0, "TREATMENT", "2014-03-18", 1.0]
["CDISCPILOT01", "QS", "01-701-1033", 3034.0, "NPITM04", "DEPRESSION/DYSPHORIA PRESENT", "NPI", "DEPRESSION/DYSPHORIA", "ABSENT", "", "0", 0.0, "", "", "", "", "", 4.0, "WEEK 2", 14.0, "TREATMENT", "2014-04-01", 15.0]
["CDISCPILOT01", "QS", "01-701-1033", 3035.0, "NPITM04S", "DEPRESSION/DYSPHORIA Score", "NPI", "DEPRESSION/DYSPHORIA", "0", "", "0", 0.0, "", "", "", "", "Y", 4.0, "WEEK 2", 14.0, "TREATMENT", "2014-04-01", 15.0]
["CDISCPILOT01", "QS", "01-701-1033", 3061.0, "NPITM04", "DEPRESSION/DYSPHORIA PRESENT", "NPI", "DEPRESSION/DYSPHORIA", "ABSENT", "", "0", 0.0, "", "", "", "", "", 5.0, "WEEK 4", 28.0, "TREATMENT", "2014-04-14", 28.0]
["CDISCPILOT01", "QS", "01-701-1033", 3062.0, "NPITM04S", "DEPRESSION/DYSPHORIA Score", "NPI", "DEPRESSION/DYSPHORIA", "0", "", "0", 0.0, "", "", "", "", "Y", 5.0, "WEEK 4", 28.0, "TREATMENT", "2014-04-14", 28.0]
["CDISCPILOT01", "QS", "01-701-1033", 3086.0, "NPITM04", "DEPRESSION/DYSPHORIA PRESENT", "NPI", "DEPRESSION/DYSPHORIA", "ABSENT", "", "0", 0.0, "", "", "", "", "", 201.0, "RETRIEVAL", 168.0, "TREATMENT", "2014-09-15", 182.0]
["CDISCPILOT01", "QS", "01-701-1033", 3087.0, "NPITM04S", "DEPRESSION/DYSPHORIA Score", "NPI", "DEPRESSION/DYSPHORIA", "0", "", "0", 0.0, "", "", "", "", "Y", 201.0, "RETRIEVAL", 168.0, "TREATMENT", "2014-09-15", 182.0]
["CDISCPILOT01", "QS", "01-701-1033", 3011.0, "NPITM05", "ANXIETY PRESENT", "NPI", "ANXIETY", "ABSENT", "", "0", 0.0, "", "", "", "Y", "", 3.0, "BASELINE", 1.0, "TREATMENT", "2014-03-18", 1.0]
["CDISCPILOT01", "QS", "01-701-1033", 3012.0, "NPITM05S", "ANXIETY Score", "NPI", "ANXIETY", "0", "", "0", 0.0, "", "", "", "Y", "Y", 3.0, "BASELINE", 1.0, "TREATMENT", "2014-03-18", 1.0]
["CDISCPILOT01", "QS", "01-701-1033", 3036.0, "NPITM05", "ANXIETY PRESENT", "NPI", "ANXIETY", "ABSENT", "", "0", 0.0, "", "", "", "", "", 4.0, "WEEK 2", 14.0, "TREATMENT", "2014-04-01", 15.0]
["CDISCPILOT01", "QS", "01-701-1033", 3037.0, "NPITM05S", "ANXIETY Score", "NPI", "ANXIETY", "0", "", "0", 0.0, "", "", "", "", "Y", 4.0, "WEEK 2", 14.0, "TREATMENT", "2014-04-01", 15.0]
["CDISCPILOT01", "QS", "01-701-1033", 3063.0, "NPITM05", "ANXIETY PRESENT", "NPI", "ANXIETY", "ABSENT", "", "0", 0.0, "", "", "", "", "", 5.0, "WEEK 4", 28.0, "TREATMENT", "2014-04-14", 28.0]
["CDISCPILOT01", "QS", "01-701-1033", 3064.0, "NPITM05S", "ANXIETY Score", "NPI", "ANXIETY", "0", "", "0", 0.0, "", "", "", "", "Y", 5.0, "WEEK 4", 28.0, "TREATMENT", "2014-04-14", 28.0]
["CDISCPILOT01", "QS", "01-701-1033", 3088.0, "NPITM05", "ANXIETY PRESENT", "NPI", "ANXIETY", "ABSENT", "", "0", 0.0, "", "", "", "", "", 201.0, "RETRIEVAL", 168.0, "TREATMENT", "2014-09-15", 182.0]
["CDISCPILOT01", "QS", "01-701-1033", 3089.0, "NPITM05S", "ANXIETY Score", "NPI", "ANXIETY", "0", "", "0", 0.0, "", "", "", "", "Y", 201.0, "RETRIEVAL", 168.0, "TREATMENT", "2014-09-15", 182.0]
["CDISCPILOT01", "QS", "01-701-1033", 3013.0, "NPITM06", "EUPHORIA/ELATION PRESENT", "NPI", "EUPHORIA/ELATION", "ABSENT", "", "0", 0.0, "", "", "", "Y", "", 3.0, "BASELINE", 1.0, "TREATMENT", "2014-03-18", 1.0]
["CDISCPILOT01", "QS", "01-701-1033", 3014.0, "NPITM06S", "EUPHORIA/ELATION Score", "NPI", "EUPHORIA/ELATION", "0", "", "0", 0.0, "", "", "", "Y", "Y", 3.0, "BASELINE", 1.0, "TREATMENT", "2014-03-18", 1.0]
["CDISCPILOT01", "QS", "01-701-1033", 3038.0, "NPITM06", "EUPHORIA/ELATION PRESENT", "NPI", "EUPHORIA/ELATION", "ABSENT", "", "0", 0.0, "", "", "", "", "", 4.0, "WEEK 2", 14.0, "TREATMENT", "2014-04-01", 15.0]
["CDISCPILOT01", "QS", "01-701-1033", 3039.0, "NPITM06S", "EUPHORIA/ELATION Score", "NPI", "EUPHORIA/ELATION", "0", "", "0", 0.0, "", "", "", "", "Y", 4.0, "WEEK 2", 14.0, "TREATMENT", "2014-04-01", 15.0]
["CDISCPILOT01", "QS", "01-701-1033", 3065.0, "NPITM06", "EUPHORIA/ELATION PRESENT", "NPI", "EUPHORIA/ELATION", "ABSENT", "", "0", 0.0, "", "", "", "", "", 5.0, "WEEK 4", 28.0, "TREATMENT", "2014-04-14", 28.0]
["CDISCPILOT01", "QS", "01-701-1033", 3066.0, "NPITM06S", "EUPHORIA/ELATION Score", "NPI", "EUPHORIA/ELATION", "0", "", "0", 0.0, "", "", "", "", "Y", 5.0, "WEEK 4", 28.0, "TREATMENT", "2014-04-14", 28.0]
["CDISCPILOT01", "QS", "01-701-1033", 3090.0, "NPITM06", "EUPHORIA/ELATION PRESENT", "NPI", "EUPHORIA/ELATION", "ABSENT", "", "0", 0.0, "", "", "", "", "", 201.0, "RETRIEVAL", 168.0, "TREATMENT", "2014-09-15", 182.0]
["CDISCPILOT01", "QS", "01-701-1033", 3091.0, "NPITM06S", "EUPHORIA/ELATION Score", "NPI", "EUPHORIA/ELATION", "0", "", "0", 0.0, "", "", "", "", "Y", 201.0, "RETRIEVAL", 168.0, "TREATMENT", "2014-09-15", 182.0]
["CDISCPILOT01", "QS", "01-701-1033", 3015.0, "NPITM07", "APATHY/INDIFFERENCE PRESENT", "NPI", "APATHY/INDIFFERENCE", "ABSENT", "", "0", 0.0, "", "", "", "Y", "", 3.0, "BASELINE", 1.0, "TREATMENT", "2014-03-18", 1.0]
["CDISCPILOT01", "QS", "01-701-1033", 3016.0, "NPITM07S", "APATHY/INDIFFERENCE Score", "NPI", "APATHY/INDIFFERENCE", "0", "", "0", 0.0, "", "", "", "Y", "Y", 3.0, "BASELINE", 1.0, "TREATMENT", "2014-03-18", 1.0]
["CDISCPILOT01", "QS", "01-701-1033", 3040.0, "NPITM07", "APATHY/INDIFFERENCE PRESENT", "NPI", "APATHY/INDIFFERENCE", "ABSENT", "", "0", 0.0, "", "", "", "", "", 4.0, "WEEK 2", 14.0, "TREATMENT", "2014-04-01", 15.0]
["CDISCPILOT01", "QS", "01-701-1033", 3041.0, "NPITM07S", "APATHY/INDIFFERENCE Score", "NPI", "APATHY/INDIFFERENCE", "0", "", "0", 0.0, "", "", "", "", "Y", 4.0, "WEEK 2", 14.0, "TREATMENT", "2014-04-01", 15.0]
["CDISCPILOT01", "QS", "01-701-1033", 3067.0, "NPITM07", "APATHY/INDIFFERENCE PRESENT", "NPI", "APATHY/INDIFFERENCE", "ABSENT", "", "0", 0.0, "", "", "", "", "", 5.0, "WEEK 4", 28.0, "TREATMENT", "2014-04-14", 28.0]
["CDISCPILOT01", "QS", "01-701-1033", 3068.0, "NPITM07S", "APATHY/INDIFFERENCE Score", "NPI", "APATHY/INDIFFERENCE", "0", "", "0", 0.0, "", "", "", "", "Y", 5.0, "WEEK 4", 28.0, "TREATMENT", "2014-04-14", 28.0]
["CDISCPILOT01", "QS", "01-701-1033", 3092.0, "NPITM07", "APATHY/INDIFFERENCE PRESENT", "NPI", "APATHY/INDIFFERENCE", "ABSENT", "", "0", 0.0, "", "", "", "", "", 201.0, "RETRIEVAL", 168.0, "TREATMENT", "2014-09-15", 182.0]
["CDISCPILOT01", "QS", "01-701-1033", 3093.0, "NPITM07S", "APATHY/INDIFFERENCE Score", "NPI", "APATHY/INDIFFERENCE", "0", "", "0", 0.0, "", "", "", "", "Y", 201.0, "RETRIEVAL", 168.0, "TREATMENT", "2014-09-15", 182.0]
["CDISCPILOT01", "QS", "01-701-1033", 3017.0, "NPITM08", "DISINHIBITION PRESENT", "NPI", "DISINHIBITION", "ABSENT", "", "0", 0.0, "", "", "", "Y", "", 3.0, "BASELINE", 1.0, "TREATMENT", "2014-03-18", 1.0]
["CDISCPILOT01", "QS", "01-701-1033", 3018.0, "NPITM08S", "DISINHIBITION Score", "NPI", "DISINHIBITION", "0", "", "0", 0.0, "", "", "", "Y", "Y", 3.0, "BASELINE", 1.0, "TREATMENT", "2014-03-18", 1.0]
["CDISCPILOT01", "QS", "01-701-1033", 3042.0, "NPITM08", "DISINHIBITION PRESENT", "NPI", "DISINHIBITION", "ABSENT", "", "0", 0.0, "", "", "", "", "", 4.0, "WEEK 2", 14.0, "TREATMENT", "2014-04-01", 15.0]
["CDISCPILOT01", "QS", "01-701-1033", 3043.0, "NPITM08S", "DISINHIBITION Score", "NPI", "DISINHIBITION", "0", "", "0", 0.0, "", "", "", "", "Y", 4.0, "WEEK 2", 14.0, "TREATMENT", "2014-04-01", 15.0]
["CDISCPILOT01", "QS", "01-701-1033", 3069.0, "NPITM08", "DISINHIBITION PRESENT", "NPI", "DISINHIBITION", "ABSENT", "", "0", 0.0, "", "", "", "", "", 5.0, "WEEK 4", 28.0, "TREATMENT", "2014-04-14", 28.0]
["CDISCPILOT01", "QS", "01-701-1033", 3070.0, "NPITM08S", "DISINHIBITION Score", "NPI", "DISINHIBITION", "0", "", "0", 0.0, "", "", "", "", "Y", 5.0, "WEEK 4", 28.0, "TREATMENT", "2014-04-14", 28.0]
["CDISCPILOT01", "QS", "01-701-1033", 3094.0, "NPITM08", "DISINHIBITION PRESENT", "NPI", "DISINHIBITION", "ABSENT", "", "0", 0.0, "", "", "", "", "", 201.0, "RETRIEVAL", 168.0, "TREATMENT", "2014-09-15", 182.0]
["CDISCPILOT01", "QS", "01-701-1033", 3095.0, "NPITM08S", "DISINHIBITION Score", "NPI", "DISINHIBITION", "0", "", "0", 0.0, "", "", "", "", "Y", 201.0, "RETRIEVAL", 168.0, "TREATMENT", "2014-09-15", 182.0]
["CDISCPILOT01", "QS", "01-701-1033", 3019.0, "NPITM09", "IRRITABILITY/LABILITY PRESENT", "NPI", "IRRITABILITY/LABILITY", "ABSENT", "", "0", 0.0, "", "", "", "Y", "", 3.0, "BASELINE", 1.0, "TREATMENT", "2014-03-18", 1.0]
["CDISCPILOT01", "QS", "01-701-1033", 3020.0, "NPITM09S", "IRRITABILITY/LABILITY Score", "NPI", "IRRITABILITY/LABILITY", "0", "", "0", 0.0, "", "", "", "Y", "Y", 3.0, "BASELINE", 1.0, "TREATMENT", "2014-03-18", 1.0]
["CDISCPILOT01", "QS", "01-701-1033", 3044.0, "NPITM09F", "IRRITABILITY/LABILITY FREQUENCY", "NPI", "IRRITABILITY/LABILITY", "1", "", "1", 1.0, "", "", "", "", "", 4.0, "WEEK 2", 14.0, "TREATMENT", "2014-04-01", 15.0]
["CDISCPILOT01", "QS", "01-701-1033", 3045.0, "NPITM09V", "IRRITABILITY/LABILITY SEVERITY", "NPI", "IRRITABILITY/LABILITY", "1", "", "1", 1.0, "", "", "", "", "", 4.0, "WEEK 2", 14.0, "TREATMENT", "2014-04-01", 15.0]
["CDISCPILOT01", "QS", "01-701-1033", 3046.0, "NPITM09D", "IRRITABILITY/LABILITY DISTRESS", "NPI", "IRRITABILITY/LABILITY", "1", "", "1", 1.0, "", "", "", "", "", 4.0, "WEEK 2", 14.0, "TREATMENT", "2014-04-01", 15.0]
["CDISCPILOT01", "QS", "01-701-1033", 3047.0, "NPITM09S", "IRRITABILITY/LABILITY Score", "NPI", "IRRITABILITY/LABILITY", "1", "", "1", 1.0, "", "", "", "", "Y", 4.0, "WEEK 2", 14.0, "TREATMENT", "2014-04-01", 15.0]
["CDISCPILOT01", "QS", "01-701-1033", 3071.0, "NPITM09", "IRRITABILITY/LABILITY PRESENT", "NPI", "IRRITABILITY/LABILITY", "ABSENT", "", "0", 0.0, "", "", "", "", "", 5.0, "WEEK 4", 28.0, "TREATMENT", "2014-04-14", 28.0]
["CDISCPILOT01", "QS", "01-701-1033", 3072.0, "NPITM09S", "IRRITABILITY/LABILITY Score", "NPI", "IRRITABILITY/LABILITY", "0", "", "0", 0.0, "", "", "", "", "Y", 5.0, "WEEK 4", 28.0, "TREATMENT", "2014-04-14", 28.0]
["CDISCPILOT01", "QS", "01-701-1033", 3096.0, "NPITM09", "IRRITABILITY/LABILITY PRESENT", "NPI", "IRRITABILITY/LABILITY", "ABSENT", "", "0", 0.0, "", "", "", "", "", 201.0, "RETRIEVAL", 168.0, "TREATMENT", "2014-09-15", 182.0]
["CDISCPILOT01", "QS", "01-701-1033", 3097.0, "NPITM09S", "IRRITABILITY/LABILITY Score", "NPI", "IRRITABILITY/LABILITY", "0", "", "0", 0.0, "", "", "", "", "Y", 201.0, "RETRIEVAL", 168.0, "TREATMENT", "2014-09-15", 182.0]
["CDISCPILOT01", "QS", "01-701-1033", 3021.0, "NPITM10", "ABERRANT MOTOR BEHAVIOR PRESENT", "NPI", "ABERRANT MOTOR BEHAVIOR", "ABSENT", "", "0", 0.0, "", "", "", "Y", "", 3.0, "BASELINE", 1.0, "TREATMENT", "2014-03-18", 1.0]
["CDISCPILOT01", "QS", "01-701-1033", 3022.0, "NPITM10S", "ABERRANT MOTOR BEHAVIOR Score", "NPI", "ABERRANT MOTOR BEHAVIOR", "0", "", "0", 0.0, "", "", "", "Y", "Y", 3.0, "BASELINE", 1.0, "TREATMENT", "2014-03-18", 1.0]
["CDISCPILOT01", "QS", "01-701-1033", 3048.0, "NPITM10", "ABERRANT MOTOR BEHAVIOR PRESENT", "NPI", "ABERRANT MOTOR BEHAVIOR", "ABSENT", "", "0", 0.0, "", "", "", "", "", 4.0, "WEEK 2", 14.0, "TREATMENT", "2014-04-01", 15.0]
["CDISCPILOT01", "QS", "01-701-1033", 3049.0, "NPITM10S", "ABERRANT MOTOR BEHAVIOR Score", "NPI", "ABERRANT MOTOR BEHAVIOR", "0", "", "0", 0.0, "", "", "", "", "Y", 4.0, "WEEK 2", 14.0, "TREATMENT", "2014-04-01", 15.0]
["CDISCPILOT01", "QS", "01-701-1033", 3073.0, "NPITM10", "ABERRANT MOTOR BEHAVIOR PRESENT", "NPI", "ABERRANT MOTOR BEHAVIOR", "ABSENT", "", "0", 0.0, "", "", "", "", "", 5.0, "WEEK 4", 28.0, "TREATMENT", "2014-04-14", 28.0]
["CDISCPILOT01", "QS", "01-701-1033", 3074.0, "NPITM10S", "ABERRANT MOTOR BEHAVIOR Score", "NPI", "ABERRANT MOTOR BEHAVIOR", "0", "", "0", 0.0, "", "", "", "", "Y", 5.0, "WEEK 4", 28.0, "TREATMENT", "2014-04-14", 28.0]
["CDISCPILOT01", "QS", "01-701-1033", 3098.0, "NPITM10", "ABERRANT MOTOR BEHAVIOR PRESENT", "NPI", "ABERRANT MOTOR BEHAVIOR", "ABSENT", "", "0", 0.0, "", "", "", "", "", 201.0, "RETRIEVAL", 168.0, "TREATMENT", "2014-09-15", 182.0]
["CDISCPILOT01", "QS", "01-701-1033", 3099.0, "NPITM10S", "ABERRANT MOTOR BEHAVIOR Score", "NPI", "ABERRANT MOTOR BEHAVIOR", "0", "", "0", 0.0, "", "", "", "", "Y", 201.0, "RETRIEVAL", 168.0, "TREATMENT", "2014-09-15", 182.0]
["CDISCPILOT01", "QS", "01-701-1033", 3023.0, "NPITM11", "NIGHT-TIME BEHAVIOR PRESENT", "NPI", "NIGHT-TIME BEHAVIOR", "ABSENT", "", "0", 0.0, "", "", "", "Y", "", 3.0, "BASELINE", 1.0, "TREATMENT", "2014-03-18", 1.0]
["CDISCPILOT01", "QS", "01-701-1033", 3024.0, "NPITM11S", "NIGHT-TIME BEHAVIOR Score", "NPI", "NIGHT-TIME BEHAVIOR", "0", "", "0", 0.0, "", "", "", "Y", "Y", 3.0, "BASELINE", 1.0, "TREATMENT", "2014-03-18", 1.0]
["CDISCPILOT01", "QS", "01-701-1033", 3050.0, "NPITM11", "NIGHT-TIME BEHAVIOR PRESENT", "NPI", "NIGHT-TIME BEHAVIOR", "ABSENT", "", "0", 0.0, "", "", "", "", "", 4.0, "WEEK 2", 14.0, "TREATMENT", "2014-04-01", 15.0]
["CDISCPILOT01", "QS", "01-701-1033", 3051.0, "NPITM11S", "NIGHT-TIME BEHAVIOR Score", "NPI", "NIGHT-TIME BEHAVIOR", "0", "", "0", 0.0, "", "", "", "", "Y", 4.0, "WEEK 2", 14.0, "TREATMENT", "2014-04-01", 15.0]
["CDISCPILOT01", "QS", "01-701-1033", 3075.0, "NPITM11", "NIGHT-TIME BEHAVIOR PRESENT", "NPI", "NIGHT-TIME BEHAVIOR", "ABSENT", "", "0", 0.0, "", "", "", "", "", 5.0, "WEEK 4", 28.0, "TREATMENT", "2014-04-14", 28.0]
["CDISCPILOT01", "QS", "01-701-1033", 3076.0, "NPITM11S", "NIGHT-TIME BEHAVIOR Score", "NPI", "NIGHT-TIME BEHAVIOR", "0", "", "0", 0.0, "", "", "", "", "Y", 5.0, "WEEK 4", 28.0, "TREATMENT", "2014-04-14", 28.0]
["CDISCPILOT01", "QS", "01-701-1033", 3100.0, "NPITM11", "NIGHT-TIME BEHAVIOR PRESENT", "NPI", "NIGHT-TIME BEHAVIOR", "ABSENT", "", "0", 0.0, "", "", "", "", "", 201.0, "RETRIEVAL", 168.0, "TREATMENT", "2014-09-15", 182.0]
["CDISCPILOT01", "QS", "01-701-1033", 3101.0, "NPITM11S", "NIGHT-TIME BEHAVIOR Score", "NPI", "NIGHT-TIME BEHAVIOR", "0", "", "0", 0.0, "", "", "", "", "Y", 201.0, "RETRIEVAL", 168.0, "TREATMENT", "2014-09-15", 182.0]
["CDISCPILOT01", "QS", "01-701-1033", 3025.0, "NPITM12", "APPETITE/EATING CHANGE PRESENT", "NPI", "APPETITE/EATING CHANGE", "ABSENT", "", "0", 0.0, "", "", "", "Y", "", 3.0, "BASELINE", 1.0, "TREATMENT", "2014-03-18", 1.0]
["CDISCPILOT01", "QS", "01-701-1033", 3026.0, "NPITM12S", "APPETITE/EATING CHANGE Score", "NPI", "APPETITE/EATING CHANGE", "0", "", "0", 0.0, "", "", "", "Y", "Y", 3.0, "BASELINE", 1.0, "TREATMENT", "2014-03-18", 1.0]
["CDISCPILOT01", "QS", "01-701-1033", 3052.0, "NPITM12", "APPETITE/EATING CHANGE PRESENT", "NPI", "APPETITE/EATING CHANGE", "ABSENT", "", "0", 0.0, "", "", "", "", "", 4.0, "WEEK 2", 14.0, "TREATMENT", "2014-04-01", 15.0]
["CDISCPILOT01", "QS", "01-701-1033", 3053.0, "NPITM12S", "APPETITE/EATING CHANGE Score", "NPI", "APPETITE/EATING CHANGE", "0", "", "0", 0.0, "", "", "", "", "Y", 4.0, "WEEK 2", 14.0, "TREATMENT", "2014-04-01", 15.0]
["CDISCPILOT01", "QS", "01-701-1033", 3077.0, "NPITM12", "APPETITE/EATING CHANGE PRESENT", "NPI", "APPETITE/EATING CHANGE", "ABSENT", "", "0", 0.0, "", "", "", "", "", 5.0, "WEEK 4", 28.0, "TREATMENT", "2014-04-14", 28.0]
["CDISCPILOT01", "QS", "01-701-1033", 3078.0, "NPITM12S", "APPETITE/EATING CHANGE Score", "NPI", "APPETITE/EATING CHANGE", "0", "", "0", 0.0, "", "", "", "", "Y", 5.0, "WEEK 4", 28.0, "TREATMENT", "2014-04-14", 28.0]
["CDISCPILOT01", "QS", "01-701-1033", 3102.0, "NPITM12", "APPETITE/EATING CHANGE PRESENT", "NPI", "APPETITE/EATING CHANGE", "ABSENT", "", "0", 0.0, "", "", "", "", "", 201.0, "RETRIEVAL", 168.0, "TREATMENT", "2014-09-15", 182.0]
["CDISCPILOT01", "QS", "01-701-1033", 3103.0, "NPITM12S", "APPETITE/EATING CHANGE Score", "NPI", "APPETITE/EATING CHANGE", "0", "", "0", 0.0, "", "", "", "", "Y", 201.0, "RETRIEVAL", 168.0, "TREATMENT", "2014-09-15", 182.0]
["CDISCPILOT01", "QS", "01-701-1033", 3027.0, "NPTOT", "NPI-X (9) Total Score", "NPI", "APPETITE/EATING CHANGE", "", "", "1", 1.0, "", "", "", "Y", "Y", 3.0, "BASELINE", 1.0, "TREATMENT", "2014-03-18", 1.0]
["CDISCPILOT01", "QS", "01-701-1033", 3054.0, "NPTOT", "NPI-X (9) Total Score", "NPI", "APPETITE/EATING CHANGE", "", "", "1", 1.0, "", "", "", "", "Y", 4.0, "WEEK 2", 14.0, "TREATMENT", "2014-04-01", 15.0]
["CDISCPILOT01", "QS", "01-701-1033", 3079.0, "NPTOT", "NPI-X (9) Total Score", "NPI", "APPETITE/EATING CHANGE", "", "", "0", 0.0, "", "", "", "", "Y", 5.0, "WEEK 4", 28.0, "TREATMENT", "2014-04-14", 28.0]
["CDISCPILOT01", "QS", "01-701-1033", 3104.0, "NPTOT", "NPI-X (9) Total Score", "NPI", "APPETITE/EATING CHANGE", "", "", "0", 0.0, "", "", "", "", "Y", 201.0, "RETRIEVAL", 168.0, "TREATMENT", "2014-09-15", 182.0]
["CDISCPILOT01", "QS", "01-701-1034", 3001.0, "NPITM01", "DELUSIONS PRESENT", "NPI", "DELUSIONS", "ABSENT", "", "0", 0.0, "", "", "", "Y", "", 3.0, "BASELINE", 1.0, "TREATMENT", "2014-07-01", 1.0]
["CDISCPILOT01", "QS", "01-701-1034", 3002.0, "NPITM01S", "DELUSIONS Score", "NPI", "DELUSIONS", "0", "", "0", 0.0, "", "", "", "Y", "Y", 3.0, "BASELINE", 1.0, "TREATMENT", "2014-07-01", 1.0]
["CDISCPILOT01", "QS", "01-701-1034", 3026.0, "NPITM01", "DELUSIONS PRESENT", "NPI", "DELUSIONS", "ABSENT", "", "0", 0.0, "", "", "", "", "", 4.0, "WEEK 2", 14.0, "TREATMENT", "2014-07-15", 15.0]
["CDISCPILOT01", "QS", "01-701-1034", 3027.0, "NPITM01S", "DELUSIONS Score", "NPI", "DELUSIONS", "0", "", "0", 0.0, "", "", "", "", "Y", 4.0, "WEEK 2", 14.0, "TREATMENT", "2014-07-15", 15.0]
["CDISCPILOT01", "QS", "01-701-1034", 3051.0, "NPITM01", "DELUSIONS PRESENT", "NPI", "DELUSIONS", "ABSENT", "", "0", 0.0, "", "", "", "", "", 5.0, "WEEK 4", 28.0, "TREATMENT", "2014-07-29", 29.0]
["CDISCPILOT01", "QS", "01-701-1034", 3052.0, "NPITM01S", "DELUSIONS Score", "NPI", "DELUSIONS", "0", "", "0", 0.0, "", "", "", "", "Y", 5.0, "WEEK 4", 28.0, "TREATMENT", "2014-07-29", 29.0]
["CDISCPILOT01", "QS", "01-701-1034", 3082.0, "NPITM01", "DELUSIONS PRESENT", "NPI", "DELUSIONS", "ABSENT", "", "0", 0.0, "", "", "", "", "", 7.0, "WEEK 6", 42.0, "TREATMENT", "2014-08-11", 42.0]
["CDISCPILOT01", "QS", "01-701-1034", 3083.0, "NPITM01S", "DELUSIONS Score", "NPI", "DELUSIONS", "0", "", "0", 0.0, "", "", "", "", "Y", 7.0, "WEEK 6", 42.0, "TREATMENT", "2014-08-11", 42.0]
["CDISCPILOT01", "QS", "01-701-1034", 3113.0, "NPITM01", "DELUSIONS PRESENT", "NPI", "DELUSIONS", "ABSENT", "", "0", 0.0, "", "", "", "", "", 8.0, "WEEK 8", 56.0, "TREATMENT", "2014-08-26", 57.0]
["CDISCPILOT01", "QS", "01-701-1034", 3114.0, "NPITM01S", "DELUSIONS Score", "NPI", "DELUSIONS", "0", "", "0", 0.0, "", "", "", "", "Y", 8.0, "WEEK 8", 56.0, "TREATMENT", "2014-08-26", 57.0]
["CDISCPILOT01", "QS", "01-701-1034", 3138.0, "NPITM01F", "DELUSIONS FREQUENCY", "NPI", "DELUSIONS", "1", "", "1", 1.0, "", "", "", "", "", 8.1, "WEEK 10 (T)", 70.0, "TREATMENT", "2014-09-09", 71.0]
["CDISCPILOT01", "QS", "01-701-1034", 3139.0, "NPITM01V", "DELUSIONS SEVERITY", "NPI", "DELUSIONS", "1", "", "1", 1.0, "", "", "", "", "", 8.1, "WEEK 10 (T)", 70.0, "TREATMENT", "2014-09-09", 71.0]
["CDISCPILOT01", "QS", "01-701-1034", 3140.0, "NPITM01D", "DELUSIONS DISTRESS", "NPI", "DELUSIONS", "1", "", "1", 1.0, "", "", "", "", "", 8.1, "WEEK 10 (T)", 70.0, "TREATMENT", "2014-09-09", 71.0]
["CDISCPILOT01", "QS", "01-701-1034", 3141.0, "NPITM01S", "DELUSIONS Score", "NPI", "DELUSIONS", "1", "", "1", 1.0, "", "", "", "", "Y", 8.1, "WEEK 10 (T)", 70.0, "TREATMENT", "2014-09-09", 71.0]
["CDISCPILOT01", "QS", "01-701-1034", 3165.0, "NPITM01", "DELUSIONS PRESENT", "NPI", "DELUSIONS", "ABSENT", "", "0", 0.0, "", "", "", "", "", 9.0, "WEEK 12", 84.0, "TREATMENT", "2014-09-25", 87.0]
["CDISCPILOT01", "QS", "01-701-1034", 3166.0, "NPITM01S", "DELUSIONS Score", "NPI", "DELUSIONS", "0", "", "0", 0.0, "", "", "", "", "Y", 9.0, "WEEK 12", 84.0, "TREATMENT", "2014-09-25", 87.0]
["CDISCPILOT01", "QS", "01-701-1034", 3190.0, "NPITM01", "DELUSIONS PRESENT", "NPI", "DELUSIONS", "ABSENT", "", "0", 0.0, "", "", "", "", "", 9.1, "WEEK 14 (T)", 98.0, "TREATMENT", "2014-10-07", 99.0]
["CDISCPILOT01", "QS", "01-701-1034", 3191.0, "NPITM01S", "DELUSIONS Score", "NPI", "DELUSIONS", "0", "", "0", 0.0, "", "", "", "", "Y", 9.1, "WEEK 14 (T)", 98.0, "TREATMENT", "2014-10-07", 99.0]
["CDISCPILOT01", "QS", "01-701-1034", 3215.0, "NPITM01", "DELUSIONS PRESENT", "NPI", "DELUSIONS", "ABSENT", "", "0", 0.0, "", "", "", "", "", 10.0, "WEEK 16", 112.0, "TREATMENT", "2014-10-21", 113.0]
["CDISCPILOT01", "QS", "01-701-1034", 3216.0, "NPITM01S", "DELUSIONS Score", "NPI", "DELUSIONS", "0", "", "0", 0.0, "", "", "", "", "Y", 10.0, "WEEK 16", 112.0, "TREATMENT", "2014-10-21", 113.0]
["CDISCPILOT01", "QS", "01-701-1034", 3240.0, "NPITM01", "DELUSIONS PRESENT", "NPI", "DELUSIONS", "ABSENT", "", "0", 0.0, "", "", "", "", "", 10.1, "WEEK 18 (T)", 126.0, "TREATMENT", "2014-11-04", 127.0]
["CDISCPILOT01", "QS", "01-701-1034", 3241.0, "NPITM01S", "DELUSIONS Score", "NPI", "DELUSIONS", "0", "", "0", 0.0, "", "", "", "", "Y", 10.1, "WEEK 18 (T)", 126.0, "TREATMENT", "2014-11-04", 127.0]
["CDISCPILOT01", "QS", "01-701-1034", 3271.0, "NPITM01", "DELUSIONS PRESENT", "NPI", "DELUSIONS", "ABSENT", "", "0", 0.0, "", "", "", "", "", 11.0, "WEEK 20", 140.0, "TREATMENT", "2014-11-18", 141.0]
