{"datasetJSONCreationDateTime": "2025-10-13T16:15:24", "datasetJSONVersion": "1.1.0", "itemGroupOID": "{SUPPDS", "records": 3, "name": "SUPPDS", "label": "SUPPDS", "columns": [{"itemOID": "IT.STUDYID", "name": "STUDYID", "label": "Study Identifier", "dataType": "string"}, {"itemOID": "IT.RDOMAIN", "name": "RDOMAIN", "label": "Related Domain Abbreviation", "dataType": "string"}, {"itemOID": "IT.USUBJID", "name": "USUBJID", "label": "Unique Subject Identifier", "dataType": "string"}, {"itemOID": "IT.IDVAR", "name": "IDVAR", "label": "Identifying Variable", "dataType": "string"}, {"itemOID": "IT.IDVARVAL", "name": "IDVARVAL", "label": "Identifying Variable Value", "dataType": "string"}, {"itemOID": "IT.QNAM", "name": "QNAM", "label": "Qualifier Variable Name", "dataType": "string"}, {"itemOID": "IT.QLABEL", "name": "QLABEL", "label": "Qualifier Variable Label", "dataType": "string"}, {"itemOID": "IT.QVAL", "name": "QVAL", "label": "Data Value", "dataType": "string"}, {"itemOID": "IT.QORIG", "name": "QORIG", "label": "Origin", "dataType": "string"}, {"itemOID": "IT.QEVAL", "name": "QEVAL", "label": "Evaluator", "dataType": "string"}]}
["CDISCPILOT01", "DS", "01-703-1175", "DSSEQ", "1", "ENTCRIT", "PROTOCOL ENTRY CRITERIA NOT MET", "16", "CRF", ""]
["CDISCPILOT01", "DS", "01-705-1382", "DSSEQ", "1", "ENTCRIT", "PROTOCOL ENTRY CRITERIA NOT MET", "25", "CRF", ""]
["CDISCPILOT01", "DS", "01-708-1372", "DSSEQ", "1", "ENTCRIT", "PROTOCOL ENTRY CRITERIA NOT MET", "16", "CRF", ""]
