{"datasetJSONCreationDateTime": "2025-10-13T16:15:27", "datasetJSONVersion": "1.1.0", "itemGroupOID": "{VS", "records": 29643, "name": "VS", "label": "VS", "columns": [{"itemOID": "IT.STUDYID", "name": "STUDYID", "label": "Study Identifier", "dataType": "string"}, {"itemOID": "IT.DOMAIN", "name": "DOMAIN", "label": "Domain Abbreviation", "dataType": "string"}, {"itemOID": "IT.USUBJID", "name": "USUBJID", "label": "Unique Subject Identifier", "dataType": "string"}, {"itemOID": "IT.VSSEQ", "name": "VSSEQ", "label": "Sequence Number", "dataType": "double"}, {"itemOID": "IT.VSTESTCD", "name": "VSTESTCD", "label": "Vital Signs Test Short Name", "dataType": "string"}, {"itemOID": "IT.VSTEST", "name": "VSTEST", "label": "Vital Signs Test Name", "dataType": "string"}, {"itemOID": "IT.VSPOS", "name": "VSPOS", "label": "Vital Signs Position of Subject", "dataType": "string"}, {"itemOID": "IT.VSORRES", "name": "VSORRES", "label": "Result or Finding in Original Units", "dataType": "string"}, {"itemOID": "IT.VSORRESU", "name": "VSORRESU", "label": "Original Units", "dataType": "string"}, {"itemOID": "IT.VSSTRESC", "name": "VSSTRESC", "label": "Character Result/Finding in Std Format", "dataType": "string"}, {"itemOID": "IT.VSSTRESN", "name": "VSSTRESN", "label": "Numeric Result/Finding in Standard Units", "dataType": "double"}, {"itemOID": "IT.VSSTRESU", "name": "VSSTRESU", "label": "Standard Units", "dataType": "string"}, {"itemOID": "IT.VSSTAT", "name": "VSSTAT", "label": "Completion Status", "dataType": "string"}, {"itemOID": "IT.VSLOC", "name": "VSLOC", "label": "Location of Vital Signs Measurement", "dataType": "string"}, {"itemOID": "IT.VSBLFL", "name": "VSBLFL", "label": "Baseline Flag", "dataType": "string"}, {"itemOID": "IT.VISITNUM", "name": "VISITNUM", "label": "Visit Number", "dataType": "double"}, {"itemOID": "IT.VISIT", "name": "VISIT", "label": "Visit Name", "dataType": "string"}, {"itemOID": "IT.VISITDY", "name": "VISITDY", "label": "Planned Study Day of Visit", "dataType": "double"}, {"itemOID": "IT.EPOCH", "name": "EPOCH", "label": "Epoch", "dataType": "string"}, {"itemOID": "IT.VSDTC", "name": "VSDTC", "label": "Date/Time of Measurements", "dataType": "string"}, {"itemOID": "IT.VSDY", "name": "VSDY", "label": "Study Day of Vital Signs", "dataType": "double"}, {"itemOID": "IT.VSTPT", "name": "VSTPT", "label": "Planned Time Point Name", "dataType": "string"}, {"itemOID": "IT.VSTPTNUM", "name": "VSTPTNUM", "label": "Planned Time Point Number", "dataType": "double"}, {"itemOID": "IT.VSELTM", "name": "VSELTM", "label": "Planned Elapsed Time from Time Point Ref", "dataType": "string"}, {"itemOID": "IT.VSTPTREF", "name": "VSTPTREF", "label": "Time Point Reference", "dataType": "string"}]}
["CDISCPILOT01", "VS", "01-701-1015", 1.0, "DIABP", "Diastolic Blood Pressure", "SUPINE", "64", "mmHg", "64", 64.0, "mmHg", "", "", "", 1.0, "SCREENING 1", -7.0, "SCREENING", "2013-12-26", -7.0, "AFTER LYING DOWN FOR 5 MINUTES", 815.0, "PT5M", "PATIENT SUPINE"]
["CDISCPILOT01", "VS", "01-701-1015", 2.0, "DIABP", "Diastolic Blood Pressure", "STANDING", "83", "mmHg", "83", 83.0, "mmHg", "", "", "", 1.0, "SCREENING 1", -7.0, "SCREENING", "2013-12-26", -7.0, "AFTER STANDING FOR 1 MINUTE", 816.0, "PT1M", "PATIENT STANDING"]
["CDISCPILOT01", "VS", "01-701-1015", 3.0, "DIABP", "Diastolic Blood Pressure", "STANDING", "57", "mmHg", "57", 57.0, "mmHg", "", "", "", 1.0, "SCREENING 1", -7.0, "SCREENING", "2013-12-26", -7.0, "AFTER STANDING FOR 3 MINUTES", 817.0, "PT3M", "PATIENT STANDING"]
["CDISCPILOT01", "VS", "01-701-1015", 4.0, "DIABP", "Diastolic Blood Pressure", "SUPINE", "68", "mmHg", "68", 68.0, "mmHg", "", "", "", 2.0, "SCREENING 2", -1.0, "SCREENING", "2013-12-31", -2.0, "AFTER LYING DOWN FOR 5 MINUTES", 815.0, "PT5M", "PATIENT SUPINE"]
["CDISCPILOT01", "VS", "01-701-1015", 5.0, "DIABP", "Diastolic Blood Pressure", "STANDING", "59", "mmHg", "59", 59.0, "mmHg", "", "", "", 2.0, "SCREENING 2", -1.0, "SCREENING", "2013-12-31", -2.0, "AFTER STANDING FOR 1 MINUTE", 816.0, "PT1M", "PATIENT STANDING"]
["CDISCPILOT01", "VS", "01-701-1015", 6.0, "DIABP", "Diastolic Blood Pressure", "STANDING", "71", "mmHg", "71", 71.0, "mmHg", "", "", "", 2.0, "SCREENING 2", -1.0, "SCREENING", "2013-12-31", -2.0, "AFTER STANDING FOR 3 MINUTES", 817.0, "PT3M", "PATIENT STANDING"]
["CDISCPILOT01", "VS", "01-701-1015", 7.0, "DIABP", "Diastolic Blood Pressure", "SUPINE", "56", "mmHg", "56", 56.0, "mmHg", "", "", "Y", 3.0, "BASELINE", 1.0, "TREATMENT", "2014-01-02", 1.0, "AFTER LYING DOWN FOR 5 MINUTES", 815.0, "PT5M", "PATIENT SUPINE"]
["CDISCPILOT01", "VS", "01-701-1015", 8.0, "DIABP", "Diastolic Blood Pressure", "STANDING", "51", "mmHg", "51", 51.0, "mmHg", "", "", "Y", 3.0, "BASELINE", 1.0, "TREATMENT", "2014-01-02", 1.0, "AFTER STANDING FOR 1 MINUTE", 816.0, "PT1M", "PATIENT STANDING"]
["CDISCPILOT01", "VS", "01-701-1015", 9.0, "DIABP", "Diastolic Blood Pressure", "STANDING", "61", "mmHg", "61", 61.0, "mmHg", "", "", "Y", 3.0, "BASELINE", 1.0, "TREATMENT", "2014-01-02", 1.0, "AFTER STANDING FOR 3 MINUTES", 817.0, "PT3M", "PATIENT STANDING"]
["CDISCPILOT01", "VS", "01-701-1015", 10.0, "DIABP", "Diastolic Blood Pressure", "SUPINE", "67", "mmHg", "67", 67.0, "mmHg", "", "", "", 3.5, "AMBUL ECG PLACEMENT", 13.0, "TREATMENT", "2014-01-14", 13.0, "AFTER LYING DOWN FOR 5 MINUTES", 815.0, "PT5M", "PATIENT SUPINE"]
["CDISCPILOT01", "VS", "01-701-1015", 11.0, "DIABP", "Diastolic Blood Pressure", "STANDING", "61", "mmHg", "61", 61.0, "mmHg", "", "", "", 3.5, "AMBUL ECG PLACEMENT", 13.0, "TREATMENT", "2014-01-14", 13.0, "AFTER STANDING FOR 1 MINUTE", 816.0, "PT1M", "PATIENT STANDING"]
["CDISCPILOT01", "VS", "01-701-1015", 12.0, "DIABP", "Diastolic Blood Pressure", "STANDING", "65", "mmHg", "65", 65.0, "mmHg", "", "", "", 3.5, "AMBUL ECG PLACEMENT", 13.0, "TREATMENT", "2014-01-14", 13.0, "AFTER STANDING FOR 3 MINUTES", 817.0, "PT3M", "PATIENT STANDING"]
["CDISCPILOT01", "VS", "01-701-1015", 13.0, "DIABP", "Diastolic Blood Pressure", "SUPINE", "56", "mmHg", "56", 56.0, "mmHg", "", "", "", 4.0, "WEEK 2", 14.0, "TREATMENT", "2014-01-16", 15.0, "AFTER LYING DOWN FOR 5 MINUTES", 815.0, "PT5M", "PATIENT SUPINE"]
["CDISCPILOT01", "VS", "01-701-1015", 14.0, "DIABP", "Diastolic Blood Pressure", "STANDING", "50", "mmHg", "50", 50.0, "mmHg", "", "", "", 4.0, "WEEK 2", 14.0, "TREATMENT", "2014-01-16", 15.0, "AFTER STANDING FOR 1 MINUTE", 816.0, "PT1M", "PATIENT STANDING"]
["CDISCPILOT01", "VS", "01-701-1015", 15.0, "DIABP", "Diastolic Blood Pressure", "STANDING", "54", "mmHg", "54", 54.0, "mmHg", "", "", "", 4.0, "WEEK 2", 14.0, "TREATMENT", "2014-01-16", 15.0, "AFTER STANDING FOR 3 MINUTES", 817.0, "PT3M", "PATIENT STANDING"]
["CDISCPILOT01", "VS", "01-701-1015", 16.0, "DIABP", "Diastolic Blood Pressure", "SUPINE", "64", "mmHg", "64", 64.0, "mmHg", "", "", "", 5.0, "WEEK 4", 28.0, "TREATMENT", "2014-01-30", 29.0, "AFTER LYING DOWN FOR 5 MINUTES", 815.0, "PT5M", "PATIENT SUPINE"]
["CDISCPILOT01", "VS", "01-701-1015", 17.0, "DIABP", "Diastolic Blood Pressure", "STANDING", "55", "mmHg", "55", 55.0, "mmHg", "", "", "", 5.0, "WEEK 4", 28.0, "TREATMENT", "2014-01-30", 29.0, "AFTER STANDING FOR 1 MINUTE", 816.0, "PT1M", "PATIENT STANDING"]
["CDISCPILOT01", "VS", "01-701-1015", 18.0, "DIABP", "Diastolic Blood Pressure", "STANDING", "53", "mmHg", "53", 53.0, "mmHg", "", "", "", 5.0, "WEEK 4", 28.0, "TREATMENT", "2014-01-30", 29.0, "AFTER STANDING FOR 3 MINUTES", 817.0, "PT3M", "PATIENT STANDING"]
["CDISCPILOT01", "VS", "01-701-1015", 19.0, "DIABP", "Diastolic Blood Pressure", "SUPINE", "72", "mmHg", "72", 72.0, "mmHg", "", "", "", 6.0, "AMBUL ECG REMOVAL", 30.0, "TREATMENT", "2014-02-01", 31.0, "AFTER LYING DOWN FOR 5 MINUTES", 815.0, "PT5M", "PATIENT SUPINE"]
["CDISCPILOT01", "VS", "01-701-1015", 20.0, "DIABP", "Diastolic Blood Pressure", "STANDING", "61", "mmHg", "61", 61.0, "mmHg", "", "", "", 6.0, "AMBUL ECG REMOVAL", 30.0, "TREATMENT", "2014-02-01", 31.0, "AFTER STANDING FOR 1 MINUTE", 816.0, "PT1M", "PATIENT STANDING"]
["CDISCPILOT01", "VS", "01-701-1015", 21.0, "DIABP", "Diastolic Blood Pressure", "STANDING", "53", "mmHg", "53", 53.0, "mmHg", "", "", "", 6.0, "AMBUL ECG REMOVAL", 30.0, "TREATMENT", "2014-02-01", 31.0, "AFTER STANDING FOR 3 MINUTES", 817.0, "PT3M", "PATIENT STANDING"]
["CDISCPILOT01", "VS", "01-701-1015", 22.0, "DIABP", "Diastolic Blood Pressure", "SUPINE", "55", "mmHg", "55", 55.0, "mmHg", "", "", "", 7.0, "WEEK 6", 42.0, "TREATMENT", "2014-02-12", 42.0, "AFTER LYING DOWN FOR 5 MINUTES", 815.0, "PT5M", "PATIENT SUPINE"]
["CDISCPILOT01", "VS", "01-701-1015", 23.0, "DIABP", "Diastolic Blood Pressure", "STANDING", "63", "mmHg", "63", 63.0, "mmHg", "", "", "", 7.0, "WEEK 6", 42.0, "TREATMENT", "2014-02-12", 42.0, "AFTER STANDING FOR 1 MINUTE", 816.0, "PT1M", "PATIENT STANDING"]
["CDISCPILOT01", "VS", "01-701-1015", 24.0, "DIABP", "Diastolic Blood Pressure", "STANDING", "60", "mmHg", "60", 60.0, "mmHg", "", "", "", 7.0, "WEEK 6", 42.0, "TREATMENT", "2014-02-12", 42.0, "AFTER STANDING FOR 3 MINUTES", 817.0, "PT3M", "PATIENT STANDING"]
["CDISCPILOT01", "VS", "01-701-1015", 25.0, "DIABP", "Diastolic Blood Pressure", "SUPINE", "67", "mmHg", "67", 67.0, "mmHg", "", "", "", 8.0, "WEEK 8", 56.0, "TREATMENT", "2014-03-05", 63.0, "AFTER LYING DOWN FOR 5 MINUTES", 815.0, "PT5M", "PATIENT SUPINE"]
["CDISCPILOT01", "VS", "01-701-1015", 26.0, "DIABP", "Diastolic Blood Pressure", "STANDING", "62", "mmHg", "62", 62.0, "mmHg", "", "", "", 8.0, "WEEK 8", 56.0, "TREATMENT", "2014-03-05", 63.0, "AFTER STANDING FOR 1 MINUTE", 816.0, "PT1M", "PATIENT STANDING"]
["CDISCPILOT01", "VS", "01-701-1015", 27.0, "DIABP", "Diastolic Blood Pressure", "STANDING", "71", "mmHg", "71", 71.0, "mmHg", "", "", "", 8.0, "WEEK 8", 56.0, "TREATMENT", "2014-03-05", 63.0, "AFTER STANDING FOR 3 MINUTES", 817.0, "PT3M", "PATIENT STANDING"]
["CDISCPILOT01", "VS", "01-701-1015", 28.0, "DIABP", "Diastolic Blood Pressure", "SUPINE", "68", "mmHg", "68", 68.0, "mmHg", "", "", "", 9.0, "WEEK 12", 84.0, "TREATMENT", "2014-03-26", 84.0, "AFTER LYING DOWN FOR 5 MINUTES", 815.0, "PT5M", "PATIENT SUPINE"]
["CDISCPILOT01", "VS", "01-701-1015", 29.0, "DIABP", "Diastolic Blood Pressure", "STANDING", "60", "mmHg", "60", 60.0, "mmHg", "", "", "", 9.0, "WEEK 12", 84.0, "TREATMENT", "2014-03-26", 84.0, "AFTER STANDING FOR 1 MINUTE", 816.0, "PT1M", "PATIENT STANDING"]
["CDISCPILOT01", "VS", "01-701-1015", 30.0, "DIABP", "Diastolic Blood Pressure", "STANDING", "64", "mmHg", "64", 64.0, "mmHg", "", "", "", 9.0, "WEEK 12", 84.0, "TREATMENT", "2014-03-26", 84.0, "AFTER STANDING FOR 3 MINUTES", 817.0, "PT3M", "PATIENT STANDING"]
["CDISCPILOT01", "VS", "01-701-1015", 31.0, "DIABP", "Diastolic Blood Pressure", "SUPINE", "66", "mmHg", "66", 66.0, "mmHg", "", "", "", 10.0, "WEEK 16", 112.0, "TREATMENT", "2014-05-07", 126.0, "AFTER LYING DOWN FOR 5 MINUTES", 815.0, "PT5M", "PATIENT SUPINE"]
["CDISCPILOT01", "VS", "01-701-1015", 32.0, "DIABP", "Diastolic Blood Pressure", "STANDING", "68", "mmHg", "68", 68.0, "mmHg", "", "", "", 10.0, "WEEK 16", 112.0, "TREATMENT", "2014-05-07", 126.0, "AFTER STANDING FOR 1 MINUTE", 816.0, "PT1M", "PATIENT STANDING"]
["CDISCPILOT01", "VS", "01-701-1015", 33.0, "DIABP", "Diastolic Blood Pressure", "STANDING", "66", "mmHg", "66", 66.0, "mmHg", "", "", "", 10.0, "WEEK 16", 112.0, "TREATMENT", "2014-05-07", 126.0, "AFTER STANDING FOR 3 MINUTES", 817.0, "PT3M", "PATIENT STANDING"]
["CDISCPILOT01", "VS", "01-701-1015", 34.0, "DIABP", "Diastolic Blood Pressure", "SUPINE", "67", "mmHg", "67", 67.0, "mmHg", "", "", "", 11.0, "WEEK 20", 140.0, "TREATMENT", "2014-05-21", 140.0, "AFTER LYING DOWN FOR 5 MINUTES", 815.0, "PT5M", "PATIENT SUPINE"]
["CDISCPILOT01", "VS", "01-701-1015", 35.0, "DIABP", "Diastolic Blood Pressure", "STANDING", "65", "mmHg", "65", 65.0, "mmHg", "", "", "", 11.0, "WEEK 20", 140.0, "TREATMENT", "2014-05-21", 140.0, "AFTER STANDING FOR 1 MINUTE", 816.0, "PT1M", "PATIENT STANDING"]
["CDISCPILOT01", "VS", "01-701-1015", 36.0, "DIABP", "Diastolic Blood Pressure", "STANDING", "63", "mmHg", "63", 63.0, "mmHg", "", "", "", 11.0, "WEEK 20", 140.0, "TREATMENT", "2014-05-21", 140.0, "AFTER STANDING FOR 3 MINUTES", 817.0, "PT3M", "PATIENT STANDING"]
["CDISCPILOT01", "VS", "01-701-1015", 37.0, "DIABP", "Diastolic Blood Pressure", "SUPINE", "63", "mmHg", "63", 63.0, "mmHg", "", "", "", 12.0, "WEEK 24", 168.0, "TREATMENT", "2014-06-18", 168.0, "AFTER LYING DOWN FOR 5 MINUTES", 815.0, "PT5M", "PATIENT SUPINE"]
["CDISCPILOT01", "VS", "01-701-1015", 38.0, "DIABP", "Diastolic Blood Pressure", "STANDING", "57", "mmHg", "57", 57.0, "mmHg", "", "", "", 12.0, "WEEK 24", 168.0, "TREATMENT", "2014-06-18", 168.0, "AFTER STANDING FOR 1 MINUTE", 816.0, "PT1M", "PATIENT STANDING"]
["CDISCPILOT01", "VS", "01-701-1015", 39.0, "DIABP", "Diastolic Blood Pressure", "STANDING", "71", "mmHg", "71", 71.0, "mmHg", "", "", "", 12.0, "WEEK 24", 168.0, "TREATMENT", "2014-06-18", 168.0, "AFTER STANDING FOR 3 MINUTES", 817.0, "PT3M", "PATIENT STANDING"]
["CDISCPILOT01", "VS", "01-701-1015", 40.0, "DIABP", "Diastolic Blood Pressure", "SUPINE", "61", "mmHg", "61", 61.0, "mmHg", "", "", "", 13.0, "WEEK 26", 182.0, "TREATMENT", "2014-07-02", 182.0, "AFTER LYING DOWN FOR 5 MINUTES", 815.0, "PT5M", "PATIENT SUPINE"]
["CDISCPILOT01", "VS", "01-701-1015", 41.0, "DIABP", "Diastolic Blood Pressure", "STANDING", "59", "mmHg", "59", 59.0, "mmHg", "", "", "", 13.0, "WEEK 26", 182.0, "TREATMENT", "2014-07-02", 182.0, "AFTER STANDING FOR 1 MINUTE", 816.0, "PT1M", "PATIENT STANDING"]
["CDISCPILOT01", "VS", "01-701-1015", 42.0, "DIABP", "Diastolic Blood Pressure", "STANDING", "55", "mmHg", "55", 55.0, "mmHg", "", "", "", 13.0, "WEEK 26", 182.0, "TREATMENT", "2014-07-02", 182.0, "AFTER STANDING FOR 3 MINUTES", 817.0, "PT3M", "PATIENT STANDING"]
["CDISCPILOT01", "VS", "01-701-1015", 43.0, "HEIGHT", "Height", "", "58.0", "in", "147.32", 147.32, "cm", "", "", "", 1.0, "SCREENING 1", -7.0, "SCREENING", "2013-12-26", -7.0, "", null, "", ""]
["CDISCPILOT01", "VS", "01-701-1015", 44.0, "PULSE", "Pulse Rate", "SUPINE", "57", "beats/min", "57", 57.0, "beats/min", "", "", "", 1.0, "SCREENING 1", -7.0, "SCREENING", "2013-12-26", -7.0, "AFTER LYING DOWN FOR 5 MINUTES", 815.0, "PT5M", "PATIENT SUPINE"]
["CDISCPILOT01", "VS", "01-701-1015", 45.0, "PULSE", "Pulse Rate", "STANDING", "62", "beats/min", "62", 62.0, "beats/min", "", "", "", 1.0, "SCREENING 1", -7.0, "SCREENING", "2013-12-26", -7.0, "AFTER STANDING FOR 1 MINUTE", 816.0, "PT1M", "PATIENT STANDING"]
["CDISCPILOT01", "VS", "01-701-1015", 46.0, "PULSE", "Pulse Rate", "STANDING", "65", "beats/min", "65", 65.0, "beats/min", "", "", "", 1.0, "SCREENING 1", -7.0, "SCREENING", "2013-12-26", -7.0, "AFTER STANDING FOR 3 MINUTES", 817.0, "PT3M", "PATIENT STANDING"]
["CDISCPILOT01", "VS", "01-701-1015", 47.0, "PULSE", "Pulse Rate", "SUPINE", "56", "beats/min", "56", 56.0, "beats/min", "", "", "", 2.0, "SCREENING 2", -1.0, "SCREENING", "2013-12-31", -2.0, "AFTER LYING DOWN FOR 5 MINUTES", 815.0, "PT5M", "PATIENT SUPINE"]
["CDISCPILOT01", "VS", "01-701-1015", 48.0, "PULSE", "Pulse Rate", "STANDING", "60", "beats/min", "60", 60.0, "beats/min", "", "", "", 2.0, "SCREENING 2", -1.0, "SCREENING", "2013-12-31", -2.0, "AFTER STANDING FOR 1 MINUTE", 816.0, "PT1M", "PATIENT STANDING"]
["CDISCPILOT01", "VS", "01-701-1015", 49.0, "PULSE", "Pulse Rate", "STANDING", "57", "beats/min", "57", 57.0, "beats/min", "", "", "", 2.0, "SCREENING 2", -1.0, "SCREENING", "2013-12-31", -2.0, "AFTER STANDING FOR 3 MINUTES", 817.0, "PT3M", "PATIENT STANDING"]
["CDISCPILOT01", "VS", "01-701-1015", 50.0, "PULSE", "Pulse Rate", "SUPINE", "56", "beats/min", "56", 56.0, "beats/min", "", "", "Y", 3.0, "BASELINE", 1.0, "TREATMENT", "2014-01-02", 1.0, "AFTER LYING DOWN FOR 5 MINUTES", 815.0, "PT5M", "PATIENT SUPINE"]
["CDISCPILOT01", "VS", "01-701-1015", 51.0, "PULSE", "Pulse Rate", "STANDING", "59", "beats/min", "59", 59.0, "beats/min", "", "", "Y", 3.0, "BASELINE", 1.0, "TREATMENT", "2014-01-02", 1.0, "AFTER STANDING FOR 1 MINUTE", 816.0, "PT1M", "PATIENT STANDING"]
["CDISCPILOT01", "VS", "01-701-1015", 52.0, "PULSE", "Pulse Rate", "STANDING", "59", "beats/min", "59", 59.0, "beats/min", "", "", "Y", 3.0, "BASELINE", 1.0, "TREATMENT", "2014-01-02", 1.0, "AFTER STANDING FOR 3 MINUTES", 817.0, "PT3M", "PATIENT STANDING"]
["CDISCPILOT01", "VS", "01-701-1015", 53.0, "PULSE", "Pulse Rate", "SUPINE", "61", "beats/min", "61", 61.0, "beats/min", "", "", "", 3.5, "AMBUL ECG PLACEMENT", 13.0, "TREATMENT", "2014-01-14", 13.0, "AFTER LYING DOWN FOR 5 MINUTES", 815.0, "PT5M", "PATIENT SUPINE"]
["CDISCPILOT01", "VS", "01-701-1015", 54.0, "PULSE", "Pulse Rate", "STANDING", "65", "beats/min", "65", 65.0, "beats/min", "", "", "", 3.5, "AMBUL ECG PLACEMENT", 13.0, "TREATMENT", "2014-01-14", 13.0, "AFTER STANDING FOR 1 MINUTE", 816.0, "PT1M", "PATIENT STANDING"]
["CDISCPILOT01", "VS", "01-701-1015", 55.0, "PULSE", "Pulse Rate", "STANDING", "61", "beats/min", "61", 61.0, "beats/min", "", "", "", 3.5, "AMBUL ECG PLACEMENT", 13.0, "TREATMENT", "2014-01-14", 13.0, "AFTER STANDING FOR 3 MINUTES", 817.0, "PT3M", "PATIENT STANDING"]
["CDISCPILOT01", "VS", "01-701-1015", 56.0, "PULSE", "Pulse Rate", "SUPINE", "58", "beats/min", "58", 58.0, "beats/min", "", "", "", 4.0, "WEEK 2", 14.0, "TREATMENT", "2014-01-16", 15.0, "AFTER LYING DOWN FOR 5 MINUTES", 815.0, "PT5M", "PATIENT SUPINE"]
["CDISCPILOT01", "VS", "01-701-1015", 57.0, "PULSE", "Pulse Rate", "STANDING", "61", "beats/min", "61", 61.0, "beats/min", "", "", "", 4.0, "WEEK 2", 14.0, "TREATMENT", "2014-01-16", 15.0, "AFTER STANDING FOR 1 MINUTE", 816.0, "PT1M", "PATIENT STANDING"]
["CDISCPILOT01", "VS", "01-701-1015", 58.0, "PULSE", "Pulse Rate", "STANDING", "62", "beats/min", "62", 62.0, "beats/min", "", "", "", 4.0, "WEEK 2", 14.0, "TREATMENT", "2014-01-16", 15.0, "AFTER STANDING FOR 3 MINUTES", 817.0, "PT3M", "PATIENT STANDING"]
["CDISCPILOT01", "VS", "01-701-1015", 59.0, "PULSE", "Pulse Rate", "SUPINE", "59", "beats/min", "59", 59.0, "beats/min", "", "", "", 5.0, "WEEK 4", 28.0, "TREATMENT", "2014-01-30", 29.0, "AFTER LYING DOWN FOR 5 MINUTES", 815.0, "PT5M", "PATIENT SUPINE"]
["CDISCPILOT01", "VS", "01-701-1015", 60.0, "PULSE", "Pulse Rate", "STANDING", "62", "beats/min", "62", 62.0, "beats/min", "", "", "", 5.0, "WEEK 4", 28.0, "TREATMENT", "2014-01-30", 29.0, "AFTER STANDING FOR 1 MINUTE", 816.0, "PT1M", "PATIENT STANDING"]
["CDISCPILOT01", "VS", "01-701-1015", 61.0, "PULSE", "Pulse Rate", "STANDING", "59", "beats/min", "59", 59.0, "beats/min", "", "", "", 5.0, "WEEK 4", 28.0, "TREATMENT", "2014-01-30", 29.0, "AFTER STANDING FOR 3 MINUTES", 817.0, "PT3M", "PATIENT STANDING"]
["CDISCPILOT01", "VS", "01-701-1015", 62.0, "PULSE", "Pulse Rate", "SUPINE", "67", "beats/min", "67", 67.0, "beats/min", "", "", "", 6.0, "AMBUL ECG REMOVAL", 30.0, "TREATMENT", "2014-02-01", 31.0, "AFTER LYING DOWN FOR 5 MINUTES", 815.0, "PT5M", "PATIENT SUPINE"]
["CDISCPILOT01", "VS", "01-701-1015", 63.0, "PULSE", "Pulse Rate", "STANDING", "69", "beats/min", "69", 69.0, "beats/min", "", "", "", 6.0, "AMBUL ECG REMOVAL", 30.0, "TREATMENT", "2014-02-01", 31.0, "AFTER STANDING FOR 1 MINUTE", 816.0, "PT1M", "PATIENT STANDING"]
["CDISCPILOT01", "VS", "01-701-1015", 64.0, "PULSE", "Pulse Rate", "STANDING", "65", "beats/min", "65", 65.0, "beats/min", "", "", "", 6.0, "AMBUL ECG REMOVAL", 30.0, "TREATMENT", "2014-02-01", 31.0, "AFTER STANDING FOR 3 MINUTES", 817.0, "PT3M", "PATIENT STANDING"]
["CDISCPILOT01", "VS", "01-701-1015", 65.0, "PULSE", "Pulse Rate", "SUPINE", "55", "beats/min", "55", 55.0, "beats/min", "", "", "", 7.0, "WEEK 6", 42.0, "TREATMENT", "2014-02-12", 42.0, "AFTER LYING DOWN FOR 5 MINUTES", 815.0, "PT5M", "PATIENT SUPINE"]
["CDISCPILOT01", "VS", "01-701-1015", 66.0, "PULSE", "Pulse Rate", "STANDING", "56", "beats/min", "56", 56.0, "beats/min", "", "", "", 7.0, "WEEK 6", 42.0, "TREATMENT", "2014-02-12", 42.0, "AFTER STANDING FOR 1 MINUTE", 816.0, "PT1M", "PATIENT STANDING"]
["CDISCPILOT01", "VS", "01-701-1015", 67.0, "PULSE", "Pulse Rate", "STANDING", "57", "beats/min", "57", 57.0, "beats/min", "", "", "", 7.0, "WEEK 6", 42.0, "TREATMENT", "2014-02-12", 42.0, "AFTER STANDING FOR 3 MINUTES", 817.0, "PT3M", "PATIENT STANDING"]
["CDISCPILOT01", "VS", "01-701-1015", 68.0, "PULSE", "Pulse Rate", "SUPINE", "57", "beats/min", "57", 57.0, "beats/min", "", "", "", 8.0, "WEEK 8", 56.0, "TREATMENT", "2014-03-05", 63.0, "AFTER LYING DOWN FOR 5 MINUTES", 815.0, "PT5M", "PATIENT SUPINE"]
["CDISCPILOT01", "VS", "01-701-1015", 69.0, "PULSE", "Pulse Rate", "STANDING", "60", "beats/min", "60", 60.0, "beats/min", "", "", "", 8.0, "WEEK 8", 56.0, "TREATMENT", "2014-03-05", 63.0, "AFTER STANDING FOR 1 MINUTE", 816.0, "PT1M", "PATIENT STANDING"]
["CDISCPILOT01", "VS", "01-701-1015", 70.0, "PULSE", "Pulse Rate", "STANDING", "57", "beats/min", "57", 57.0, "beats/min", "", "", "", 8.0, "WEEK 8", 56.0, "TREATMENT", "2014-03-05", 63.0, "AFTER STANDING FOR 3 MINUTES", 817.0, "PT3M", "PATIENT STANDING"]
["CDISCPILOT01", "VS", "01-701-1015", 71.0, "PULSE", "Pulse Rate", "SUPINE", "54", "beats/min", "54", 54.0, "beats/min", "", "", "", 9.0, "WEEK 12", 84.0, "TREATMENT", "2014-03-26", 84.0, "AFTER LYING DOWN FOR 5 MINUTES", 815.0, "PT5M", "PATIENT SUPINE"]
["CDISCPILOT01", "VS", "01-701-1015", 72.0, "PULSE", "Pulse Rate", "STANDING", "53", "beats/min", "53", 53.0, "beats/min", "", "", "", 9.0, "WEEK 12", 84.0, "TREATMENT", "2014-03-26", 84.0, "AFTER STANDING FOR 1 MINUTE", 816.0, "PT1M", "PATIENT STANDING"]
["CDISCPILOT01", "VS", "01-701-1015", 73.0, "PULSE", "Pulse Rate", "STANDING", "52", "beats/min", "52", 52.0, "beats/min", "", "", "", 9.0, "WEEK 12", 84.0, "TREATMENT", "2014-03-26", 84.0, "AFTER STANDING FOR 3 MINUTES", 817.0, "PT3M", "PATIENT STANDING"]
["CDISCPILOT01", "VS", "01-701-1015", 74.0, "PULSE", "Pulse Rate", "SUPINE", "60", "beats/min", "60", 60.0, "beats/min", "", "", "", 10.0, "WEEK 16", 112.0, "TREATMENT", "2014-05-07", 126.0, "AFTER LYING DOWN FOR 5 MINUTES", 815.0, "PT5M", "PATIENT SUPINE"]
["CDISCPILOT01", "VS", "01-701-1015", 75.0, "PULSE", "Pulse Rate", "STANDING", "55", "beats/min", "55", 55.0, "beats/min", "", "", "", 10.0, "WEEK 16", 112.0, "TREATMENT", "2014-05-07", 126.0, "AFTER STANDING FOR 1 MINUTE", 816.0, "PT1M", "PATIENT STANDING"]
["CDISCPILOT01", "VS", "01-701-1015", 76.0, "PULSE", "Pulse Rate", "STANDING", "61", "beats/min", "61", 61.0, "beats/min", "", "", "", 10.0, "WEEK 16", 112.0, "TREATMENT", "2014-05-07", 126.0, "AFTER STANDING FOR 3 MINUTES", 817.0, "PT3M", "PATIENT STANDING"]
["CDISCPILOT01", "VS", "01-701-1015", 77.0, "PULSE", "Pulse Rate", "SUPINE", "54", "beats/min", "54", 54.0, "beats/min", "", "", "", 11.0, "WEEK 20", 140.0, "TREATMENT", "2014-05-21", 140.0, "AFTER LYING DOWN FOR 5 MINUTES", 815.0, "PT5M", "PATIENT SUPINE"]
["CDISCPILOT01", "VS", "01-701-1015", 78.0, "PULSE", "Pulse Rate", "STANDING", "59", "beats/min", "59", 59.0, "beats/min", "", "", "", 11.0, "WEEK 20", 140.0, "TREATMENT", "2014-05-21", 140.0, "AFTER STANDING FOR 1 MINUTE", 816.0, "PT1M", "PATIENT STANDING"]
["CDISCPILOT01", "VS", "01-701-1015", 79.0, "PULSE", "Pulse Rate", "STANDING", "58", "beats/min", "58", 58.0, "beats/min", "", "", "", 11.0, "WEEK 20", 140.0, "TREATMENT", "2014-05-21", 140.0, "AFTER STANDING FOR 3 MINUTES", 817.0, "PT3M", "PATIENT STANDING"]
["CDISCPILOT01", "VS", "01-701-1015", 80.0, "PULSE", "Pulse Rate", "SUPINE", "55", "beats/min", "55", 55.0, "beats/min", "", "", "", 12.0, "WEEK 24", 168.0, "TREATMENT", "2014-06-18", 168.0, "AFTER LYING DOWN FOR 5 MINUTES", 815.0, "PT5M", "PATIENT SUPINE"]
["CDISCPILOT01", "VS", "01-701-1015", 81.0, "PULSE", "Pulse Rate", "STANDING", "57", "beats/min", "57", 57.0, "beats/min", "", "", "", 12.0, "WEEK 24", 168.0, "TREATMENT", "2014-06-18", 168.0, "AFTER STANDING FOR 1 MINUTE", 816.0, "PT1M", "PATIENT STANDING"]
["CDISCPILOT01", "VS", "01-701-1015", 82.0, "PULSE", "Pulse Rate", "STANDING", "56", "beats/min", "56", 56.0, "beats/min", "", "", "", 12.0, "WEEK 24", 168.0, "TREATMENT", "2014-06-18", 168.0, "AFTER STANDING FOR 3 MINUTES", 817.0, "PT3M", "PATIENT STANDING"]
["CDISCPILOT01", "VS", "01-701-1015", 83.0, "PULSE", "Pulse Rate", "SUPINE", "60", "beats/min", "60", 60.0, "beats/min", "", "", "", 13.0, "WEEK 26", 182.0, "TREATMENT", "2014-07-02", 182.0, "AFTER LYING DOWN FOR 5 MINUTES", 815.0, "PT5M", "PATIENT SUPINE"]
["CDISCPILOT01", "VS", "01-701-1015", 84.0, "PULSE", "Pulse Rate", "STANDING", "61", "beats/min", "61", 61.0, "beats/min", "", "", "", 13.0, "WEEK 26", 182.0, "TREATMENT", "2014-07-02", 182.0, "AFTER STANDING FOR 1 MINUTE", 816.0, "PT1M", "PATIENT STANDING"]
["CDISCPILOT01", "VS", "01-701-1015", 85.0, "PULSE", "Pulse Rate", "STANDING", "59", "beats/min", "59", 59.0, "beats/min", "", "", "", 13.0, "WEEK 26", 182.0, "TREATMENT", "2014-07-02", 182.0, "AFTER STANDING FOR 3 MINUTES", 817.0, "PT3M", "PATIENT STANDING"]
["CDISCPILOT01", "VS", "01-701-1015", 86.0, "SYSBP", "Systolic Blood Pressure", "SUPINE", "131", "mmHg", "131", 131.0, "mmHg", "", "", "", 1.0, "SCREENING 1", -7.0, "SCREENING", "2013-12-26", -7.0, "AFTER LYING DOWN FOR 5 MINUTES", 815.0, "PT5M", "PATIENT SUPINE"]
["CDISCPILOT01", "VS", "01-701-1015", 87.0, "SYSBP", "Systolic Blood Pressure", "STANDING", "129", "mmHg", "129", 129.0, "mmHg", "", "", "", 1.0, "SCREENING 1", -7.0, "SCREENING", "2013-12-26", -7.0, "AFTER STANDING FOR 1 MINUTE", 816.0, "PT1M", "PATIENT STANDING"]
["CDISCPILOT01", "VS", "01-701-1015", 88.0, "SYSBP", "Systolic Blood Pressure", "STANDING", "147", "mmHg", "147", 147.0, "mmHg", "", "", "", 1.0, "SCREENING 1", -7.0, "SCREENING", "2013-12-26", -7.0, "AFTER STANDING FOR 3 MINUTES", 817.0, "PT3M", "PATIENT STANDING"]
["CDISCPILOT01", "VS", "01-701-1015", 89.0, "SYSBP", "Systolic Blood Pressure", "SUPINE", "138", "mmHg", "138", 138.0, "mmHg", "", "", "", 2.0, "SCREENING 2", -1.0, "SCREENING", "2013-12-31", -2.0, "AFTER LYING DOWN FOR 5 MINUTES", 815.0, "PT5M", "PATIENT SUPINE"]
["CDISCPILOT01", "VS", "01-701-1015", 90.0, "SYSBP", "Systolic Blood Pressure", "STANDING", "137", "mmHg", "137", 137.0, "mmHg", "", "", "", 2.0, "SCREENING 2", -1.0, "SCREENING", "2013-12-31", -2.0, "AFTER STANDING FOR 1 MINUTE", 816.0, "PT1M", "PATIENT STANDING"]
["CDISCPILOT01", "VS", "01-701-1015", 91.0, "SYSBP", "Systolic Blood Pressure", "STANDING", "145", "mmHg", "145", 145.0, "mmHg", "", "", "", 2.0, "SCREENING 2", -1.0, "SCREENING", "2013-12-31", -2.0, "AFTER STANDING FOR 3 MINUTES", 817.0, "PT3M", "PATIENT STANDING"]
["CDISCPILOT01", "VS", "01-701-1015", 92.0, "SYSBP", "Systolic Blood Pressure", "SUPINE", "130", "mmHg", "130", 130.0, "mmHg", "", "", "Y", 3.0, "BASELINE", 1.0, "TREATMENT", "2014-01-02", 1.0, "AFTER LYING DOWN FOR 5 MINUTES", 815.0, "PT5M", "PATIENT SUPINE"]
["CDISCPILOT01", "VS", "01-701-1015", 93.0, "SYSBP", "Systolic Blood Pressure", "STANDING", "121", "mmHg", "121", 121.0, "mmHg", "", "", "Y", 3.0, "BASELINE", 1.0, "TREATMENT", "2014-01-02", 1.0, "AFTER STANDING FOR 1 MINUTE", 816.0, "PT1M", "PATIENT STANDING"]
["CDISCPILOT01", "VS", "01-701-1015", 94.0, "SYSBP", "Systolic Blood Pressure", "STANDING", "131", "mmHg", "131", 131.0, "mmHg", "", "", "Y", 3.0, "BASELINE", 1.0, "TREATMENT", "2014-01-02", 1.0, "AFTER STANDING FOR 3 MINUTES", 817.0, "PT3M", "PATIENT STANDING"]
["CDISCPILOT01", "VS", "01-701-1015", 95.0, "SYSBP", "Systolic Blood Pressure", "SUPINE", "137", "mmHg", "137", 137.0, "mmHg", "", "", "", 3.5, "AMBUL ECG PLACEMENT", 13.0, "TREATMENT", "2014-01-14", 13.0, "AFTER LYING DOWN FOR 5 MINUTES", 815.0, "PT5M", "PATIENT SUPINE"]
["CDISCPILOT01", "VS", "01-701-1015", 96.0, "SYSBP", "Systolic Blood Pressure", "STANDING", "127", "mmHg", "127", 127.0, "mmHg", "", "", "", 3.5, "AMBUL ECG PLACEMENT", 13.0, "TREATMENT", "2014-01-14", 13.0, "AFTER STANDING FOR 1 MINUTE", 816.0, "PT1M", "PATIENT STANDING"]
["CDISCPILOT01", "VS", "01-701-1015", 97.0, "SYSBP", "Systolic Blood Pressure", "STANDING", "146", "mmHg", "146", 146.0, "mmHg", "", "", "", 3.5, "AMBUL ECG PLACEMENT", 13.0, "TREATMENT", "2014-01-14", 13.0, "AFTER STANDING FOR 3 MINUTES", 817.0, "PT3M", "PATIENT STANDING"]
["CDISCPILOT01", "VS", "01-701-1015", 98.0, "SYSBP", "Systolic Blood Pressure", "SUPINE", "114", "mmHg", "114", 114.0, "mmHg", "", "", "", 4.0, "WEEK 2", 14.0, "TREATMENT", "2014-01-16", 15.0, "AFTER LYING DOWN FOR 5 MINUTES", 815.0, "PT5M", "PATIENT SUPINE"]
["CDISCPILOT01", "VS", "01-701-1015", 99.0, "SYSBP", "Systolic Blood Pressure", "STANDING", "121", "mmHg", "121", 121.0, "mmHg", "", "", "", 4.0, "WEEK 2", 14.0, "TREATMENT", "2014-01-16", 15.0, "AFTER STANDING FOR 1 MINUTE", 816.0, "PT1M", "PATIENT STANDING"]
["CDISCPILOT01", "VS", "01-701-1015", 100.0, "SYSBP", "Systolic Blood Pressure", "STANDING", "132", "mmHg", "132", 132.0, "mmHg", "", "", "", 4.0, "WEEK 2", 14.0, "TREATMENT", "2014-01-16", 15.0, "AFTER STANDING FOR 3 MINUTES", 817.0, "PT3M", "PATIENT STANDING"]
["CDISCPILOT01", "VS", "01-701-1015", 101.0, "SYSBP", "Systolic Blood Pressure", "SUPINE", "138", "mmHg", "138", 138.0, "mmHg", "", "", "", 5.0, "WEEK 4", 28.0, "TREATMENT", "2014-01-30", 29.0, "AFTER LYING DOWN FOR 5 MINUTES", 815.0, "PT5M", "PATIENT SUPINE"]
["CDISCPILOT01", "VS", "01-701-1015", 102.0, "SYSBP", "Systolic Blood Pressure", "STANDING", "137", "mmHg", "137", 137.0, "mmHg", "", "", "", 5.0, "WEEK 4", 28.0, "TREATMENT", "2014-01-30", 29.0, "AFTER STANDING FOR 1 MINUTE", 816.0, "PT1M", "PATIENT STANDING"]
["CDISCPILOT01", "VS", "01-701-1015", 103.0, "SYSBP", "Systolic Blood Pressure", "STANDING", "132", "mmHg", "132", 132.0, "mmHg", "", "", "", 5.0, "WEEK 4", 28.0, "TREATMENT", "2014-01-30", 29.0, "AFTER STANDING FOR 3 MINUTES", 817.0, "PT3M", "PATIENT STANDING"]
["CDISCPILOT01", "VS", "01-701-1015", 104.0, "SYSBP", "Systolic Blood Pressure", "SUPINE", "138", "mmHg", "138", 138.0, "mmHg", "", "", "", 6.0, "AMBUL ECG REMOVAL", 30.0, "TREATMENT", "2014-02-01", 31.0, "AFTER LYING DOWN FOR 5 MINUTES", 815.0, "PT5M", "PATIENT SUPINE"]
["CDISCPILOT01", "VS", "01-701-1015", 105.0, "SYSBP", "Systolic Blood Pressure", "STANDING", "131", "mmHg", "131", 131.0, "mmHg", "", "", "", 6.0, "AMBUL ECG REMOVAL", 30.0, "TREATMENT", "2014-02-01", 31.0, "AFTER STANDING FOR 1 MINUTE", 816.0, "PT1M", "PATIENT STANDING"]
["CDISCPILOT01", "VS", "01-701-1015", 106.0, "SYSBP", "Systolic Blood Pressure", "STANDING", "123", "mmHg", "123", 123.0, "mmHg", "", "", "", 6.0, "AMBUL ECG REMOVAL", 30.0, "TREATMENT", "2014-02-01", 31.0, "AFTER STANDING FOR 3 MINUTES", 817.0, "PT3M", "PATIENT STANDING"]
["CDISCPILOT01", "VS", "01-701-1015", 107.0, "SYSBP", "Systolic Blood Pressure", "SUPINE", "148", "mmHg", "148", 148.0, "mmHg", "", "", "", 7.0, "WEEK 6", 42.0, "TREATMENT", "2014-02-12", 42.0, "AFTER LYING DOWN FOR 5 MINUTES", 815.0, "PT5M", "PATIENT SUPINE"]
["CDISCPILOT01", "VS", "01-701-1015", 108.0, "SYSBP", "Systolic Blood Pressure", "STANDING", "137", "mmHg", "137", 137.0, "mmHg", "", "", "", 7.0, "WEEK 6", 42.0, "TREATMENT", "2014-02-12", 42.0, "AFTER STANDING FOR 1 MINUTE", 816.0, "PT1M", "PATIENT STANDING"]
["CDISCPILOT01", "VS", "01-701-1015", 109.0, "SYSBP", "Systolic Blood Pressure", "STANDING", "138", "mmHg", "138", 138.0, "mmHg", "", "", "", 7.0, "WEEK 6", 42.0, "TREATMENT", "2014-02-12", 42.0, "AFTER STANDING FOR 3 MINUTES", 817.0, "PT3M", "PATIENT STANDING"]
["CDISCPILOT01", "VS", "01-701-1015", 110.0, "SYSBP", "Systolic Blood Pressure", "SUPINE", "138", "mmHg", "138", 138.0, "mmHg", "", "", "", 8.0, "WEEK 8", 56.0, "TREATMENT", "2014-03-05", 63.0, "AFTER LYING DOWN FOR 5 MINUTES", 815.0, "PT5M", "PATIENT SUPINE"]
["CDISCPILOT01", "VS", "01-701-1015", 111.0, "SYSBP", "Systolic Blood Pressure", "STANDING", "146", "mmHg", "146", 146.0, "mmHg", "", "", "", 8.0, "WEEK 8", 56.0, "TREATMENT", "2014-03-05", 63.0, "AFTER STANDING FOR 1 MINUTE", 816.0, "PT1M", "PATIENT STANDING"]
["CDISCPILOT01", "VS", "01-701-1015", 112.0, "SYSBP", "Systolic Blood Pressure", "STANDING", "140", "mmHg", "140", 140.0, "mmHg", "", "", "", 8.0, "WEEK 8", 56.0, "TREATMENT", "2014-03-05", 63.0, "AFTER STANDING FOR 3 MINUTES", 817.0, "PT3M", "PATIENT STANDING"]
["CDISCPILOT01", "VS", "01-701-1015", 113.0, "SYSBP", "Systolic Blood Pressure", "SUPINE", "139", "mmHg", "139", 139.0, "mmHg", "", "", "", 9.0, "WEEK 12", 84.0, "TREATMENT", "2014-03-26", 84.0, "AFTER LYING DOWN FOR 5 MINUTES", 815.0, "PT5M", "PATIENT SUPINE"]
["CDISCPILOT01", "VS", "01-701-1015", 114.0, "SYSBP", "Systolic Blood Pressure", "STANDING", "146", "mmHg", "146", 146.0, "mmHg", "", "", "", 9.0, "WEEK 12", 84.0, "TREATMENT", "2014-03-26", 84.0, "AFTER STANDING FOR 1 MINUTE", 816.0, "PT1M", "PATIENT STANDING"]
["CDISCPILOT01", "VS", "01-701-1015", 115.0, "SYSBP", "Systolic Blood Pressure", "STANDING", "138", "mmHg", "138", 138.0, "mmHg", "", "", "", 9.0, "WEEK 12", 84.0, "TREATMENT", "2014-03-26", 84.0, "AFTER STANDING FOR 3 MINUTES", 817.0, "PT3M", "PATIENT STANDING"]
["CDISCPILOT01", "VS", "01-701-1015", 116.0, "SYSBP", "Systolic Blood Pressure", "SUPINE", "163", "mmHg", "163", 163.0, "mmHg", "", "", "", 10.0, "WEEK 16", 112.0, "TREATMENT", "2014-05-07", 126.0, "AFTER LYING DOWN FOR 5 MINUTES", 815.0, "PT5M", "PATIENT SUPINE"]
["CDISCPILOT01", "VS", "01-701-1015", 117.0, "SYSBP", "Systolic Blood Pressure", "STANDING", "145", "mmHg", "145", 145.0, "mmHg", "", "", "", 10.0, "WEEK 16", 112.0, "TREATMENT", "2014-05-07", 126.0, "AFTER STANDING FOR 1 MINUTE", 816.0, "PT1M", "PATIENT STANDING"]
["CDISCPILOT01", "VS", "01-701-1015", 118.0, "SYSBP", "Systolic Blood Pressure", "STANDING", "152", "mmHg", "152", 152.0, "mmHg", "", "", "", 10.0, "WEEK 16", 112.0, "TREATMENT", "2014-05-07", 126.0, "AFTER STANDING FOR 3 MINUTES", 817.0, "PT3M", "PATIENT STANDING"]
["CDISCPILOT01", "VS", "01-701-1015", 119.0, "SYSBP", "Systolic Blood Pressure", "SUPINE", "137", "mmHg", "137", 137.0, "mmHg", "", "", "", 11.0, "WEEK 20", 140.0, "TREATMENT", "2014-05-21", 140.0, "AFTER LYING DOWN FOR 5 MINUTES", 815.0, "PT5M", "PATIENT SUPINE"]
["CDISCPILOT01", "VS", "01-701-1015", 120.0, "SYSBP", "Systolic Blood Pressure", "STANDING", "139", "mmHg", "139", 139.0, "mmHg", "", "", "", 11.0, "WEEK 20", 140.0, "TREATMENT", "2014-05-21", 140.0, "AFTER STANDING FOR 1 MINUTE", 816.0, "PT1M", "PATIENT STANDING"]
["CDISCPILOT01", "VS", "01-701-1015", 121.0, "SYSBP", "Systolic Blood Pressure", "STANDING", "136", "mmHg", "136", 136.0, "mmHg", "", "", "", 11.0, "WEEK 20", 140.0, "TREATMENT", "2014-05-21", 140.0, "AFTER STANDING FOR 3 MINUTES", 817.0, "PT3M", "PATIENT STANDING"]
["CDISCPILOT01", "VS", "01-701-1015", 122.0, "SYSBP", "Systolic Blood Pressure", "SUPINE", "129", "mmHg", "129", 129.0, "mmHg", "", "", "", 12.0, "WEEK 24", 168.0, "TREATMENT", "2014-06-18", 168.0, "AFTER LYING DOWN FOR 5 MINUTES", 815.0, "PT5M", "PATIENT SUPINE"]
["CDISCPILOT01", "VS", "01-701-1015", 123.0, "SYSBP", "Systolic Blood Pressure", "STANDING", "131", "mmHg", "131", 131.0, "mmHg", "", "", "", 12.0, "WEEK 24", 168.0, "TREATMENT", "2014-06-18", 168.0, "AFTER STANDING FOR 1 MINUTE", 816.0, "PT1M", "PATIENT STANDING"]
["CDISCPILOT01", "VS", "01-701-1015", 124.0, "SYSBP", "Systolic Blood Pressure", "STANDING", "137", "mmHg", "137", 137.0, "mmHg", "", "", "", 12.0, "WEEK 24", 168.0, "TREATMENT", "2014-06-18", 168.0, "AFTER STANDING FOR 3 MINUTES", 817.0, "PT3M", "PATIENT STANDING"]
["CDISCPILOT01", "VS", "01-701-1015", 125.0, "SYSBP", "Systolic Blood Pressure", "SUPINE", "127", "mmHg", "127", 127.0, "mmHg", "", "", "", 13.0, "WEEK 26", 182.0, "TREATMENT", "2014-07-02", 182.0, "AFTER LYING DOWN FOR 5 MINUTES", 815.0, "PT5M", "PATIENT SUPINE"]
["CDISCPILOT01", "VS", "01-701-1015", 126.0, "SYSBP", "Systolic Blood Pressure", "STANDING", "128", "mmHg", "128", 128.0, "mmHg", "", "", "", 13.0, "WEEK 26", 182.0, "TREATMENT", "2014-07-02", 182.0, "AFTER STANDING FOR 1 MINUTE", 816.0, "PT1M", "PATIENT STANDING"]
["CDISCPILOT01", "VS", "01-701-1015", 127.0, "SYSBP", "Systolic Blood Pressure", "STANDING", "129", "mmHg", "129", 129.0, "mmHg", "", "", "", 13.0, "WEEK 26", 182.0, "TREATMENT", "2014-07-02", 182.0, "AFTER STANDING FOR 3 MINUTES", 817.0, "PT3M", "PATIENT STANDING"]
["CDISCPILOT01", "VS", "01-701-1015", 128.0, "TEMP", "Temperature", "", "96.9", "F", "36.06", 36.06, "C", "", "ORAL CAVITY", "", 1.0, "SCREENING 1", -7.0, "SCREENING", "2013-12-26", -7.0, "", null, "", ""]
["CDISCPILOT01", "VS", "01-701-1015", 129.0, "TEMP", "Temperature", "", "97.0", "F", "36.11", 36.11, "C", "", "ORAL CAVITY", "", 2.0, "SCREENING 2", -1.0, "SCREENING", "2013-12-31", -2.0, "", null, "", ""]
["CDISCPILOT01", "VS", "01-701-1015", 130.0, "TEMP", "Temperature", "", "97.2", "F", "36.22", 36.22, "C", "", "ORAL CAVITY", "Y", 3.0, "BASELINE", 1.0, "TREATMENT", "2014-01-02", 1.0, "", null, "", ""]
["CDISCPILOT01", "VS", "01-701-1015", 131.0, "TEMP", "Temperature", "", "96.6", "F", "35.89", 35.89, "C", "", "ORAL CAVITY", "", 3.5, "AMBUL ECG PLACEMENT", 13.0, "TREATMENT", "2014-01-14", 13.0, "", null, "", ""]
["CDISCPILOT01", "VS", "01-701-1015", 132.0, "TEMP", "Temperature", "", "97.7", "F", "36.5", 36.5, "C", "", "ORAL CAVITY", "", 4.0, "WEEK 2", 14.0, "TREATMENT", "2014-01-16", 15.0, "", null, "", ""]
["CDISCPILOT01", "VS", "01-701-1015", 133.0, "TEMP", "Temperature", "", "97.0", "F", "36.11", 36.11, "C", "", "ORAL CAVITY", "", 5.0, "WEEK 4", 28.0, "TREATMENT", "2014-01-30", 29.0, "", null, "", ""]
["CDISCPILOT01", "VS", "01-701-1015", 134.0, "TEMP", "Temperature", "", "97.5", "F", "36.39", 36.39, "C", "", "ORAL CAVITY", "", 6.0, "AMBUL ECG REMOVAL", 30.0, "TREATMENT", "2014-02-01", 31.0, "", null, "", ""]
["CDISCPILOT01", "VS", "01-701-1015", 135.0, "TEMP", "Temperature", "", "97.4", "F", "36.33", 36.33, "C", "", "ORAL CAVITY", "", 7.0, "WEEK 6", 42.0, "TREATMENT", "2014-02-12", 42.0, "", null, "", ""]
["CDISCPILOT01", "VS", "01-701-1015", 136.0, "TEMP", "Temperature", "", "98.0", "F", "36.67", 36.67, "C", "", "ORAL CAVITY", "", 8.0, "WEEK 8", 56.0, "TREATMENT", "2014-03-05", 63.0, "", null, "", ""]
["CDISCPILOT01", "VS", "01-701-1015", 137.0, "TEMP", "Temperature", "", "97.4", "F", "36.33", 36.33, "C", "", "ORAL CAVITY", "", 9.0, "WEEK 12", 84.0, "TREATMENT", "2014-03-26", 84.0, "", null, "", ""]
["CDISCPILOT01", "VS", "01-701-1015", 138.0, "TEMP", "Temperature", "", "97.9", "F", "36.61", 36.61, "C", "", "ORAL CAVITY", "", 10.0, "WEEK 16", 112.0, "TREATMENT", "2014-05-07", 126.0, "", null, "", ""]
["CDISCPILOT01", "VS", "01-701-1015", 139.0, "TEMP", "Temperature", "", "97.4", "F", "36.33", 36.33, "C", "", "ORAL CAVITY", "", 11.0, "WEEK 20", 140.0, "TREATMENT", "2014-05-21", 140.0, "", null, "", ""]
["CDISCPILOT01", "VS", "01-701-1015", 140.0, "TEMP", "Temperature", "", "97.7", "F", "36.5", 36.5, "C", "", "ORAL CAVITY", "", 12.0, "WEEK 24", 168.0, "TREATMENT", "2014-06-18", 168.0, "", null, "", ""]
["CDISCPILOT01", "VS", "01-701-1015", 141.0, "TEMP", "Temperature", "", "97.2", "F", "36.22", 36.22, "C", "", "ORAL CAVITY", "", 13.0, "WEEK 26", 182.0, "TREATMENT", "2014-07-02", 182.0, "", null, "", ""]
["CDISCPILOT01", "VS", "01-701-1015", 142.0, "WEIGHT", "Weight", "", "119.0", "LB", "53.98", 53.98, "kg", "", "", "", 1.0, "SCREENING 1", -7.0, "SCREENING", "2013-12-26", -7.0, "", null, "", ""]
["CDISCPILOT01", "VS", "01-701-1015", 143.0, "WEIGHT", "Weight", "", "120.0", "LB", "54.43", 54.43, "kg", "", "", "Y", 3.0, "BASELINE", 1.0, "TREATMENT", "2014-01-02", 1.0, "", null, "", ""]
["CDISCPILOT01", "VS", "01-701-1015", 144.0, "WEIGHT", "Weight", "", "117.0", "LB", "53.07", 53.07, "kg", "", "", "", 4.0, "WEEK 2", 14.0, "TREATMENT", "2014-01-16", 15.0, "", null, "", ""]
["CDISCPILOT01", "VS", "01-701-1015", 145.0, "WEIGHT", "Weight", "", "119.0", "LB", "53.98", 53.98, "kg", "", "", "", 5.0, "WEEK 4", 28.0, "TREATMENT", "2014-01-30", 29.0, "", null, "", ""]
["CDISCPILOT01", "VS", "01-701-1015", 146.0, "WEIGHT", "Weight", "", "117.0", "LB", "53.07", 53.07, "kg", "", "", "", 7.0, "WEEK 6", 42.0, "TREATMENT", "2014-02-12", 42.0, "", null, "", ""]
["CDISCPILOT01", "VS", "01-701-1015", 147.0, "WEIGHT", "Weight", "", "117.0", "LB", "53.07", 53.07, "kg", "", "", "", 8.0, "WEEK 8", 56.0, "TREATMENT", "2014-03-05", 63.0, "", null, "", ""]
["CDISCPILOT01", "VS", "01-701-1015", 148.0, "WEIGHT", "Weight", "", "117.0", "LB", "53.07", 53.07, "kg", "", "", "", 9.0, "WEEK 12", 84.0, "TREATMENT", "2014-03-26", 84.0, "", null, "", ""]
["CDISCPILOT01", "VS", "01-701-1015", 149.0, "WEIGHT", "Weight", "", "117.0", "LB", "53.07", 53.07, "kg", "", "", "", 10.0, "WEEK 16", 112.0, "TREATMENT", "2014-05-07", 126.0, "", null, "", ""]
["CDISCPILOT01", "VS", "01-701-1015", 150.0, "WEIGHT", "Weight", "", "117.0", "LB", "53.07", 53.07, "kg", "", "", "", 11.0, "WEEK 20", 140.0, "TREATMENT", "2014-05-21", 140.0, "", null, "", ""]
["CDISCPILOT01", "VS", "01-701-1015", 151.0, "WEIGHT", "Weight", "", "117.0", "LB", "53.07", 53.07, "kg", "", "", "", 12.0, "WEEK 24", 168.0, "TREATMENT", "2014-06-18", 168.0, "", null, "", ""]
["CDISCPILOT01", "VS", "01-701-1015", 152.0, "WEIGHT", "Weight", "", "118.0", "LB", "53.52", 53.52, "kg", "", "", "", 13.0, "WEEK 26", 182.0, "TREATMENT", "2014-07-02", 182.0, "", null, "", ""]
["CDISCPILOT01", "VS", "01-701-1023", 1.0, "DIABP", "Diastolic Blood Pressure", "SUPINE", "86", "mmHg", "86", 86.0, "mmHg", "", "", "", 1.0, "SCREENING 1", -7.0, "SCREENING", "2012-07-22", -14.0, "AFTER LYING DOWN FOR 5 MINUTES", 815.0, "PT5M", "PATIENT SUPINE"]
["CDISCPILOT01", "VS", "01-701-1023", 2.0, "DIABP", "Diastolic Blood Pressure", "STANDING", "89", "mmHg", "89", 89.0, "mmHg", "", "", "", 1.0, "SCREENING 1", -7.0, "SCREENING", "2012-07-22", -14.0, "AFTER STANDING FOR 1 MINUTE", 816.0, "PT1M", "PATIENT STANDING"]
["CDISCPILOT01", "VS", "01-701-1023", 3.0, "DIABP", "Diastolic Blood Pressure", "STANDING", "90", "mmHg", "90", 90.0, "mmHg", "", "", "", 1.0, "SCREENING 1", -7.0, "SCREENING", "2012-07-22", -14.0, "AFTER STANDING FOR 3 MINUTES", 817.0, "PT3M", "PATIENT STANDING"]
["CDISCPILOT01", "VS", "01-701-1023", 4.0, "DIABP", "Diastolic Blood Pressure", "SUPINE", "77", "mmHg", "77", 77.0, "mmHg", "", "", "", 2.0, "SCREENING 2", -1.0, "SCREENING", "2012-08-03", -2.0, "AFTER LYING DOWN FOR 5 MINUTES", 815.0, "PT5M", "PATIENT SUPINE"]
["CDISCPILOT01", "VS", "01-701-1023", 5.0, "DIABP", "Diastolic Blood Pressure", "STANDING", "79", "mmHg", "79", 79.0, "mmHg", "", "", "", 2.0, "SCREENING 2", -1.0, "SCREENING", "2012-08-03", -2.0, "AFTER STANDING FOR 1 MINUTE", 816.0, "PT1M", "PATIENT STANDING"]
["CDISCPILOT01", "VS", "01-701-1023", 6.0, "DIABP", "Diastolic Blood Pressure", "STANDING", "85", "mmHg", "85", 85.0, "mmHg", "", "", "", 2.0, "SCREENING 2", -1.0, "SCREENING", "2012-08-03", -2.0, "AFTER STANDING FOR 3 MINUTES", 817.0, "PT3M", "PATIENT STANDING"]
["CDISCPILOT01", "VS", "01-701-1023", 7.0, "DIABP", "Diastolic Blood Pressure", "SUPINE", "84", "mmHg", "84", 84.0, "mmHg", "", "", "Y", 3.0, "BASELINE", 1.0, "TREATMENT", "2012-08-05", 1.0, "AFTER LYING DOWN FOR 5 MINUTES", 815.0, "PT5M", "PATIENT SUPINE"]
["CDISCPILOT01", "VS", "01-701-1023", 8.0, "DIABP", "Diastolic Blood Pressure", "STANDING", "86", "mmHg", "86", 86.0, "mmHg", "", "", "Y", 3.0, "BASELINE", 1.0, "TREATMENT", "2012-08-05", 1.0, "AFTER STANDING FOR 1 MINUTE", 816.0, "PT1M", "PATIENT STANDING"]
["CDISCPILOT01", "VS", "01-701-1023", 9.0, "DIABP", "Diastolic Blood Pressure", "STANDING", "88", "mmHg", "88", 88.0, "mmHg", "", "", "Y", 3.0, "BASELINE", 1.0, "TREATMENT", "2012-08-05", 1.0, "AFTER STANDING FOR 3 MINUTES", 817.0, "PT3M", "PATIENT STANDING"]
["CDISCPILOT01", "VS", "01-701-1023", 10.0, "DIABP", "Diastolic Blood Pressure", "SUPINE", "82", "mmHg", "82", 82.0, "mmHg", "", "", "", 3.5, "AMBUL ECG PLACEMENT", 13.0, "TREATMENT", "2012-08-26", 22.0, "AFTER LYING DOWN FOR 5 MINUTES", 815.0, "PT5M", "PATIENT SUPINE"]
["CDISCPILOT01", "VS", "01-701-1023", 11.0, "DIABP", "Diastolic Blood Pressure", "STANDING", "88", "mmHg", "88", 88.0, "mmHg", "", "", "", 3.5, "AMBUL ECG PLACEMENT", 13.0, "TREATMENT", "2012-08-26", 22.0, "AFTER STANDING FOR 1 MINUTE", 816.0, "PT1M", "PATIENT STANDING"]
["CDISCPILOT01", "VS", "01-701-1023", 12.0, "DIABP", "Diastolic Blood Pressure", "STANDING", "89", "mmHg", "89", 89.0, "mmHg", "", "", "", 3.5, "AMBUL ECG PLACEMENT", 13.0, "TREATMENT", "2012-08-26", 22.0, "AFTER STANDING FOR 3 MINUTES", 817.0, "PT3M", "PATIENT STANDING"]
["CDISCPILOT01", "VS", "01-701-1023", 13.0, "DIABP", "Diastolic Blood Pressure", "SUPINE", "88", "mmHg", "88", 88.0, "mmHg", "", "", "", 4.0, "WEEK 2", 14.0, "TREATMENT", "2012-08-27", 23.0, "AFTER LYING DOWN FOR 5 MINUTES", 815.0, "PT5M", "PATIENT SUPINE"]
["CDISCPILOT01", "VS", "01-701-1023", 14.0, "DIABP", "Diastolic Blood Pressure", "STANDING", "86", "mmHg", "86", 86.0, "mmHg", "", "", "", 4.0, "WEEK 2", 14.0, "TREATMENT", "2012-08-27", 23.0, "AFTER STANDING FOR 1 MINUTE", 816.0, "PT1M", "PATIENT STANDING"]
["CDISCPILOT01", "VS", "01-701-1023", 15.0, "DIABP", "Diastolic Blood Pressure", "STANDING", "90", "mmHg", "90", 90.0, "mmHg", "", "", "", 4.0, "WEEK 2", 14.0, "TREATMENT", "2012-08-27", 23.0, "AFTER STANDING FOR 3 MINUTES", 817.0, "PT3M", "PATIENT STANDING"]
["CDISCPILOT01", "VS", "01-701-1023", 16.0, "DIABP", "Diastolic Blood Pressure", "SUPINE", "86", "mmHg", "86", 86.0, "mmHg", "", "", "", 5.0, "WEEK 4", 28.0, "TREATMENT", "2012-09-02", 29.0, "AFTER LYING DOWN FOR 5 MINUTES", 815.0, "PT5M", "PATIENT SUPINE"]
["CDISCPILOT01", "VS", "01-701-1023", 17.0, "DIABP", "Diastolic Blood Pressure", "STANDING", "88", "mmHg", "88", 88.0, "mmHg", "", "", "", 5.0, "WEEK 4", 28.0, "TREATMENT", "2012-09-02", 29.0, "AFTER STANDING FOR 1 MINUTE", 816.0, "PT1M", "PATIENT STANDING"]
["CDISCPILOT01", "VS", "01-701-1023", 18.0, "DIABP", "Diastolic Blood Pressure", "STANDING", "92", "mmHg", "92", 92.0, "mmHg", "", "", "", 5.0, "WEEK 4", 28.0, "TREATMENT", "2012-09-02", 29.0, "AFTER STANDING FOR 3 MINUTES", 817.0, "PT3M", "PATIENT STANDING"]
["CDISCPILOT01", "VS", "01-701-1023", 19.0, "DIABP", "Diastolic Blood Pressure", "SUPINE", "89", "mmHg", "89", 89.0, "mmHg", "", "", "", 201.0, "RETRIEVAL", 168.0, "TREATMENT", "2013-02-18", 198.0, "AFTER LYING DOWN FOR 5 MINUTES", 815.0, "PT5M", "PATIENT SUPINE"]
["CDISCPILOT01", "VS", "01-701-1023", 20.0, "DIABP", "Diastolic Blood Pressure", "STANDING", "86", "mmHg", "86", 86.0, "mmHg", "", "", "", 201.0, "RETRIEVAL", 168.0, "TREATMENT", "2013-02-18", 198.0, "AFTER STANDING FOR 1 MINUTE", 816.0, "PT1M", "PATIENT STANDING"]
["CDISCPILOT01", "VS", "01-701-1023", 21.0, "DIABP", "Diastolic Blood Pressure", "STANDING", "84", "mmHg", "84", 84.0, "mmHg", "", "", "", 201.0, "RETRIEVAL", 168.0, "TREATMENT", "2013-02-18", 198.0, "AFTER STANDING FOR 3 MINUTES", 817.0, "PT3M", "PATIENT STANDING"]
["CDISCPILOT01", "VS", "01-701-1023", 22.0, "HEIGHT", "Height", "", "64.0", "in", "162.56", 162.56, "cm", "", "", "", 1.0, "SCREENING 1", -7.0, "SCREENING", "2012-07-22", -14.0, "", null, "", ""]
["CDISCPILOT01", "VS", "01-701-1023", 23.0, "PULSE", "Pulse Rate", "SUPINE", "65", "beats/min", "65", 65.0, "beats/min", "", "", "", 1.0, "SCREENING 1", -7.0, "SCREENING", "2012-07-22", -14.0, "AFTER LYING DOWN FOR 5 MINUTES", 815.0, "PT5M", "PATIENT SUPINE"]
["CDISCPILOT01", "VS", "01-701-1023", 24.0, "PULSE", "Pulse Rate", "STANDING", "78", "beats/min", "78", 78.0, "beats/min", "", "", "", 1.0, "SCREENING 1", -7.0, "SCREENING", "2012-07-22", -14.0, "AFTER STANDING FOR 1 MINUTE", 816.0, "PT1M", "PATIENT STANDING"]
["CDISCPILOT01", "VS", "01-701-1023", 25.0, "PULSE", "Pulse Rate", "STANDING", "74", "beats/min", "74", 74.0, "beats/min", "", "", "", 1.0, "SCREENING 1", -7.0, "SCREENING", "2012-07-22", -14.0, "AFTER STANDING FOR 3 MINUTES", 817.0, "PT3M", "PATIENT STANDING"]
["CDISCPILOT01", "VS", "01-701-1023", 26.0, "PULSE", "Pulse Rate", "SUPINE", "79", "beats/min", "79", 79.0, "beats/min", "", "", "", 2.0, "SCREENING 2", -1.0, "SCREENING", "2012-08-03", -2.0, "AFTER LYING DOWN FOR 5 MINUTES", 815.0, "PT5M", "PATIENT SUPINE"]
["CDISCPILOT01", "VS", "01-701-1023", 27.0, "PULSE", "Pulse Rate", "STANDING", "91", "beats/min", "91", 91.0, "beats/min", "", "", "", 2.0, "SCREENING 2", -1.0, "SCREENING", "2012-08-03", -2.0, "AFTER STANDING FOR 1 MINUTE", 816.0, "PT1M", "PATIENT STANDING"]
["CDISCPILOT01", "VS", "01-701-1023", 28.0, "PULSE", "Pulse Rate", "STANDING", "92", "beats/min", "92", 92.0, "beats/min", "", "", "", 2.0, "SCREENING 2", -1.0, "SCREENING", "2012-08-03", -2.0, "AFTER STANDING FOR 3 MINUTES", 817.0, "PT3M", "PATIENT STANDING"]
["CDISCPILOT01", "VS", "01-701-1023", 29.0, "PULSE", "Pulse Rate", "SUPINE", "68", "beats/min", "68", 68.0, "beats/min", "", "", "Y", 3.0, "BASELINE", 1.0, "TREATMENT", "2012-08-05", 1.0, "AFTER LYING DOWN FOR 5 MINUTES", 815.0, "PT5M", "PATIENT SUPINE"]
["CDISCPILOT01", "VS", "01-701-1023", 30.0, "PULSE", "Pulse Rate", "STANDING", "80", "beats/min", "80", 80.0, "beats/min", "", "", "Y", 3.0, "BASELINE", 1.0, "TREATMENT", "2012-08-05", 1.0, "AFTER STANDING FOR 1 MINUTE", 816.0, "PT1M", "PATIENT STANDING"]
["CDISCPILOT01", "VS", "01-701-1023", 31.0, "PULSE", "Pulse Rate", "STANDING", "76", "beats/min", "76", 76.0, "beats/min", "", "", "Y", 3.0, "BASELINE", 1.0, "TREATMENT", "2012-08-05", 1.0, "AFTER STANDING FOR 3 MINUTES", 817.0, "PT3M", "PATIENT STANDING"]
["CDISCPILOT01", "VS", "01-701-1023", 32.0, "PULSE", "Pulse Rate", "SUPINE", "71", "beats/min", "71", 71.0, "beats/min", "", "", "", 3.5, "AMBUL ECG PLACEMENT", 13.0, "TREATMENT", "2012-08-26", 22.0, "AFTER LYING DOWN FOR 5 MINUTES", 815.0, "PT5M", "PATIENT SUPINE"]
["CDISCPILOT01", "VS", "01-701-1023", 33.0, "PULSE", "Pulse Rate", "STANDING", "79", "beats/min", "79", 79.0, "beats/min", "", "", "", 3.5, "AMBUL ECG PLACEMENT", 13.0, "TREATMENT", "2012-08-26", 22.0, "AFTER STANDING FOR 1 MINUTE", 816.0, "PT1M", "PATIENT STANDING"]
["CDISCPILOT01", "VS", "01-701-1023", 34.0, "PULSE", "Pulse Rate", "STANDING", "77", "beats/min", "77", 77.0, "beats/min", "", "", "", 3.5, "AMBUL ECG PLACEMENT", 13.0, "TREATMENT", "2012-08-26", 22.0, "AFTER STANDING FOR 3 MINUTES", 817.0, "PT3M", "PATIENT STANDING"]
["CDISCPILOT01", "VS", "01-701-1023", 35.0, "PULSE", "Pulse Rate", "SUPINE", "84", "beats/min", "84", 84.0, "beats/min", "", "", "", 4.0, "WEEK 2", 14.0, "TREATMENT", "2012-08-27", 23.0, "AFTER LYING DOWN FOR 5 MINUTES", 815.0, "PT5M", "PATIENT SUPINE"]
["CDISCPILOT01", "VS", "01-701-1023", 36.0, "PULSE", "Pulse Rate", "STANDING", "92", "beats/min", "92", 92.0, "beats/min", "", "", "", 4.0, "WEEK 2", 14.0, "TREATMENT", "2012-08-27", 23.0, "AFTER STANDING FOR 1 MINUTE", 816.0, "PT1M", "PATIENT STANDING"]
["CDISCPILOT01", "VS", "01-701-1023", 37.0, "PULSE", "Pulse Rate", "STANDING", "94", "beats/min", "94", 94.0, "beats/min", "", "", "", 4.0, "WEEK 2", 14.0, "TREATMENT", "2012-08-27", 23.0, "AFTER STANDING FOR 3 MINUTES", 817.0, "PT3M", "PATIENT STANDING"]
["CDISCPILOT01", "VS", "01-701-1023", 38.0, "PULSE", "Pulse Rate", "SUPINE", "64", "beats/min", "64", 64.0, "beats/min", "", "", "", 5.0, "WEEK 4", 28.0, "TREATMENT", "2012-09-02", 29.0, "AFTER LYING DOWN FOR 5 MINUTES", 815.0, "PT5M", "PATIENT SUPINE"]
["CDISCPILOT01", "VS", "01-701-1023", 39.0, "PULSE", "Pulse Rate", "STANDING", "76", "beats/min", "76", 76.0, "beats/min", "", "", "", 5.0, "WEEK 4", 28.0, "TREATMENT", "2012-09-02", 29.0, "AFTER STANDING FOR 1 MINUTE", 816.0, "PT1M", "PATIENT STANDING"]
["CDISCPILOT01", "VS", "01-701-1023", 40.0, "PULSE", "Pulse Rate", "STANDING", "70", "beats/min", "70", 70.0, "beats/min", "", "", "", 5.0, "WEEK 4", 28.0, "TREATMENT", "2012-09-02", 29.0, "AFTER STANDING FOR 3 MINUTES", 817.0, "PT3M", "PATIENT STANDING"]
["CDISCPILOT01", "VS", "01-701-1023", 41.0, "PULSE", "Pulse Rate", "SUPINE", "72", "beats/min", "72", 72.0, "beats/min", "", "", "", 201.0, "RETRIEVAL", 168.0, "TREATMENT", "2013-02-18", 198.0, "AFTER LYING DOWN FOR 5 MINUTES", 815.0, "PT5M", "PATIENT SUPINE"]
["CDISCPILOT01", "VS", "01-701-1023", 42.0, "PULSE", "Pulse Rate", "STANDING", "84", "beats/min", "84", 84.0, "beats/min", "", "", "", 201.0, "RETRIEVAL", 168.0, "TREATMENT", "2013-02-18", 198.0, "AFTER STANDING FOR 1 MINUTE", 816.0, "PT1M", "PATIENT STANDING"]
["CDISCPILOT01", "VS", "01-701-1023", 43.0, "PULSE", "Pulse Rate", "STANDING", "76", "beats/min", "76", 76.0, "beats/min", "", "", "", 201.0, "RETRIEVAL", 168.0, "TREATMENT", "2013-02-18", 198.0, "AFTER STANDING FOR 3 MINUTES", 817.0, "PT3M", "PATIENT STANDING"]
["CDISCPILOT01", "VS", "01-701-1023", 44.0, "SYSBP", "Systolic Blood Pressure", "SUPINE", "130", "mmHg", "130", 130.0, "mmHg", "", "", "", 1.0, "SCREENING 1", -7.0, "SCREENING", "2012-07-22", -14.0, "AFTER LYING DOWN FOR 5 MINUTES", 815.0, "PT5M", "PATIENT SUPINE"]
["CDISCPILOT01", "VS", "01-701-1023", 45.0, "SYSBP", "Systolic Blood Pressure", "STANDING", "132", "mmHg", "132", 132.0, "mmHg", "", "", "", 1.0, "SCREENING 1", -7.0, "SCREENING", "2012-07-22", -14.0, "AFTER STANDING FOR 1 MINUTE", 816.0, "PT1M", "PATIENT STANDING"]
["CDISCPILOT01", "VS", "01-701-1023", 46.0, "SYSBP", "Systolic Blood Pressure", "STANDING", "140", "mmHg", "140", 140.0, "mmHg", "", "", "", 1.0, "SCREENING 1", -7.0, "SCREENING", "2012-07-22", -14.0, "AFTER STANDING FOR 3 MINUTES", 817.0, "PT3M", "PATIENT STANDING"]
["CDISCPILOT01", "VS", "01-701-1023", 47.0, "SYSBP", "Systolic Blood Pressure", "SUPINE", "131", "mmHg", "131", 131.0, "mmHg", "", "", "", 2.0, "SCREENING 2", -1.0, "SCREENING", "2012-08-03", -2.0, "AFTER LYING DOWN FOR 5 MINUTES", 815.0, "PT5M", "PATIENT SUPINE"]
["CDISCPILOT01", "VS", "01-701-1023", 48.0, "SYSBP", "Systolic Blood Pressure", "STANDING", "129", "mmHg", "129", 129.0, "mmHg", "", "", "", 2.0, "SCREENING 2", -1.0, "SCREENING", "2012-08-03", -2.0, "AFTER STANDING FOR 1 MINUTE", 816.0, "PT1M", "PATIENT STANDING"]
["CDISCPILOT01", "VS", "01-701-1023", 49.0, "SYSBP", "Systolic Blood Pressure", "STANDING", "138", "mmHg", "138", 138.0, "mmHg", "", "", "", 2.0, "SCREENING 2", -1.0, "SCREENING", "2012-08-03", -2.0, "AFTER STANDING FOR 3 MINUTES", 817.0, "PT3M", "PATIENT STANDING"]
["CDISCPILOT01", "VS", "01-701-1023", 50.0, "SYSBP", "Systolic Blood Pressure", "SUPINE", "130", "mmHg", "130", 130.0, "mmHg", "", "", "Y", 3.0, "BASELINE", 1.0, "TREATMENT", "2012-08-05", 1.0, "AFTER LYING DOWN FOR 5 MINUTES", 815.0, "PT5M", "PATIENT SUPINE"]
["CDISCPILOT01", "VS", "01-701-1023", 51.0, "SYSBP", "Systolic Blood Pressure", "STANDING", "132", "mmHg", "132", 132.0, "mmHg", "", "", "Y", 3.0, "BASELINE", 1.0, "TREATMENT", "2012-08-05", 1.0, "AFTER STANDING FOR 1 MINUTE", 816.0, "PT1M", "PATIENT STANDING"]
["CDISCPILOT01", "VS", "01-701-1023", 52.0, "SYSBP", "Systolic Blood Pressure", "STANDING", "132", "mmHg", "132", 132.0, "mmHg", "", "", "Y", 3.0, "BASELINE", 1.0, "TREATMENT", "2012-08-05", 1.0, "AFTER STANDING FOR 3 MINUTES", 817.0, "PT3M", "PATIENT STANDING"]
["CDISCPILOT01", "VS", "01-701-1023", 53.0, "SYSBP", "Systolic Blood Pressure", "SUPINE", "133", "mmHg", "133", 133.0, "mmHg", "", "", "", 3.5, "AMBUL ECG PLACEMENT", 13.0, "TREATMENT", "2012-08-26", 22.0, "AFTER LYING DOWN FOR 5 MINUTES", 815.0, "PT5M", "PATIENT SUPINE"]
["CDISCPILOT01", "VS", "01-701-1023", 54.0, "SYSBP", "Systolic Blood Pressure", "STANDING", "130", "mmHg", "130", 130.0, "mmHg", "", "", "", 3.5, "AMBUL ECG PLACEMENT", 13.0, "TREATMENT", "2012-08-26", 22.0, "AFTER STANDING FOR 1 MINUTE", 816.0, "PT1M", "PATIENT STANDING"]
["CDISCPILOT01", "VS", "01-701-1023", 55.0, "SYSBP", "Systolic Blood Pressure", "STANDING", "138", "mmHg", "138", 138.0, "mmHg", "", "", "", 3.5, "AMBUL ECG PLACEMENT", 13.0, "TREATMENT", "2012-08-26", 22.0, "AFTER STANDING FOR 3 MINUTES", 817.0, "PT3M", "PATIENT STANDING"]
["CDISCPILOT01", "VS", "01-701-1023", 56.0, "SYSBP", "Systolic Blood Pressure", "SUPINE", "122", "mmHg", "122", 122.0, "mmHg", "", "", "", 4.0, "WEEK 2", 14.0, "TREATMENT", "2012-08-27", 23.0, "AFTER LYING DOWN FOR 5 MINUTES", 815.0, "PT5M", "PATIENT SUPINE"]
["CDISCPILOT01", "VS", "01-701-1023", 57.0, "SYSBP", "Systolic Blood Pressure", "STANDING", "130", "mmHg", "130", 130.0, "mmHg", "", "", "", 4.0, "WEEK 2", 14.0, "TREATMENT", "2012-08-27", 23.0, "AFTER STANDING FOR 1 MINUTE", 816.0, "PT1M", "PATIENT STANDING"]
["CDISCPILOT01", "VS", "01-701-1023", 58.0, "SYSBP", "Systolic Blood Pressure", "STANDING", "138", "mmHg", "138", 138.0, "mmHg", "", "", "", 4.0, "WEEK 2", 14.0, "TREATMENT", "2012-08-27", 23.0, "AFTER STANDING FOR 3 MINUTES", 817.0, "PT3M", "PATIENT STANDING"]
["CDISCPILOT01", "VS", "01-701-1023", 59.0, "SYSBP", "Systolic Blood Pressure", "SUPINE", "130", "mmHg", "130", 130.0, "mmHg", "", "", "", 5.0, "WEEK 4", 28.0, "TREATMENT", "2012-09-02", 29.0, "AFTER LYING DOWN FOR 5 MINUTES", 815.0, "PT5M", "PATIENT SUPINE"]
["CDISCPILOT01", "VS", "01-701-1023", 60.0, "SYSBP", "Systolic Blood Pressure", "STANDING", "134", "mmHg", "134", 134.0, "mmHg", "", "", "", 5.0, "WEEK 4", 28.0, "TREATMENT", "2012-09-02", 29.0, "AFTER STANDING FOR 1 MINUTE", 816.0, "PT1M", "PATIENT STANDING"]
["CDISCPILOT01", "VS", "01-701-1023", 61.0, "SYSBP", "Systolic Blood Pressure", "STANDING", "136", "mmHg", "136", 136.0, "mmHg", "", "", "", 5.0, "WEEK 4", 28.0, "TREATMENT", "2012-09-02", 29.0, "AFTER STANDING FOR 3 MINUTES", 817.0, "PT3M", "PATIENT STANDING"]
["CDISCPILOT01", "VS", "01-701-1023", 62.0, "SYSBP", "Systolic Blood Pressure", "SUPINE", "125", "mmHg", "125", 125.0, "mmHg", "", "", "", 201.0, "RETRIEVAL", 168.0, "TREATMENT", "2013-02-18", 198.0, "AFTER LYING DOWN FOR 5 MINUTES", 815.0, "PT5M", "PATIENT SUPINE"]
["CDISCPILOT01", "VS", "01-701-1023", 63.0, "SYSBP", "Systolic Blood Pressure", "STANDING", "110", "mmHg", "110", 110.0, "mmHg", "", "", "", 201.0, "RETRIEVAL", 168.0, "TREATMENT", "2013-02-18", 198.0, "AFTER STANDING FOR 1 MINUTE", 816.0, "PT1M", "PATIENT STANDING"]
["CDISCPILOT01", "VS", "01-701-1023", 64.0, "SYSBP", "Systolic Blood Pressure", "STANDING", "130", "mmHg", "130", 130.0, "mmHg", "", "", "", 201.0, "RETRIEVAL", 168.0, "TREATMENT", "2013-02-18", 198.0, "AFTER STANDING FOR 3 MINUTES", 817.0, "PT3M", "PATIENT STANDING"]
["CDISCPILOT01", "VS", "01-701-1023", 65.0, "TEMP", "Temperature", "", "097.8", "F", "36.56", 36.56, "C", "", "ORAL CAVITY", "", 1.0, "SCREENING 1", -7.0, "SCREENING", "2012-07-22", -14.0, "", null, "", ""]
["CDISCPILOT01", "VS", "01-701-1023", 66.0, "TEMP", "Temperature", "", "097.8", "F", "36.56", 36.56, "C", "", "ORAL CAVITY", "", 2.0, "SCREENING 2", -1.0, "SCREENING", "2012-08-03", -2.0, "", null, "", ""]
["CDISCPILOT01", "VS", "01-701-1023", 67.0, "TEMP", "Temperature", "", "097.3", "F", "36.28", 36.28, "C", "", "ORAL CAVITY", "Y", 3.0, "BASELINE", 1.0, "TREATMENT", "2012-08-05", 1.0, "", null, "", ""]
["CDISCPILOT01", "VS", "01-701-1023", 68.0, "TEMP", "Temperature", "", "097.6", "F", "36.44", 36.44, "C", "", "ORAL CAVITY", "", 3.5, "AMBUL ECG PLACEMENT", 13.0, "TREATMENT", "2012-08-26", 22.0, "", null, "", ""]
["CDISCPILOT01", "VS", "01-701-1023", 69.0, "TEMP", "Temperature", "", "098.5", "F", "36.94", 36.94, "C", "", "ORAL CAVITY", "", 4.0, "WEEK 2", 14.0, "TREATMENT", "2012-08-27", 23.0, "", null, "", ""]
["CDISCPILOT01", "VS", "01-701-1023", 70.0, "TEMP", "Temperature", "", "097.2", "F", "36.22", 36.22, "C", "", "ORAL CAVITY", "", 5.0, "WEEK 4", 28.0, "TREATMENT", "2012-09-02", 29.0, "", null, "", ""]
["CDISCPILOT01", "VS", "01-701-1023", 71.0, "TEMP", "Temperature", "", "97.8", "F", "36.56", 36.56, "C", "", "ORAL CAVITY", "", 201.0, "RETRIEVAL", 168.0, "TREATMENT", "2013-02-18", 198.0, "", null, "", ""]
["CDISCPILOT01", "VS", "01-701-1023", 72.0, "WEIGHT", "Weight", "", "173.0", "LB", "78.47", 78.47, "kg", "", "", "", 1.0, "SCREENING 1", -7.0, "SCREENING", "2012-07-22", -14.0, "", null, "", ""]
["CDISCPILOT01", "VS", "01-701-1023", 73.0, "WEIGHT", "Weight", "", "177.0", "LB", "80.29", 80.29, "kg", "", "", "Y", 3.0, "BASELINE", 1.0, "TREATMENT", "2012-08-05", 1.0, "", null, "", ""]
["CDISCPILOT01", "VS", "01-701-1023", 74.0, "WEIGHT", "Weight", "", "178.0", "LB", "80.74", 80.74, "kg", "", "", "", 4.0, "WEEK 2", 14.0, "TREATMENT", "2012-08-27", 23.0, "", null, "", ""]
["CDISCPILOT01", "VS", "01-701-1023", 75.0, "WEIGHT", "Weight", "", "177.0", "LB", "80.29", 80.29, "kg", "", "", "", 5.0, "WEEK 4", 28.0, "TREATMENT", "2012-09-02", 29.0, "", null, "", ""]
["CDISCPILOT01", "VS", "01-701-1028", 1.0, "DIABP", "Diastolic Blood Pressure", "SUPINE", "76", "mmHg", "76", 76.0, "mmHg", "", "", "", 1.0, "SCREENING 1", -7.0, "SCREENING", "2013-07-11", -8.0, "AFTER LYING DOWN FOR 5 MINUTES", 815.0, "PT5M", "PATIENT SUPINE"]
["CDISCPILOT01", "VS", "01-701-1028", 2.0, "DIABP", "Diastolic Blood Pressure", "STANDING", "70", "mmHg", "70", 70.0, "mmHg", "", "", "", 1.0, "SCREENING 1", -7.0, "SCREENING", "2013-07-11", -8.0, "AFTER STANDING FOR 1 MINUTE", 816.0, "PT1M", "PATIENT STANDING"]
["CDISCPILOT01", "VS", "01-701-1028", 3.0, "DIABP", "Diastolic Blood Pressure", "STANDING", "73", "mmHg", "73", 73.0, "mmHg", "", "", "", 1.0, "SCREENING 1", -7.0, "SCREENING", "2013-07-11", -8.0, "AFTER STANDING FOR 3 MINUTES", 817.0, "PT3M", "PATIENT STANDING"]
["CDISCPILOT01", "VS", "01-701-1028", 4.0, "DIABP", "Diastolic Blood Pressure", "SUPINE", "76", "mmHg", "76", 76.0, "mmHg", "", "", "", 2.0, "SCREENING 2", -1.0, "SCREENING", "2013-07-17", -2.0, "AFTER LYING DOWN FOR 5 MINUTES", 815.0, "PT5M", "PATIENT SUPINE"]
["CDISCPILOT01", "VS", "01-701-1028", 5.0, "DIABP", "Diastolic Blood Pressure", "STANDING", "76", "mmHg", "76", 76.0, "mmHg", "", "", "", 2.0, "SCREENING 2", -1.0, "SCREENING", "2013-07-17", -2.0, "AFTER STANDING FOR 1 MINUTE", 816.0, "PT1M", "PATIENT STANDING"]
["CDISCPILOT01", "VS", "01-701-1028", 6.0, "DIABP", "Diastolic Blood Pressure", "STANDING", "85", "mmHg", "85", 85.0, "mmHg", "", "", "", 2.0, "SCREENING 2", -1.0, "SCREENING", "2013-07-17", -2.0, "AFTER STANDING FOR 3 MINUTES", 817.0, "PT3M", "PATIENT STANDING"]
["CDISCPILOT01", "VS", "01-701-1028", 7.0, "DIABP", "Diastolic Blood Pressure", "SUPINE", "85", "mmHg", "85", 85.0, "mmHg", "", "", "Y", 3.0, "BASELINE", 1.0, "TREATMENT", "2013-07-19", 1.0, "AFTER LYING DOWN FOR 5 MINUTES", 815.0, "PT5M", "PATIENT SUPINE"]
["CDISCPILOT01", "VS", "01-701-1028", 8.0, "DIABP", "Diastolic Blood Pressure", "STANDING", "76", "mmHg", "76", 76.0, "mmHg", "", "", "Y", 3.0, "BASELINE", 1.0, "TREATMENT", "2013-07-19", 1.0, "AFTER STANDING FOR 1 MINUTE", 816.0, "PT1M", "PATIENT STANDING"]
["CDISCPILOT01", "VS", "01-701-1028", 9.0, "DIABP", "Diastolic Blood Pressure", "STANDING", "75", "mmHg", "75", 75.0, "mmHg", "", "", "Y", 3.0, "BASELINE", 1.0, "TREATMENT", "2013-07-19", 1.0, "AFTER STANDING FOR 3 MINUTES", 817.0, "PT3M", "PATIENT STANDING"]
["CDISCPILOT01", "VS", "01-701-1028", 10.0, "DIABP", "Diastolic Blood Pressure", "SUPINE", "82", "mmHg", "82", 82.0, "mmHg", "", "", "", 3.5, "AMBUL ECG PLACEMENT", 13.0, "TREATMENT", "2013-07-31", 13.0, "AFTER LYING DOWN FOR 5 MINUTES", 815.0, "PT5M", "PATIENT SUPINE"]
["CDISCPILOT01", "VS", "01-701-1028", 11.0, "DIABP", "Diastolic Blood Pressure", "STANDING", "82", "mmHg", "82", 82.0, "mmHg", "", "", "", 3.5, "AMBUL ECG PLACEMENT", 13.0, "TREATMENT", "2013-07-31", 13.0, "AFTER STANDING FOR 1 MINUTE", 816.0, "PT1M", "PATIENT STANDING"]
["CDISCPILOT01", "VS", "01-701-1028", 12.0, "DIABP", "Diastolic Blood Pressure", "STANDING", "84", "mmHg", "84", 84.0, "mmHg", "", "", "", 3.5, "AMBUL ECG PLACEMENT", 13.0, "TREATMENT", "2013-07-31", 13.0, "AFTER STANDING FOR 3 MINUTES", 817.0, "PT3M", "PATIENT STANDING"]
["CDISCPILOT01", "VS", "01-701-1028", 13.0, "DIABP", "Diastolic Blood Pressure", "SUPINE", "78", "mmHg", "78", 78.0, "mmHg", "", "", "", 4.0, "WEEK 2", 14.0, "TREATMENT", "2013-08-01", 14.0, "AFTER LYING DOWN FOR 5 MINUTES", 815.0, "PT5M", "PATIENT SUPINE"]
["CDISCPILOT01", "VS", "01-701-1028", 14.0, "DIABP", "Diastolic Blood Pressure", "STANDING", "80", "mmHg", "80", 80.0, "mmHg", "", "", "", 4.0, "WEEK 2", 14.0, "TREATMENT", "2013-08-01", 14.0, "AFTER STANDING FOR 1 MINUTE", 816.0, "PT1M", "PATIENT STANDING"]
["CDISCPILOT01", "VS", "01-701-1028", 15.0, "DIABP", "Diastolic Blood Pressure", "STANDING", "80", "mmHg", "80", 80.0, "mmHg", "", "", "", 4.0, "WEEK 2", 14.0, "TREATMENT", "2013-08-01", 14.0, "AFTER STANDING FOR 3 MINUTES", 817.0, "PT3M", "PATIENT STANDING"]
["CDISCPILOT01", "VS", "01-701-1028", 16.0, "DIABP", "Diastolic Blood Pressure", "SUPINE", "69", "mmHg", "69", 69.0, "mmHg", "", "", "", 5.0, "WEEK 4", 28.0, "TREATMENT", "2013-08-14", 27.0, "AFTER LYING DOWN FOR 5 MINUTES", 815.0, "PT5M", "PATIENT SUPINE"]
["CDISCPILOT01", "VS", "01-701-1028", 17.0, "DIABP", "Diastolic Blood Pressure", "STANDING", "72", "mmHg", "72", 72.0, "mmHg", "", "", "", 5.0, "WEEK 4", 28.0, "TREATMENT", "2013-08-14", 27.0, "AFTER STANDING FOR 1 MINUTE", 816.0, "PT1M", "PATIENT STANDING"]
["CDISCPILOT01", "VS", "01-701-1028", 18.0, "DIABP", "Diastolic Blood Pressure", "STANDING", "68", "mmHg", "68", 68.0, "mmHg", "", "", "", 5.0, "WEEK 4", 28.0, "TREATMENT", "2013-08-14", 27.0, "AFTER STANDING FOR 3 MINUTES", 817.0, "PT3M", "PATIENT STANDING"]
["CDISCPILOT01", "VS", "01-701-1028", 19.0, "DIABP", "Diastolic Blood Pressure", "SUPINE", "76", "mmHg", "76", 76.0, "mmHg", "", "", "", 6.0, "AMBUL ECG REMOVAL", 30.0, "TREATMENT", "2013-08-16", 29.0, "AFTER LYING DOWN FOR 5 MINUTES", 815.0, "PT5M", "PATIENT SUPINE"]
["CDISCPILOT01", "VS", "01-701-1028", 20.0, "DIABP", "Diastolic Blood Pressure", "STANDING", "85", "mmHg", "85", 85.0, "mmHg", "", "", "", 6.0, "AMBUL ECG REMOVAL", 30.0, "TREATMENT", "2013-08-16", 29.0, "AFTER STANDING FOR 1 MINUTE", 816.0, "PT1M", "PATIENT STANDING"]
["CDISCPILOT01", "VS", "01-701-1028", 21.0, "DIABP", "Diastolic Blood Pressure", "STANDING", "81", "mmHg", "81", 81.0, "mmHg", "", "", "", 6.0, "AMBUL ECG REMOVAL", 30.0, "TREATMENT", "2013-08-16", 29.0, "AFTER STANDING FOR 3 MINUTES", 817.0, "PT3M", "PATIENT STANDING"]
["CDISCPILOT01", "VS", "01-701-1028", 22.0, "DIABP", "Diastolic Blood Pressure", "SUPINE", "69", "mmHg", "69", 69.0, "mmHg", "", "", "", 7.0, "WEEK 6", 42.0, "TREATMENT", "2013-08-29", 42.0, "AFTER LYING DOWN FOR 5 MINUTES", 815.0, "PT5M", "PATIENT SUPINE"]
["CDISCPILOT01", "VS", "01-701-1028", 23.0, "DIABP", "Diastolic Blood Pressure", "STANDING", "77", "mmHg", "77", 77.0, "mmHg", "", "", "", 7.0, "WEEK 6", 42.0, "TREATMENT", "2013-08-29", 42.0, "AFTER STANDING FOR 1 MINUTE", 816.0, "PT1M", "PATIENT STANDING"]
["CDISCPILOT01", "VS", "01-701-1028", 24.0, "DIABP", "Diastolic Blood Pressure", "STANDING", "76", "mmHg", "76", 76.0, "mmHg", "", "", "", 7.0, "WEEK 6", 42.0, "TREATMENT", "2013-08-29", 42.0, "AFTER STANDING FOR 3 MINUTES", 817.0, "PT3M", "PATIENT STANDING"]
["CDISCPILOT01", "VS", "01-701-1028", 25.0, "DIABP", "Diastolic Blood Pressure", "SUPINE", "76", "mmHg", "76", 76.0, "mmHg", "", "", "", 8.0, "WEEK 8", 56.0, "TREATMENT", "2013-09-10", 54.0, "AFTER LYING DOWN FOR 5 MINUTES", 815.0, "PT5M", "PATIENT SUPINE"]
["CDISCPILOT01", "VS", "01-701-1028", 26.0, "DIABP", "Diastolic Blood Pressure", "STANDING", "81", "mmHg", "81", 81.0, "mmHg", "", "", "", 8.0, "WEEK 8", 56.0, "TREATMENT", "2013-09-10", 54.0, "AFTER STANDING FOR 1 MINUTE", 816.0, "PT1M", "PATIENT STANDING"]
["CDISCPILOT01", "VS", "01-701-1028", 27.0, "DIABP", "Diastolic Blood Pressure", "STANDING", "84", "mmHg", "84", 84.0, "mmHg", "", "", "", 8.0, "WEEK 8", 56.0, "TREATMENT", "2013-09-10", 54.0, "AFTER STANDING FOR 3 MINUTES", 817.0, "PT3M", "PATIENT STANDING"]
["CDISCPILOT01", "VS", "01-701-1028", 28.0, "DIABP", "Diastolic Blood Pressure", "SUPINE", "74", "mmHg", "74", 74.0, "mmHg", "", "", "", 9.0, "WEEK 12", 84.0, "TREATMENT", "2013-10-09", 83.0, "AFTER LYING DOWN FOR 5 MINUTES", 815.0, "PT5M", "PATIENT SUPINE"]
["CDISCPILOT01", "VS", "01-701-1028", 29.0, "DIABP", "Diastolic Blood Pressure", "STANDING", "83", "mmHg", "83", 83.0, "mmHg", "", "", "", 9.0, "WEEK 12", 84.0, "TREATMENT", "2013-10-09", 83.0, "AFTER STANDING FOR 1 MINUTE", 816.0, "PT1M", "PATIENT STANDING"]
["CDISCPILOT01", "VS", "01-701-1028", 30.0, "DIABP", "Diastolic Blood Pressure", "STANDING", "80", "mmHg", "80", 80.0, "mmHg", "", "", "", 9.0, "WEEK 12", 84.0, "TREATMENT", "2013-10-09", 83.0, "AFTER STANDING FOR 3 MINUTES", 817.0, "PT3M", "PATIENT STANDING"]
["CDISCPILOT01", "VS", "01-701-1028", 31.0, "DIABP", "Diastolic Blood Pressure", "SUPINE", "75", "mmHg", "75", 75.0, "mmHg", "", "", "", 10.0, "WEEK 16", 112.0, "TREATMENT", "2013-11-06", 111.0, "AFTER LYING DOWN FOR 5 MINUTES", 815.0, "PT5M", "PATIENT SUPINE"]
["CDISCPILOT01", "VS", "01-701-1028", 32.0, "DIABP", "Diastolic Blood Pressure", "STANDING", "76", "mmHg", "76", 76.0, "mmHg", "", "", "", 10.0, "WEEK 16", 112.0, "TREATMENT", "2013-11-06", 111.0, "AFTER STANDING FOR 1 MINUTE", 816.0, "PT1M", "PATIENT STANDING"]
["CDISCPILOT01", "VS", "01-701-1028", 33.0, "DIABP", "Diastolic Blood Pressure", "STANDING", "78", "mmHg", "78", 78.0, "mmHg", "", "", "", 10.0, "WEEK 16", 112.0, "TREATMENT", "2013-11-06", 111.0, "AFTER STANDING FOR 3 MINUTES", 817.0, "PT3M", "PATIENT STANDING"]
["CDISCPILOT01", "VS", "01-701-1028", 34.0, "DIABP", "Diastolic Blood Pressure", "SUPINE", "79", "mmHg", "79", 79.0, "mmHg", "", "", "", 11.0, "WEEK 20", 140.0, "TREATMENT", "2013-12-04", 139.0, "AFTER LYING DOWN FOR 5 MINUTES", 815.0, "PT5M", "PATIENT SUPINE"]
["CDISCPILOT01", "VS", "01-701-1028", 35.0, "DIABP", "Diastolic Blood Pressure", "STANDING", "76", "mmHg", "76", 76.0, "mmHg", "", "", "", 11.0, "WEEK 20", 140.0, "TREATMENT", "2013-12-04", 139.0, "AFTER STANDING FOR 1 MINUTE", 816.0, "PT1M", "PATIENT STANDING"]
["CDISCPILOT01", "VS", "01-701-1028", 36.0, "DIABP", "Diastolic Blood Pressure", "STANDING", "77", "mmHg", "77", 77.0, "mmHg", "", "", "", 11.0, "WEEK 20", 140.0, "TREATMENT", "2013-12-04", 139.0, "AFTER STANDING FOR 3 MINUTES", 817.0, "PT3M", "PATIENT STANDING"]
["CDISCPILOT01", "VS", "01-701-1028", 37.0, "DIABP", "Diastolic Blood Pressure", "SUPINE", "73", "mmHg", "73", 73.0, "mmHg", "", "", "", 12.0, "WEEK 24", 168.0, "TREATMENT", "2014-01-06", 172.0, "AFTER LYING DOWN FOR 5 MINUTES", 815.0, "PT5M", "PATIENT SUPINE"]
["CDISCPILOT01", "VS", "01-701-1028", 38.0, "DIABP", "Diastolic Blood Pressure", "STANDING", "72", "mmHg", "72", 72.0, "mmHg", "", "", "", 12.0, "WEEK 24", 168.0, "TREATMENT", "2014-01-06", 172.0, "AFTER STANDING FOR 1 MINUTE", 816.0, "PT1M", "PATIENT STANDING"]
["CDISCPILOT01", "VS", "01-701-1028", 39.0, "DIABP", "Diastolic Blood Pressure", "STANDING", "77", "mmHg", "77", 77.0, "mmHg", "", "", "", 12.0, "WEEK 24", 168.0, "TREATMENT", "2014-01-06", 172.0, "AFTER STANDING FOR 3 MINUTES", 817.0, "PT3M", "PATIENT STANDING"]
["CDISCPILOT01", "VS", "01-701-1028", 40.0, "DIABP", "Diastolic Blood Pressure", "SUPINE", "70", "mmHg", "70", 70.0, "mmHg", "", "", "", 13.0, "WEEK 26", 182.0, "TREATMENT", "2014-01-14", 180.0, "AFTER LYING DOWN FOR 5 MINUTES", 815.0, "PT5M", "PATIENT SUPINE"]
["CDISCPILOT01", "VS", "01-701-1028", 41.0, "DIABP", "Diastolic Blood Pressure", "STANDING", "79", "mmHg", "79", 79.0, "mmHg", "", "", "", 13.0, "WEEK 26", 182.0, "TREATMENT", "2014-01-14", 180.0, "AFTER STANDING FOR 1 MINUTE", 816.0, "PT1M", "PATIENT STANDING"]
["CDISCPILOT01", "VS", "01-701-1028", 42.0, "DIABP", "Diastolic Blood Pressure", "STANDING", "77", "mmHg", "77", 77.0, "mmHg", "", "", "", 13.0, "WEEK 26", 182.0, "TREATMENT", "2014-01-14", 180.0, "AFTER STANDING FOR 3 MINUTES", 817.0, "PT3M", "PATIENT STANDING"]
["CDISCPILOT01", "VS", "01-701-1028", 43.0, "HEIGHT", "Height", "", "70.0", "in", "177.8", 177.8, "cm", "", "", "", 1.0, "SCREENING 1", -7.0, "SCREENING", "2013-07-11", -8.0, "", null, "", ""]
["CDISCPILOT01", "VS", "01-701-1028", 44.0, "PULSE", "Pulse Rate", "SUPINE", "54", "beats/min", "54", 54.0, "beats/min", "", "", "", 1.0, "SCREENING 1", -7.0, "SCREENING", "2013-07-11", -8.0, "AFTER LYING DOWN FOR 5 MINUTES", 815.0, "PT5M", "PATIENT SUPINE"]
["CDISCPILOT01", "VS", "01-701-1028", 45.0, "PULSE", "Pulse Rate", "STANDING", "59", "beats/min", "59", 59.0, "beats/min", "", "", "", 1.0, "SCREENING 1", -7.0, "SCREENING", "2013-07-11", -8.0, "AFTER STANDING FOR 1 MINUTE", 816.0, "PT1M", "PATIENT STANDING"]
["CDISCPILOT01", "VS", "01-701-1028", 46.0, "PULSE", "Pulse Rate", "STANDING", "59", "beats/min", "59", 59.0, "beats/min", "", "", "", 1.0, "SCREENING 1", -7.0, "SCREENING", "2013-07-11", -8.0, "AFTER STANDING FOR 3 MINUTES", 817.0, "PT3M", "PATIENT STANDING"]
["CDISCPILOT01", "VS", "01-701-1028", 47.0, "PULSE", "Pulse Rate", "SUPINE", "68", "beats/min", "68", 68.0, "beats/min", "", "", "", 2.0, "SCREENING 2", -1.0, "SCREENING", "2013-07-17", -2.0, "AFTER LYING DOWN FOR 5 MINUTES", 815.0, "PT5M", "PATIENT SUPINE"]
["CDISCPILOT01", "VS", "01-701-1028", 48.0, "PULSE", "Pulse Rate", "STANDING", "72", "beats/min", "72", 72.0, "beats/min", "", "", "", 2.0, "SCREENING 2", -1.0, "SCREENING", "2013-07-17", -2.0, "AFTER STANDING FOR 1 MINUTE", 816.0, "PT1M", "PATIENT STANDING"]
["CDISCPILOT01", "VS", "01-701-1028", 49.0, "PULSE", "Pulse Rate", "STANDING", "74", "beats/min", "74", 74.0, "beats/min", "", "", "", 2.0, "SCREENING 2", -1.0, "SCREENING", "2013-07-17", -2.0, "AFTER STANDING FOR 3 MINUTES", 817.0, "PT3M", "PATIENT STANDING"]
["CDISCPILOT01", "VS", "01-701-1028", 50.0, "PULSE", "Pulse Rate", "SUPINE", "62", "beats/min", "62", 62.0, "beats/min", "", "", "Y", 3.0, "BASELINE", 1.0, "TREATMENT", "2013-07-19", 1.0, "AFTER LYING DOWN FOR 5 MINUTES", 815.0, "PT5M", "PATIENT SUPINE"]
["CDISCPILOT01", "VS", "01-701-1028", 51.0, "PULSE", "Pulse Rate", "STANDING", "62", "beats/min", "62", 62.0, "beats/min", "", "", "Y", 3.0, "BASELINE", 1.0, "TREATMENT", "2013-07-19", 1.0, "AFTER STANDING FOR 1 MINUTE", 816.0, "PT1M", "PATIENT STANDING"]
["CDISCPILOT01", "VS", "01-701-1028", 52.0, "PULSE", "Pulse Rate", "STANDING", "66", "beats/min", "66", 66.0, "beats/min", "", "", "Y", 3.0, "BASELINE", 1.0, "TREATMENT", "2013-07-19", 1.0, "AFTER STANDING FOR 3 MINUTES", 817.0, "PT3M", "PATIENT STANDING"]
["CDISCPILOT01", "VS", "01-701-1028", 53.0, "PULSE", "Pulse Rate", "SUPINE", "60", "beats/min", "60", 60.0, "beats/min", "", "", "", 3.5, "AMBUL ECG PLACEMENT", 13.0, "TREATMENT", "2013-07-31", 13.0, "AFTER LYING DOWN FOR 5 MINUTES", 815.0, "PT5M", "PATIENT SUPINE"]
["CDISCPILOT01", "VS", "01-701-1028", 54.0, "PULSE", "Pulse Rate", "STANDING", "66", "beats/min", "66", 66.0, "beats/min", "", "", "", 3.5, "AMBUL ECG PLACEMENT", 13.0, "TREATMENT", "2013-07-31", 13.0, "AFTER STANDING FOR 1 MINUTE", 816.0, "PT1M", "PATIENT STANDING"]
["CDISCPILOT01", "VS", "01-701-1028", 55.0, "PULSE", "Pulse Rate", "STANDING", "65", "beats/min", "65", 65.0, "beats/min", "", "", "", 3.5, "AMBUL ECG PLACEMENT", 13.0, "TREATMENT", "2013-07-31", 13.0, "AFTER STANDING FOR 3 MINUTES", 817.0, "PT3M", "PATIENT STANDING"]
["CDISCPILOT01", "VS", "01-701-1028", 56.0, "PULSE", "Pulse Rate", "SUPINE", "65", "beats/min", "65", 65.0, "beats/min", "", "", "", 4.0, "WEEK 2", 14.0, "TREATMENT", "2013-08-01", 14.0, "AFTER LYING DOWN FOR 5 MINUTES", 815.0, "PT5M", "PATIENT SUPINE"]
["CDISCPILOT01", "VS", "01-701-1028", 57.0, "PULSE", "Pulse Rate", "STANDING", "77", "beats/min", "77", 77.0, "beats/min", "", "", "", 4.0, "WEEK 2", 14.0, "TREATMENT", "2013-08-01", 14.0, "AFTER STANDING FOR 1 MINUTE", 816.0, "PT1M", "PATIENT STANDING"]
["CDISCPILOT01", "VS", "01-701-1028", 58.0, "PULSE", "Pulse Rate", "STANDING", "72", "beats/min", "72", 72.0, "beats/min", "", "", "", 4.0, "WEEK 2", 14.0, "TREATMENT", "2013-08-01", 14.0, "AFTER STANDING FOR 3 MINUTES", 817.0, "PT3M", "PATIENT STANDING"]
["CDISCPILOT01", "VS", "01-701-1028", 59.0, "PULSE", "Pulse Rate", "SUPINE", "68", "beats/min", "68", 68.0, "beats/min", "", "", "", 5.0, "WEEK 4", 28.0, "TREATMENT", "2013-08-14", 27.0, "AFTER LYING DOWN FOR 5 MINUTES", 815.0, "PT5M", "PATIENT SUPINE"]
["CDISCPILOT01", "VS", "01-701-1028", 60.0, "PULSE", "Pulse Rate", "STANDING", "81", "beats/min", "81", 81.0, "beats/min", "", "", "", 5.0, "WEEK 4", 28.0, "TREATMENT", "2013-08-14", 27.0, "AFTER STANDING FOR 1 MINUTE", 816.0, "PT1M", "PATIENT STANDING"]
["CDISCPILOT01", "VS", "01-701-1028", 61.0, "PULSE", "Pulse Rate", "STANDING", "76", "beats/min", "76", 76.0, "beats/min", "", "", "", 5.0, "WEEK 4", 28.0, "TREATMENT", "2013-08-14", 27.0, "AFTER STANDING FOR 3 MINUTES", 817.0, "PT3M", "PATIENT STANDING"]
["CDISCPILOT01", "VS", "01-701-1028", 62.0, "PULSE", "Pulse Rate", "SUPINE", "63", "beats/min", "63", 63.0, "beats/min", "", "", "", 6.0, "AMBUL ECG REMOVAL", 30.0, "TREATMENT", "2013-08-16", 29.0, "AFTER LYING DOWN FOR 5 MINUTES", 815.0, "PT5M", "PATIENT SUPINE"]
["CDISCPILOT01", "VS", "01-701-1028", 63.0, "PULSE", "Pulse Rate", "STANDING", "68", "beats/min", "68", 68.0, "beats/min", "", "", "", 6.0, "AMBUL ECG REMOVAL", 30.0, "TREATMENT", "2013-08-16", 29.0, "AFTER STANDING FOR 1 MINUTE", 816.0, "PT1M", "PATIENT STANDING"]
["CDISCPILOT01", "VS", "01-701-1028", 64.0, "PULSE", "Pulse Rate", "STANDING", "70", "beats/min", "70", 70.0, "beats/min", "", "", "", 6.0, "AMBUL ECG REMOVAL", 30.0, "TREATMENT", "2013-08-16", 29.0, "AFTER STANDING FOR 3 MINUTES", 817.0, "PT3M", "PATIENT STANDING"]
["CDISCPILOT01", "VS", "01-701-1028", 65.0, "PULSE", "Pulse Rate", "SUPINE", "56", "beats/min", "56", 56.0, "beats/min", "", "", "", 7.0, "WEEK 6", 42.0, "TREATMENT", "2013-08-29", 42.0, "AFTER LYING DOWN FOR 5 MINUTES", 815.0, "PT5M", "PATIENT SUPINE"]
["CDISCPILOT01", "VS", "01-701-1028", 66.0, "PULSE", "Pulse Rate", "STANDING", "60", "beats/min", "60", 60.0, "beats/min", "", "", "", 7.0, "WEEK 6", 42.0, "TREATMENT", "2013-08-29", 42.0, "AFTER STANDING FOR 1 MINUTE", 816.0, "PT1M", "PATIENT STANDING"]
["CDISCPILOT01", "VS", "01-701-1028", 67.0, "PULSE", "Pulse Rate", "STANDING", "62", "beats/min", "62", 62.0, "beats/min", "", "", "", 7.0, "WEEK 6", 42.0, "TREATMENT", "2013-08-29", 42.0, "AFTER STANDING FOR 3 MINUTES", 817.0, "PT3M", "PATIENT STANDING"]
["CDISCPILOT01", "VS", "01-701-1028", 68.0, "PULSE", "Pulse Rate", "SUPINE", "67", "beats/min", "67", 67.0, "beats/min", "", "", "", 8.0, "WEEK 8", 56.0, "TREATMENT", "2013-09-10", 54.0, "AFTER LYING DOWN FOR 5 MINUTES", 815.0, "PT5M", "PATIENT SUPINE"]
["CDISCPILOT01", "VS", "01-701-1028", 69.0, "PULSE", "Pulse Rate", "STANDING", "76", "beats/min", "76", 76.0, "beats/min", "", "", "", 8.0, "WEEK 8", 56.0, "TREATMENT", "2013-09-10", 54.0, "AFTER STANDING FOR 1 MINUTE", 816.0, "PT1M", "PATIENT STANDING"]
["CDISCPILOT01", "VS", "01-701-1028", 70.0, "PULSE", "Pulse Rate", "STANDING", "81", "beats/min", "81", 81.0, "beats/min", "", "", "", 8.0, "WEEK 8", 56.0, "TREATMENT", "2013-09-10", 54.0, "AFTER STANDING FOR 3 MINUTES", 817.0, "PT3M", "PATIENT STANDING"]
["CDISCPILOT01", "VS", "01-701-1028", 71.0, "PULSE", "Pulse Rate", "SUPINE", "61", "beats/min", "61", 61.0, "beats/min", "", "", "", 9.0, "WEEK 12", 84.0, "TREATMENT", "2013-10-09", 83.0, "AFTER LYING DOWN FOR 5 MINUTES", 815.0, "PT5M", "PATIENT SUPINE"]
["CDISCPILOT01", "VS", "01-701-1028", 72.0, "PULSE", "Pulse Rate", "STANDING", "64", "beats/min", "64", 64.0, "beats/min", "", "", "", 9.0, "WEEK 12", 84.0, "TREATMENT", "2013-10-09", 83.0, "AFTER STANDING FOR 1 MINUTE", 816.0, "PT1M", "PATIENT STANDING"]
["CDISCPILOT01", "VS", "01-701-1028", 73.0, "PULSE", "Pulse Rate", "STANDING", "70", "beats/min", "70", 70.0, "beats/min", "", "", "", 9.0, "WEEK 12", 84.0, "TREATMENT", "2013-10-09", 83.0, "AFTER STANDING FOR 3 MINUTES", 817.0, "PT3M", "PATIENT STANDING"]
["CDISCPILOT01", "VS", "01-701-1028", 74.0, "PULSE", "Pulse Rate", "SUPINE", "60", "beats/min", "60", 60.0, "beats/min", "", "", "", 10.0, "WEEK 16", 112.0, "TREATMENT", "2013-11-06", 111.0, "AFTER LYING DOWN FOR 5 MINUTES", 815.0, "PT5M", "PATIENT SUPINE"]
["CDISCPILOT01", "VS", "01-701-1028", 75.0, "PULSE", "Pulse Rate", "STANDING", "70", "beats/min", "70", 70.0, "beats/min", "", "", "", 10.0, "WEEK 16", 112.0, "TREATMENT", "2013-11-06", 111.0, "AFTER STANDING FOR 1 MINUTE", 816.0, "PT1M", "PATIENT STANDING"]
["CDISCPILOT01", "VS", "01-701-1028", 76.0, "PULSE", "Pulse Rate", "STANDING", "69", "beats/min", "69", 69.0, "beats/min", "", "", "", 10.0, "WEEK 16", 112.0, "TREATMENT", "2013-11-06", 111.0, "AFTER STANDING FOR 3 MINUTES", 817.0, "PT3M", "PATIENT STANDING"]
["CDISCPILOT01", "VS", "01-701-1028", 77.0, "PULSE", "Pulse Rate", "SUPINE", "60", "beats/min", "60", 60.0, "beats/min", "", "", "", 11.0, "WEEK 20", 140.0, "TREATMENT", "2013-12-04", 139.0, "AFTER LYING DOWN FOR 5 MINUTES", 815.0, "PT5M", "PATIENT SUPINE"]
["CDISCPILOT01", "VS", "01-701-1028", 78.0, "PULSE", "Pulse Rate", "STANDING", "67", "beats/min", "67", 67.0, "beats/min", "", "", "", 11.0, "WEEK 20", 140.0, "TREATMENT", "2013-12-04", 139.0, "AFTER STANDING FOR 1 MINUTE", 816.0, "PT1M", "PATIENT STANDING"]
["CDISCPILOT01", "VS", "01-701-1028", 79.0, "PULSE", "Pulse Rate", "STANDING", "69", "beats/min", "69", 69.0, "beats/min", "", "", "", 11.0, "WEEK 20", 140.0, "TREATMENT", "2013-12-04", 139.0, "AFTER STANDING FOR 3 MINUTES", 817.0, "PT3M", "PATIENT STANDING"]
["CDISCPILOT01", "VS", "01-701-1028", 80.0, "PULSE", "Pulse Rate", "SUPINE", "62", "beats/min", "62", 62.0, "beats/min", "", "", "", 12.0, "WEEK 24", 168.0, "TREATMENT", "2014-01-06", 172.0, "AFTER LYING DOWN FOR 5 MINUTES", 815.0, "PT5M", "PATIENT SUPINE"]
["CDISCPILOT01", "VS", "01-701-1028", 81.0, "PULSE", "Pulse Rate", "STANDING", "72", "beats/min", "72", 72.0, "beats/min", "", "", "", 12.0, "WEEK 24", 168.0, "TREATMENT", "2014-01-06", 172.0, "AFTER STANDING FOR 1 MINUTE", 816.0, "PT1M", "PATIENT STANDING"]
["CDISCPILOT01", "VS", "01-701-1028", 82.0, "PULSE", "Pulse Rate", "STANDING", "73", "beats/min", "73", 73.0, "beats/min", "", "", "", 12.0, "WEEK 24", 168.0, "TREATMENT", "2014-01-06", 172.0, "AFTER STANDING FOR 3 MINUTES", 817.0, "PT3M", "PATIENT STANDING"]
["CDISCPILOT01", "VS", "01-701-1028", 83.0, "PULSE", "Pulse Rate", "SUPINE", "53", "beats/min", "53", 53.0, "beats/min", "", "", "", 13.0, "WEEK 26", 182.0, "TREATMENT", "2014-01-14", 180.0, "AFTER LYING DOWN FOR 5 MINUTES", 815.0, "PT5M", "PATIENT SUPINE"]
["CDISCPILOT01", "VS", "01-701-1028", 84.0, "PULSE", "Pulse Rate", "STANDING", "58", "beats/min", "58", 58.0, "beats/min", "", "", "", 13.0, "WEEK 26", 182.0, "TREATMENT", "2014-01-14", 180.0, "AFTER STANDING FOR 1 MINUTE", 816.0, "PT1M", "PATIENT STANDING"]
["CDISCPILOT01", "VS", "01-701-1028", 85.0, "PULSE", "Pulse Rate", "STANDING", "59", "beats/min", "59", 59.0, "beats/min", "", "", "", 13.0, "WEEK 26", 182.0, "TREATMENT", "2014-01-14", 180.0, "AFTER STANDING FOR 3 MINUTES", 817.0, "PT3M", "PATIENT STANDING"]
["CDISCPILOT01", "VS", "01-701-1028", 86.0, "SYSBP", "Systolic Blood Pressure", "SUPINE", "143", "mmHg", "143", 143.0, "mmHg", "", "", "", 1.0, "SCREENING 1", -7.0, "SCREENING", "2013-07-11", -8.0, "AFTER LYING DOWN FOR 5 MINUTES", 815.0, "PT5M", "PATIENT SUPINE"]
["CDISCPILOT01", "VS", "01-701-1028", 87.0, "SYSBP", "Systolic Blood Pressure", "STANDING", "140", "mmHg", "140", 140.0, "mmHg", "", "", "", 1.0, "SCREENING 1", -7.0, "SCREENING", "2013-07-11", -8.0, "AFTER STANDING FOR 1 MINUTE", 816.0, "PT1M", "PATIENT STANDING"]
["CDISCPILOT01", "VS", "01-701-1028", 88.0, "SYSBP", "Systolic Blood Pressure", "STANDING", "132", "mmHg", "132", 132.0, "mmHg", "", "", "", 1.0, "SCREENING 1", -7.0, "SCREENING", "2013-07-11", -8.0, "AFTER STANDING FOR 3 MINUTES", 817.0, "PT3M", "PATIENT STANDING"]
["CDISCPILOT01", "VS", "01-701-1028", 89.0, "SYSBP", "Systolic Blood Pressure", "SUPINE", "122", "mmHg", "122", 122.0, "mmHg", "", "", "", 2.0, "SCREENING 2", -1.0, "SCREENING", "2013-07-17", -2.0, "AFTER LYING DOWN FOR 5 MINUTES", 815.0, "PT5M", "PATIENT SUPINE"]
["CDISCPILOT01", "VS", "01-701-1028", 90.0, "SYSBP", "Systolic Blood Pressure", "STANDING", "142", "mmHg", "142", 142.0, "mmHg", "", "", "", 2.0, "SCREENING 2", -1.0, "SCREENING", "2013-07-17", -2.0, "AFTER STANDING FOR 1 MINUTE", 816.0, "PT1M", "PATIENT STANDING"]
["CDISCPILOT01", "VS", "01-701-1028", 91.0, "SYSBP", "Systolic Blood Pressure", "STANDING", "132", "mmHg", "132", 132.0, "mmHg", "", "", "", 2.0, "SCREENING 2", -1.0, "SCREENING", "2013-07-17", -2.0, "AFTER STANDING FOR 3 MINUTES", 817.0, "PT3M", "PATIENT STANDING"]
["CDISCPILOT01", "VS", "01-701-1028", 92.0, "SYSBP", "Systolic Blood Pressure", "SUPINE", "138", "mmHg", "138", 138.0, "mmHg", "", "", "Y", 3.0, "BASELINE", 1.0, "TREATMENT", "2013-07-19", 1.0, "AFTER LYING DOWN FOR 5 MINUTES", 815.0, "PT5M", "PATIENT SUPINE"]
["CDISCPILOT01", "VS", "01-701-1028", 93.0, "SYSBP", "Systolic Blood Pressure", "STANDING", "145", "mmHg", "145", 145.0, "mmHg", "", "", "Y", 3.0, "BASELINE", 1.0, "TREATMENT", "2013-07-19", 1.0, "AFTER STANDING FOR 1 MINUTE", 816.0, "PT1M", "PATIENT STANDING"]
["CDISCPILOT01", "VS", "01-701-1028", 94.0, "SYSBP", "Systolic Blood Pressure", "STANDING", "139", "mmHg", "139", 139.0, "mmHg", "", "", "Y", 3.0, "BASELINE", 1.0, "TREATMENT", "2013-07-19", 1.0, "AFTER STANDING FOR 3 MINUTES", 817.0, "PT3M", "PATIENT STANDING"]
["CDISCPILOT01", "VS", "01-701-1028", 95.0, "SYSBP", "Systolic Blood Pressure", "SUPINE", "138", "mmHg", "138", 138.0, "mmHg", "", "", "", 3.5, "AMBUL ECG PLACEMENT", 13.0, "TREATMENT", "2013-07-31", 13.0, "AFTER LYING DOWN FOR 5 MINUTES", 815.0, "PT5M", "PATIENT SUPINE"]
["CDISCPILOT01", "VS", "01-701-1028", 96.0, "SYSBP", "Systolic Blood Pressure", "STANDING", "137", "mmHg", "137", 137.0, "mmHg", "", "", "", 3.5, "AMBUL ECG PLACEMENT", 13.0, "TREATMENT", "2013-07-31", 13.0, "AFTER STANDING FOR 1 MINUTE", 816.0, "PT1M", "PATIENT STANDING"]
["CDISCPILOT01", "VS", "01-701-1028", 97.0, "SYSBP", "Systolic Blood Pressure", "STANDING", "145", "mmHg", "145", 145.0, "mmHg", "", "", "", 3.5, "AMBUL ECG PLACEMENT", 13.0, "TREATMENT", "2013-07-31", 13.0, "AFTER STANDING FOR 3 MINUTES", 817.0, "PT3M", "PATIENT STANDING"]
["CDISCPILOT01", "VS", "01-701-1028", 98.0, "SYSBP", "Systolic Blood Pressure", "SUPINE", "134", "mmHg", "134", 134.0, "mmHg", "", "", "", 4.0, "WEEK 2", 14.0, "TREATMENT", "2013-08-01", 14.0, "AFTER LYING DOWN FOR 5 MINUTES", 815.0, "PT5M", "PATIENT SUPINE"]
["CDISCPILOT01", "VS", "01-701-1028", 99.0, "SYSBP", "Systolic Blood Pressure", "STANDING", "138", "mmHg", "138", 138.0, "mmHg", "", "", "", 4.0, "WEEK 2", 14.0, "TREATMENT", "2013-08-01", 14.0, "AFTER STANDING FOR 1 MINUTE", 816.0, "PT1M", "PATIENT STANDING"]
["CDISCPILOT01", "VS", "01-701-1028", 100.0, "SYSBP", "Systolic Blood Pressure", "STANDING", "131", "mmHg", "131", 131.0, "mmHg", "", "", "", 4.0, "WEEK 2", 14.0, "TREATMENT", "2013-08-01", 14.0, "AFTER STANDING FOR 3 MINUTES", 817.0, "PT3M", "PATIENT STANDING"]
["CDISCPILOT01", "VS", "01-701-1028", 101.0, "SYSBP", "Systolic Blood Pressure", "SUPINE", "130", "mmHg", "130", 130.0, "mmHg", "", "", "", 5.0, "WEEK 4", 28.0, "TREATMENT", "2013-08-14", 27.0, "AFTER LYING DOWN FOR 5 MINUTES", 815.0, "PT5M", "PATIENT SUPINE"]
["CDISCPILOT01", "VS", "01-701-1028", 102.0, "SYSBP", "Systolic Blood Pressure", "STANDING", "130", "mmHg", "130", 130.0, "mmHg", "", "", "", 5.0, "WEEK 4", 28.0, "TREATMENT", "2013-08-14", 27.0, "AFTER STANDING FOR 1 MINUTE", 816.0, "PT1M", "PATIENT STANDING"]
["CDISCPILOT01", "VS", "01-701-1028", 103.0, "SYSBP", "Systolic Blood Pressure", "STANDING", "138", "mmHg", "138", 138.0, "mmHg", "", "", "", 5.0, "WEEK 4", 28.0, "TREATMENT", "2013-08-14", 27.0, "AFTER STANDING FOR 3 MINUTES", 817.0, "PT3M", "PATIENT STANDING"]
["CDISCPILOT01", "VS", "01-701-1028", 104.0, "SYSBP", "Systolic Blood Pressure", "SUPINE", "138", "mmHg", "138", 138.0, "mmHg", "", "", "", 6.0, "AMBUL ECG REMOVAL", 30.0, "TREATMENT", "2013-08-16", 29.0, "AFTER LYING DOWN FOR 5 MINUTES", 815.0, "PT5M", "PATIENT SUPINE"]
["CDISCPILOT01", "VS", "01-701-1028", 105.0, "SYSBP", "Systolic Blood Pressure", "STANDING", "138", "mmHg", "138", 138.0, "mmHg", "", "", "", 6.0, "AMBUL ECG REMOVAL", 30.0, "TREATMENT", "2013-08-16", 29.0, "AFTER STANDING FOR 1 MINUTE", 816.0, "PT1M", "PATIENT STANDING"]
["CDISCPILOT01", "VS", "01-701-1028", 106.0, "SYSBP", "Systolic Blood Pressure", "STANDING", "146", "mmHg", "146", 146.0, "mmHg", "", "", "", 6.0, "AMBUL ECG REMOVAL", 30.0, "TREATMENT", "2013-08-16", 29.0, "AFTER STANDING FOR 3 MINUTES", 817.0, "PT3M", "PATIENT STANDING"]
["CDISCPILOT01", "VS", "01-701-1028", 107.0, "SYSBP", "Systolic Blood Pressure", "SUPINE", "131", "mmHg", "131", 131.0, "mmHg", "", "", "", 7.0, "WEEK 6", 42.0, "TREATMENT", "2013-08-29", 42.0, "AFTER LYING DOWN FOR 5 MINUTES", 815.0, "PT5M", "PATIENT SUPINE"]
["CDISCPILOT01", "VS", "01-701-1028", 108.0, "SYSBP", "Systolic Blood Pressure", "STANDING", "131", "mmHg", "131", 131.0, "mmHg", "", "", "", 7.0, "WEEK 6", 42.0, "TREATMENT", "2013-08-29", 42.0, "AFTER STANDING FOR 1 MINUTE", 816.0, "PT1M", "PATIENT STANDING"]
["CDISCPILOT01", "VS", "01-701-1028", 109.0, "SYSBP", "Systolic Blood Pressure", "STANDING", "132", "mmHg", "132", 132.0, "mmHg", "", "", "", 7.0, "WEEK 6", 42.0, "TREATMENT", "2013-08-29", 42.0, "AFTER STANDING FOR 3 MINUTES", 817.0, "PT3M", "PATIENT STANDING"]
["CDISCPILOT01", "VS", "01-701-1028", 110.0, "SYSBP", "Systolic Blood Pressure", "SUPINE", "137", "mmHg", "137", 137.0, "mmHg", "", "", "", 8.0, "WEEK 8", 56.0, "TREATMENT", "2013-09-10", 54.0, "AFTER LYING DOWN FOR 5 MINUTES", 815.0, "PT5M", "PATIENT SUPINE"]
["CDISCPILOT01", "VS", "01-701-1028", 111.0, "SYSBP", "Systolic Blood Pressure", "STANDING", "146", "mmHg", "146", 146.0, "mmHg", "", "", "", 8.0, "WEEK 8", 56.0, "TREATMENT", "2013-09-10", 54.0, "AFTER STANDING FOR 1 MINUTE", 816.0, "PT1M", "PATIENT STANDING"]
["CDISCPILOT01", "VS", "01-701-1028", 112.0, "SYSBP", "Systolic Blood Pressure", "STANDING", "130", "mmHg", "130", 130.0, "mmHg", "", "", "", 8.0, "WEEK 8", 56.0, "TREATMENT", "2013-09-10", 54.0, "AFTER STANDING FOR 3 MINUTES", 817.0, "PT3M", "PATIENT STANDING"]
["CDISCPILOT01", "VS", "01-701-1028", 113.0, "SYSBP", "Systolic Blood Pressure", "SUPINE", "128", "mmHg", "128", 128.0, "mmHg", "", "", "", 9.0, "WEEK 12", 84.0, "TREATMENT", "2013-10-09", 83.0, "AFTER LYING DOWN FOR 5 MINUTES", 815.0, "PT5M", "PATIENT SUPINE"]
["CDISCPILOT01", "VS", "01-701-1028", 114.0, "SYSBP", "Systolic Blood Pressure", "STANDING", "137", "mmHg", "137", 137.0, "mmHg", "", "", "", 9.0, "WEEK 12", 84.0, "TREATMENT", "2013-10-09", 83.0, "AFTER STANDING FOR 1 MINUTE", 816.0, "PT1M", "PATIENT STANDING"]
["CDISCPILOT01", "VS", "01-701-1028", 115.0, "SYSBP", "Systolic Blood Pressure", "STANDING", "138", "mmHg", "138", 138.0, "mmHg", "", "", "", 9.0, "WEEK 12", 84.0, "TREATMENT", "2013-10-09", 83.0, "AFTER STANDING FOR 3 MINUTES", 817.0, "PT3M", "PATIENT STANDING"]
["CDISCPILOT01", "VS", "01-701-1028", 116.0, "SYSBP", "Systolic Blood Pressure", "SUPINE", "122", "mmHg", "122", 122.0, "mmHg", "", "", "", 10.0, "WEEK 16", 112.0, "TREATMENT", "2013-11-06", 111.0, "AFTER LYING DOWN FOR 5 MINUTES", 815.0, "PT5M", "PATIENT SUPINE"]
["CDISCPILOT01", "VS", "01-701-1028", 117.0, "SYSBP", "Systolic Blood Pressure", "STANDING", "130", "mmHg", "130", 130.0, "mmHg", "", "", "", 10.0, "WEEK 16", 112.0, "TREATMENT", "2013-11-06", 111.0, "AFTER STANDING FOR 1 MINUTE", 816.0, "PT1M", "PATIENT STANDING"]
["CDISCPILOT01", "VS", "01-701-1028", 118.0, "SYSBP", "Systolic Blood Pressure", "STANDING", "132", "mmHg", "132", 132.0, "mmHg", "", "", "", 10.0, "WEEK 16", 112.0, "TREATMENT", "2013-11-06", 111.0, "AFTER STANDING FOR 3 MINUTES", 817.0, "PT3M", "PATIENT STANDING"]
["CDISCPILOT01", "VS", "01-701-1028", 119.0, "SYSBP", "Systolic Blood Pressure", "SUPINE", "129", "mmHg", "129", 129.0, "mmHg", "", "", "", 11.0, "WEEK 20", 140.0, "TREATMENT", "2013-12-04", 139.0, "AFTER LYING DOWN FOR 5 MINUTES", 815.0, "PT5M", "PATIENT SUPINE"]
["CDISCPILOT01", "VS", "01-701-1028", 120.0, "SYSBP", "Systolic Blood Pressure", "STANDING", "123", "mmHg", "123", 123.0, "mmHg", "", "", "", 11.0, "WEEK 20", 140.0, "TREATMENT", "2013-12-04", 139.0, "AFTER STANDING FOR 1 MINUTE", 816.0, "PT1M", "PATIENT STANDING"]
["CDISCPILOT01", "VS", "01-701-1028", 121.0, "SYSBP", "Systolic Blood Pressure", "STANDING", "131", "mmHg", "131", 131.0, "mmHg", "", "", "", 11.0, "WEEK 20", 140.0, "TREATMENT", "2013-12-04", 139.0, "AFTER STANDING FOR 3 MINUTES", 817.0, "PT3M", "PATIENT STANDING"]
["CDISCPILOT01", "VS", "01-701-1028", 122.0, "SYSBP", "Systolic Blood Pressure", "SUPINE", "130", "mmHg", "130", 130.0, "mmHg", "", "", "", 12.0, "WEEK 24", 168.0, "TREATMENT", "2014-01-06", 172.0, "AFTER LYING DOWN FOR 5 MINUTES", 815.0, "PT5M", "PATIENT SUPINE"]
["CDISCPILOT01", "VS", "01-701-1028", 123.0, "SYSBP", "Systolic Blood Pressure", "STANDING", "133", "mmHg", "133", 133.0, "mmHg", "", "", "", 12.0, "WEEK 24", 168.0, "TREATMENT", "2014-01-06", 172.0, "AFTER STANDING FOR 1 MINUTE", 816.0, "PT1M", "PATIENT STANDING"]
["CDISCPILOT01", "VS", "01-701-1028", 124.0, "SYSBP", "Systolic Blood Pressure", "STANDING", "131", "mmHg", "131", 131.0, "mmHg", "", "", "", 12.0, "WEEK 24", 168.0, "TREATMENT", "2014-01-06", 172.0, "AFTER STANDING FOR 3 MINUTES", 817.0, "PT3M", "PATIENT STANDING"]
["CDISCPILOT01", "VS", "01-701-1028", 125.0, "SYSBP", "Systolic Blood Pressure", "SUPINE", "131", "mmHg", "131", 131.0, "mmHg", "", "", "", 13.0, "WEEK 26", 182.0, "TREATMENT", "2014-01-14", 180.0, "AFTER LYING DOWN FOR 5 MINUTES", 815.0, "PT5M", "PATIENT SUPINE"]
["CDISCPILOT01", "VS", "01-701-1028", 126.0, "SYSBP", "Systolic Blood Pressure", "STANDING", "118", "mmHg", "118", 118.0, "mmHg", "", "", "", 13.0, "WEEK 26", 182.0, "TREATMENT", "2014-01-14", 180.0, "AFTER STANDING FOR 1 MINUTE", 816.0, "PT1M", "PATIENT STANDING"]
["CDISCPILOT01", "VS", "01-701-1028", 127.0, "SYSBP", "Systolic Blood Pressure", "STANDING", "131", "mmHg", "131", 131.0, "mmHg", "", "", "", 13.0, "WEEK 26", 182.0, "TREATMENT", "2014-01-14", 180.0, "AFTER STANDING FOR 3 MINUTES", 817.0, "PT3M", "PATIENT STANDING"]
["CDISCPILOT01", "VS", "01-701-1028", 128.0, "TEMP", "Temperature", "", "98.5", "F", "36.94", 36.94, "C", "", "ORAL CAVITY", "", 1.0, "SCREENING 1", -7.0, "SCREENING", "2013-07-11", -8.0, "", null, "", ""]
["CDISCPILOT01", "VS", "01-701-1028", 129.0, "TEMP", "Temperature", "", "96.7", "F", "35.94", 35.94, "C", "", "ORAL CAVITY", "", 2.0, "SCREENING 2", -1.0, "SCREENING", "2013-07-17", -2.0, "", null, "", ""]
["CDISCPILOT01", "VS", "01-701-1028", 130.0, "TEMP", "Temperature", "", "98.6", "F", "37", 37.0, "C", "", "ORAL CAVITY", "Y", 3.0, "BASELINE", 1.0, "TREATMENT", "2013-07-19", 1.0, "", null, "", ""]
["CDISCPILOT01", "VS", "01-701-1028", 131.0, "TEMP", "Temperature", "", "98.2", "F", "36.78", 36.78, "C", "", "ORAL CAVITY", "", 3.5, "AMBUL ECG PLACEMENT", 13.0, "TREATMENT", "2013-07-31", 13.0, "", null, "", ""]
["CDISCPILOT01", "VS", "01-701-1028", 132.0, "TEMP", "Temperature", "", "99.0", "F", "37.22", 37.22, "C", "", "ORAL CAVITY", "", 4.0, "WEEK 2", 14.0, "TREATMENT", "2013-08-01", 14.0, "", null, "", ""]
["CDISCPILOT01", "VS", "01-701-1028", 133.0, "TEMP", "Temperature", "", "98.5", "F", "36.94", 36.94, "C", "", "ORAL CAVITY", "", 5.0, "WEEK 4", 28.0, "TREATMENT", "2013-08-14", 27.0, "", null, "", ""]
["CDISCPILOT01", "VS", "01-701-1028", 134.0, "TEMP", "Temperature", "", "98.2", "F", "36.78", 36.78, "C", "", "ORAL CAVITY", "", 6.0, "AMBUL ECG REMOVAL", 30.0, "TREATMENT", "2013-08-16", 29.0, "", null, "", ""]
["CDISCPILOT01", "VS", "01-701-1028", 135.0, "TEMP", "Temperature", "", "97.7", "F", "36.5", 36.5, "C", "", "ORAL CAVITY", "", 7.0, "WEEK 6", 42.0, "TREATMENT", "2013-08-29", 42.0, "", null, "", ""]
["CDISCPILOT01", "VS", "01-701-1028", 136.0, "TEMP", "Temperature", "", "98.1", "F", "36.72", 36.72, "C", "", "ORAL CAVITY", "", 8.0, "WEEK 8", 56.0, "TREATMENT", "2013-09-10", 54.0, "", null, "", ""]
["CDISCPILOT01", "VS", "01-701-1028", 137.0, "TEMP", "Temperature", "", "98.3", "F", "36.83", 36.83, "C", "", "ORAL CAVITY", "", 9.0, "WEEK 12", 84.0, "TREATMENT", "2013-10-09", 83.0, "", null, "", ""]
["CDISCPILOT01", "VS", "01-701-1028", 138.0, "TEMP", "Temperature", "", "97.8", "F", "36.56", 36.56, "C", "", "ORAL CAVITY", "", 10.0, "WEEK 16", 112.0, "TREATMENT", "2013-11-06", 111.0, "", null, "", ""]
["CDISCPILOT01", "VS", "01-701-1028", 139.0, "TEMP", "Temperature", "", "97.6", "F", "36.44", 36.44, "C", "", "ORAL CAVITY", "", 11.0, "WEEK 20", 140.0, "TREATMENT", "2013-12-04", 139.0, "", null, "", ""]
["CDISCPILOT01", "VS", "01-701-1028", 140.0, "TEMP", "Temperature", "", "98.8", "F", "37.11", 37.11, "C", "", "ORAL CAVITY", "", 12.0, "WEEK 24", 168.0, "TREATMENT", "2014-01-06", 172.0, "", null, "", ""]
["CDISCPILOT01", "VS", "01-701-1028", 141.0, "TEMP", "Temperature", "", "97.8", "F", "36.56", 36.56, "C", "", "ORAL CAVITY", "", 13.0, "WEEK 26", 182.0, "TREATMENT", "2014-01-14", 180.0, "", null, "", ""]
["CDISCPILOT01", "VS", "01-701-1028", 142.0, "WEIGHT", "Weight", "", "218.0", "LB", "98.88", 98.88, "kg", "", "", "", 1.0, "SCREENING 1", -7.0, "SCREENING", "2013-07-11", -8.0, "", null, "", ""]
["CDISCPILOT01", "VS", "01-701-1028", 143.0, "WEIGHT", "Weight", "", "219.0", "LB", "99.34", 99.34, "kg", "", "", "Y", 3.0, "BASELINE", 1.0, "TREATMENT", "2013-07-19", 1.0, "", null, "", ""]
["CDISCPILOT01", "VS", "01-701-1028", 144.0, "WEIGHT", "Weight", "", "219.0", "LB", "99.34", 99.34, "kg", "", "", "", 4.0, "WEEK 2", 14.0, "TREATMENT", "2013-08-01", 14.0, "", null, "", ""]
["CDISCPILOT01", "VS", "01-701-1028", 145.0, "WEIGHT", "Weight", "", "218.0", "LB", "98.88", 98.88, "kg", "", "", "", 5.0, "WEEK 4", 28.0, "TREATMENT", "2013-08-14", 27.0, "", null, "", ""]
["CDISCPILOT01", "VS", "01-701-1028", 146.0, "WEIGHT", "Weight", "", "217.0", "LB", "98.43", 98.43, "kg", "", "", "", 7.0, "WEEK 6", 42.0, "TREATMENT", "2013-08-29", 42.0, "", null, "", ""]
["CDISCPILOT01", "VS", "01-701-1028", 147.0, "WEIGHT", "Weight", "", "219.0", "LB", "99.34", 99.34, "kg", "", "", "", 8.0, "WEEK 8", 56.0, "TREATMENT", "2013-09-10", 54.0, "", null, "", ""]
["CDISCPILOT01", "VS", "01-701-1028", 148.0, "WEIGHT", "Weight", "", "218.0", "LB", "98.88", 98.88, "kg", "", "", "", 9.0, "WEEK 12", 84.0, "TREATMENT", "2013-10-09", 83.0, "", null, "", ""]
["CDISCPILOT01", "VS", "01-701-1028", 149.0, "WEIGHT", "Weight", "", "220.0", "LB", "99.79", 99.79, "kg", "", "", "", 10.0, "WEEK 16", 112.0, "TREATMENT", "2013-11-06", 111.0, "", null, "", ""]
["CDISCPILOT01", "VS", "01-701-1028", 150.0, "WEIGHT", "Weight", "", "220.0", "LB", "99.79", 99.79, "kg", "", "", "", 11.0, "WEEK 20", 140.0, "TREATMENT", "2013-12-04", 139.0, "", null, "", ""]
["CDISCPILOT01", "VS", "01-701-1028", 151.0, "WEIGHT", "Weight", "", "219.0", "LB", "99.34", 99.34, "kg", "", "", "", 12.0, "WEEK 24", 168.0, "TREATMENT", "2014-01-06", 172.0, "", null, "", ""]
["CDISCPILOT01", "VS", "01-701-1028", 152.0, "WEIGHT", "Weight", "", "220.0", "LB", "99.79", 99.79, "kg", "", "", "", 13.0, "WEEK 26", 182.0, "TREATMENT", "2014-01-14", 180.0, "", null, "", ""]
["CDISCPILOT01", "VS", "01-701-1033", 1.0, "DIABP", "Diastolic Blood Pressure", "SUPINE", "82", "mmHg", "82", 82.0, "mmHg", "", "", "", 1.0, "SCREENING 1", -7.0, "SCREENING", "2014-03-10", -8.0, "AFTER LYING DOWN FOR 5 MINUTES", 815.0, "PT5M", "PATIENT SUPINE"]
["CDISCPILOT01", "VS", "01-701-1033", 2.0, "DIABP", "Diastolic Blood Pressure", "STANDING", "67", "mmHg", "67", 67.0, "mmHg", "", "", "", 1.0, "SCREENING 1", -7.0, "SCREENING", "2014-03-10", -8.0, "AFTER STANDING FOR 1 MINUTE", 816.0, "PT1M", "PATIENT STANDING"]
["CDISCPILOT01", "VS", "01-701-1033", 3.0, "DIABP", "Diastolic Blood Pressure", "STANDING", "72", "mmHg", "72", 72.0, "mmHg", "", "", "", 1.0, "SCREENING 1", -7.0, "SCREENING", "2014-03-10", -8.0, "AFTER STANDING FOR 3 MINUTES", 817.0, "PT3M", "PATIENT STANDING"]
["CDISCPILOT01", "VS", "01-701-1033", 4.0, "DIABP", "Diastolic Blood Pressure", "SUPINE", "69", "mmHg", "69", 69.0, "mmHg", "", "", "", 2.0, "SCREENING 2", -1.0, "SCREENING", "2014-03-16", -2.0, "AFTER LYING DOWN FOR 5 MINUTES", 815.0, "PT5M", "PATIENT SUPINE"]
["CDISCPILOT01", "VS", "01-701-1033", 5.0, "DIABP", "Diastolic Blood Pressure", "STANDING", "60", "mmHg", "60", 60.0, "mmHg", "", "", "", 2.0, "SCREENING 2", -1.0, "SCREENING", "2014-03-16", -2.0, "AFTER STANDING FOR 1 MINUTE", 816.0, "PT1M", "PATIENT STANDING"]
["CDISCPILOT01", "VS", "01-701-1033", 6.0, "DIABP", "Diastolic Blood Pressure", "STANDING", "62", "mmHg", "62", 62.0, "mmHg", "", "", "", 2.0, "SCREENING 2", -1.0, "SCREENING", "2014-03-16", -2.0, "AFTER STANDING FOR 3 MINUTES", 817.0, "PT3M", "PATIENT STANDING"]
["CDISCPILOT01", "VS", "01-701-1033", 7.0, "DIABP", "Diastolic Blood Pressure", "SUPINE", "83", "mmHg", "83", 83.0, "mmHg", "", "", "Y", 3.0, "BASELINE", 1.0, "TREATMENT", "2014-03-18", 1.0, "AFTER LYING DOWN FOR 5 MINUTES", 815.0, "PT5M", "PATIENT SUPINE"]
["CDISCPILOT01", "VS", "01-701-1033", 8.0, "DIABP", "Diastolic Blood Pressure", "STANDING", "67", "mmHg", "67", 67.0, "mmHg", "", "", "Y", 3.0, "BASELINE", 1.0, "TREATMENT", "2014-03-18", 1.0, "AFTER STANDING FOR 1 MINUTE", 816.0, "PT1M", "PATIENT STANDING"]
["CDISCPILOT01", "VS", "01-701-1033", 9.0, "DIABP", "Diastolic Blood Pressure", "STANDING", "70", "mmHg", "70", 70.0, "mmHg", "", "", "Y", 3.0, "BASELINE", 1.0, "TREATMENT", "2014-03-18", 1.0, "AFTER STANDING FOR 3 MINUTES", 817.0, "PT3M", "PATIENT STANDING"]
["CDISCPILOT01", "VS", "01-701-1033", 10.0, "DIABP", "Diastolic Blood Pressure", "SUPINE", "84", "mmHg", "84", 84.0, "mmHg", "", "", "", 3.5, "AMBUL ECG PLACEMENT", 13.0, "TREATMENT", "2014-03-31", 14.0, "AFTER LYING DOWN FOR 5 MINUTES", 815.0, "PT5M", "PATIENT SUPINE"]
["CDISCPILOT01", "VS", "01-701-1033", 11.0, "DIABP", "Diastolic Blood Pressure", "STANDING", "81", "mmHg", "81", 81.0, "mmHg", "", "", "", 3.5, "AMBUL ECG PLACEMENT", 13.0, "TREATMENT", "2014-03-31", 14.0, "AFTER STANDING FOR 1 MINUTE", 816.0, "PT1M", "PATIENT STANDING"]
["CDISCPILOT01", "VS", "01-701-1033", 12.0, "DIABP", "Diastolic Blood Pressure", "STANDING", "85", "mmHg", "85", 85.0, "mmHg", "", "", "", 3.5, "AMBUL ECG PLACEMENT", 13.0, "TREATMENT", "2014-03-31", 14.0, "AFTER STANDING FOR 3 MINUTES", 817.0, "PT3M", "PATIENT STANDING"]
["CDISCPILOT01", "VS", "01-701-1033", 13.0, "DIABP", "Diastolic Blood Pressure", "SUPINE", "84", "mmHg", "84", 84.0, "mmHg", "", "", "", 4.0, "WEEK 2", 14.0, "TREATMENT", "2014-04-01", 15.0, "AFTER LYING DOWN FOR 5 MINUTES", 815.0, "PT5M", "PATIENT SUPINE"]
["CDISCPILOT01", "VS", "01-701-1033", 14.0, "DIABP", "Diastolic Blood Pressure", "STANDING", "72", "mmHg", "72", 72.0, "mmHg", "", "", "", 4.0, "WEEK 2", 14.0, "TREATMENT", "2014-04-01", 15.0, "AFTER STANDING FOR 1 MINUTE", 816.0, "PT1M", "PATIENT STANDING"]
["CDISCPILOT01", "VS", "01-701-1033", 15.0, "DIABP", "Diastolic Blood Pressure", "STANDING", "76", "mmHg", "76", 76.0, "mmHg", "", "", "", 4.0, "WEEK 2", 14.0, "TREATMENT", "2014-04-01", 15.0, "AFTER STANDING FOR 3 MINUTES", 817.0, "PT3M", "PATIENT STANDING"]
["CDISCPILOT01", "VS", "01-701-1033", 16.0, "DIABP", "Diastolic Blood Pressure", "SUPINE", "76", "mmHg", "76", 76.0, "mmHg", "", "", "", 5.0, "WEEK 4", 28.0, "TREATMENT", "2014-04-14", 28.0, "AFTER LYING DOWN FOR 5 MINUTES", 815.0, "PT5M", "PATIENT SUPINE"]
["CDISCPILOT01", "VS", "01-701-1033", 17.0, "DIABP", "Diastolic Blood Pressure", "STANDING", "67", "mmHg", "67", 67.0, "mmHg", "", "", "", 5.0, "WEEK 4", 28.0, "TREATMENT", "2014-04-14", 28.0, "AFTER STANDING FOR 1 MINUTE", 816.0, "PT1M", "PATIENT STANDING"]
["CDISCPILOT01", "VS", "01-701-1033", 18.0, "DIABP", "Diastolic Blood Pressure", "STANDING", "67", "mmHg", "67", 67.0, "mmHg", "", "", "", 5.0, "WEEK 4", 28.0, "TREATMENT", "2014-04-14", 28.0, "AFTER STANDING FOR 3 MINUTES", 817.0, "PT3M", "PATIENT STANDING"]
["CDISCPILOT01", "VS", "01-701-1033", 19.0, "DIABP", "Diastolic Blood Pressure", "SUPINE", "79", "mmHg", "79", 79.0, "mmHg", "", "", "", 201.0, "RETRIEVAL", 168.0, "FOLLOW-UP", "2014-09-15", 182.0, "AFTER LYING DOWN FOR 5 MINUTES", 815.0, "PT5M", "PATIENT SUPINE"]
["CDISCPILOT01", "VS", "01-701-1033", 20.0, "DIABP", "Diastolic Blood Pressure", "STANDING", "71", "mmHg", "71", 71.0, "mmHg", "", "", "", 201.0, "RETRIEVAL", 168.0, "FOLLOW-UP", "2014-09-15", 182.0, "AFTER STANDING FOR 1 MINUTE", 816.0, "PT1M", "PATIENT STANDING"]
["CDISCPILOT01", "VS", "01-701-1033", 21.0, "DIABP", "Diastolic Blood Pressure", "STANDING", "60", "mmHg", "60", 60.0, "mmHg", "", "", "", 201.0, "RETRIEVAL", 168.0, "FOLLOW-UP", "2014-09-15", 182.0, "AFTER STANDING FOR 3 MINUTES", 817.0, "PT3M", "PATIENT STANDING"]
["CDISCPILOT01", "VS", "01-701-1033", 22.0, "HEIGHT", "Height", "", "69.0", "in", "175.26", 175.26, "cm", "", "", "", 1.0, "SCREENING 1", -7.0, "SCREENING", "2014-03-10", -8.0, "", null, "", ""]
["CDISCPILOT01", "VS", "01-701-1033", 23.0, "PULSE", "Pulse Rate", "SUPINE", "59", "beats/min", "59", 59.0, "beats/min", "", "", "", 1.0, "SCREENING 1", -7.0, "SCREENING", "2014-03-10", -8.0, "AFTER LYING DOWN FOR 5 MINUTES", 815.0, "PT5M", "PATIENT SUPINE"]
["CDISCPILOT01", "VS", "01-701-1033", 24.0, "PULSE", "Pulse Rate", "STANDING", "70", "beats/min", "70", 70.0, "beats/min", "", "", "", 1.0, "SCREENING 1", -7.0, "SCREENING", "2014-03-10", -8.0, "AFTER STANDING FOR 1 MINUTE", 816.0, "PT1M", "PATIENT STANDING"]
["CDISCPILOT01", "VS", "01-701-1033", 25.0, "PULSE", "Pulse Rate", "STANDING", "67", "beats/min", "67", 67.0, "beats/min", "", "", "", 1.0, "SCREENING 1", -7.0, "SCREENING", "2014-03-10", -8.0, "AFTER STANDING FOR 3 MINUTES", 817.0, "PT3M", "PATIENT STANDING"]
["CDISCPILOT01", "VS", "01-701-1033", 26.0, "PULSE", "Pulse Rate", "SUPINE", "67", "beats/min", "67", 67.0, "beats/min", "", "", "", 2.0, "SCREENING 2", -1.0, "SCREENING", "2014-03-16", -2.0, "AFTER LYING DOWN FOR 5 MINUTES", 815.0, "PT5M", "PATIENT SUPINE"]
["CDISCPILOT01", "VS", "01-701-1033", 27.0, "PULSE", "Pulse Rate", "STANDING", "80", "beats/min", "80", 80.0, "beats/min", "", "", "", 2.0, "SCREENING 2", -1.0, "SCREENING", "2014-03-16", -2.0, "AFTER STANDING FOR 1 MINUTE", 816.0, "PT1M", "PATIENT STANDING"]
["CDISCPILOT01", "VS", "01-701-1033", 28.0, "PULSE", "Pulse Rate", "STANDING", "82", "beats/min", "82", 82.0, "beats/min", "", "", "", 2.0, "SCREENING 2", -1.0, "SCREENING", "2014-03-16", -2.0, "AFTER STANDING FOR 3 MINUTES", 817.0, "PT3M", "PATIENT STANDING"]
["CDISCPILOT01", "VS", "01-701-1033", 29.0, "PULSE", "Pulse Rate", "SUPINE", "55", "beats/min", "55", 55.0, "beats/min", "", "", "Y", 3.0, "BASELINE", 1.0, "TREATMENT", "2014-03-18", 1.0, "AFTER LYING DOWN FOR 5 MINUTES", 815.0, "PT5M", "PATIENT SUPINE"]
["CDISCPILOT01", "VS", "01-701-1033", 30.0, "PULSE", "Pulse Rate", "STANDING", "64", "beats/min", "64", 64.0, "beats/min", "", "", "Y", 3.0, "BASELINE", 1.0, "TREATMENT", "2014-03-18", 1.0, "AFTER STANDING FOR 1 MINUTE", 816.0, "PT1M", "PATIENT STANDING"]
["CDISCPILOT01", "VS", "01-701-1033", 31.0, "PULSE", "Pulse Rate", "STANDING", "62", "beats/min", "62", 62.0, "beats/min", "", "", "Y", 3.0, "BASELINE", 1.0, "TREATMENT", "2014-03-18", 1.0, "AFTER STANDING FOR 3 MINUTES", 817.0, "PT3M", "PATIENT STANDING"]
["CDISCPILOT01", "VS", "01-701-1033", 32.0, "PULSE", "Pulse Rate", "SUPINE", "62", "beats/min", "62", 62.0, "beats/min", "", "", "", 3.5, "AMBUL ECG PLACEMENT", 13.0, "TREATMENT", "2014-03-31", 14.0, "AFTER LYING DOWN FOR 5 MINUTES", 815.0, "PT5M", "PATIENT SUPINE"]
["CDISCPILOT01", "VS", "01-701-1033", 33.0, "PULSE", "Pulse Rate", "STANDING", "62", "beats/min", "62", 62.0, "beats/min", "", "", "", 3.5, "AMBUL ECG PLACEMENT", 13.0, "TREATMENT", "2014-03-31", 14.0, "AFTER STANDING FOR 1 MINUTE", 816.0, "PT1M", "PATIENT STANDING"]
["CDISCPILOT01", "VS", "01-701-1033", 34.0, "PULSE", "Pulse Rate", "STANDING", "60", "beats/min", "60", 60.0, "beats/min", "", "", "", 3.5, "AMBUL ECG PLACEMENT", 13.0, "TREATMENT", "2014-03-31", 14.0, "AFTER STANDING FOR 3 MINUTES", 817.0, "PT3M", "PATIENT STANDING"]
["CDISCPILOT01", "VS", "01-701-1033", 35.0, "PULSE", "Pulse Rate", "SUPINE", "59", "beats/min", "59", 59.0, "beats/min", "", "", "", 4.0, "WEEK 2", 14.0, "TREATMENT", "2014-04-01", 15.0, "AFTER LYING DOWN FOR 5 MINUTES", 815.0, "PT5M", "PATIENT SUPINE"]
["CDISCPILOT01", "VS", "01-701-1033", 36.0, "PULSE", "Pulse Rate", "STANDING", "62", "beats/min", "62", 62.0, "beats/min", "", "", "", 4.0, "WEEK 2", 14.0, "TREATMENT", "2014-04-01", 15.0, "AFTER STANDING FOR 1 MINUTE", 816.0, "PT1M", "PATIENT STANDING"]
["CDISCPILOT01", "VS", "01-701-1033", 37.0, "PULSE", "Pulse Rate", "STANDING", "62", "beats/min", "62", 62.0, "beats/min", "", "", "", 4.0, "WEEK 2", 14.0, "TREATMENT", "2014-04-01", 15.0, "AFTER STANDING FOR 3 MINUTES", 817.0, "PT3M", "PATIENT STANDING"]
["CDISCPILOT01", "VS", "01-701-1033", 38.0, "PULSE", "Pulse Rate", "SUPINE", "54", "beats/min", "54", 54.0, "beats/min", "", "", "", 5.0, "WEEK 4", 28.0, "TREATMENT", "2014-04-14", 28.0, "AFTER LYING DOWN FOR 5 MINUTES", 815.0, "PT5M", "PATIENT SUPINE"]
["CDISCPILOT01", "VS", "01-701-1033", 39.0, "PULSE", "Pulse Rate", "STANDING", "57", "beats/min", "57", 57.0, "beats/min", "", "", "", 5.0, "WEEK 4", 28.0, "TREATMENT", "2014-04-14", 28.0, "AFTER STANDING FOR 1 MINUTE", 816.0, "PT1M", "PATIENT STANDING"]
["CDISCPILOT01", "VS", "01-701-1033", 40.0, "PULSE", "Pulse Rate", "STANDING", "58", "beats/min", "58", 58.0, "beats/min", "", "", "", 5.0, "WEEK 4", 28.0, "TREATMENT", "2014-04-14", 28.0, "AFTER STANDING FOR 3 MINUTES", 817.0, "PT3M", "PATIENT STANDING"]
["CDISCPILOT01", "VS", "01-701-1033", 41.0, "PULSE", "Pulse Rate", "SUPINE", "50", "beats/min", "50", 50.0, "beats/min", "", "", "", 201.0, "RETRIEVAL", 168.0, "FOLLOW-UP", "2014-09-15", 182.0, "AFTER LYING DOWN FOR 5 MINUTES", 815.0, "PT5M", "PATIENT SUPINE"]
["CDISCPILOT01", "VS", "01-701-1033", 42.0, "PULSE", "Pulse Rate", "STANDING", "55", "beats/min", "55", 55.0, "beats/min", "", "", "", 201.0, "RETRIEVAL", 168.0, "FOLLOW-UP", "2014-09-15", 182.0, "AFTER STANDING FOR 1 MINUTE", 816.0, "PT1M", "PATIENT STANDING"]
["CDISCPILOT01", "VS", "01-701-1033", 43.0, "PULSE", "Pulse Rate", "STANDING", "50", "beats/min", "50", 50.0, "beats/min", "", "", "", 201.0, "RETRIEVAL", 168.0, "FOLLOW-UP", "2014-09-15", 182.0, "AFTER STANDING FOR 3 MINUTES", 817.0, "PT3M", "PATIENT STANDING"]
["CDISCPILOT01", "VS", "01-701-1033", 44.0, "SYSBP", "Systolic Blood Pressure", "SUPINE", "128", "mmHg", "128", 128.0, "mmHg", "", "", "", 1.0, "SCREENING 1", -7.0, "SCREENING", "2014-03-10", -8.0, "AFTER LYING DOWN FOR 5 MINUTES", 815.0, "PT5M", "PATIENT SUPINE"]
["CDISCPILOT01", "VS", "01-701-1033", 45.0, "SYSBP", "Systolic Blood Pressure", "STANDING", "117", "mmHg", "117", 117.0, "mmHg", "", "", "", 1.0, "SCREENING 1", -7.0, "SCREENING", "2014-03-10", -8.0, "AFTER STANDING FOR 1 MINUTE", 816.0, "PT1M", "PATIENT STANDING"]
["CDISCPILOT01", "VS", "01-701-1033", 46.0, "SYSBP", "Systolic Blood Pressure", "STANDING", "121", "mmHg", "121", 121.0, "mmHg", "", "", "", 1.0, "SCREENING 1", -7.0, "SCREENING", "2014-03-10", -8.0, "AFTER STANDING FOR 3 MINUTES", 817.0, "PT3M", "PATIENT STANDING"]
["CDISCPILOT01", "VS", "01-701-1033", 47.0, "SYSBP", "Systolic Blood Pressure", "SUPINE", "115", "mmHg", "115", 115.0, "mmHg", "", "", "", 2.0, "SCREENING 2", -1.0, "SCREENING", "2014-03-16", -2.0, "AFTER LYING DOWN FOR 5 MINUTES", 815.0, "PT5M", "PATIENT SUPINE"]
["CDISCPILOT01", "VS", "01-701-1033", 48.0, "SYSBP", "Systolic Blood Pressure", "STANDING", "102", "mmHg", "102", 102.0, "mmHg", "", "", "", 2.0, "SCREENING 2", -1.0, "SCREENING", "2014-03-16", -2.0, "AFTER STANDING FOR 1 MINUTE", 816.0, "PT1M", "PATIENT STANDING"]
["CDISCPILOT01", "VS", "01-701-1033", 49.0, "SYSBP", "Systolic Blood Pressure", "STANDING", "124", "mmHg", "124", 124.0, "mmHg", "", "", "", 2.0, "SCREENING 2", -1.0, "SCREENING", "2014-03-16", -2.0, "AFTER STANDING FOR 3 MINUTES", 817.0, "PT3M", "PATIENT STANDING"]
["CDISCPILOT01", "VS", "01-701-1033", 50.0, "SYSBP", "Systolic Blood Pressure", "SUPINE", "136", "mmHg", "136", 136.0, "mmHg", "", "", "Y", 3.0, "BASELINE", 1.0, "TREATMENT", "2014-03-18", 1.0, "AFTER LYING DOWN FOR 5 MINUTES", 815.0, "PT5M", "PATIENT SUPINE"]
["CDISCPILOT01", "VS", "01-701-1033", 51.0, "SYSBP", "Systolic Blood Pressure", "STANDING", "116", "mmHg", "116", 116.0, "mmHg", "", "", "Y", 3.0, "BASELINE", 1.0, "TREATMENT", "2014-03-18", 1.0, "AFTER STANDING FOR 1 MINUTE", 816.0, "PT1M", "PATIENT STANDING"]
["CDISCPILOT01", "VS", "01-701-1033", 52.0, "SYSBP", "Systolic Blood Pressure", "STANDING", "121", "mmHg", "121", 121.0, "mmHg", "", "", "Y", 3.0, "BASELINE", 1.0, "TREATMENT", "2014-03-18", 1.0, "AFTER STANDING FOR 3 MINUTES", 817.0, "PT3M", "PATIENT STANDING"]
["CDISCPILOT01", "VS", "01-701-1033", 53.0, "SYSBP", "Systolic Blood Pressure", "SUPINE", "151", "mmHg", "151", 151.0, "mmHg", "", "", "", 3.5, "AMBUL ECG PLACEMENT", 13.0, "TREATMENT", "2014-03-31", 14.0, "AFTER LYING DOWN FOR 5 MINUTES", 815.0, "PT5M", "PATIENT SUPINE"]
["CDISCPILOT01", "VS", "01-701-1033", 54.0, "SYSBP", "Systolic Blood Pressure", "STANDING", "139", "mmHg", "139", 139.0, "mmHg", "", "", "", 3.5, "AMBUL ECG PLACEMENT", 13.0, "TREATMENT", "2014-03-31", 14.0, "AFTER STANDING FOR 1 MINUTE", 816.0, "PT1M", "PATIENT STANDING"]
["CDISCPILOT01", "VS", "01-701-1033", 55.0, "SYSBP", "Systolic Blood Pressure", "STANDING", "139", "mmHg", "139", 139.0, "mmHg", "", "", "", 3.5, "AMBUL ECG PLACEMENT", 13.0, "TREATMENT", "2014-03-31", 14.0, "AFTER STANDING FOR 3 MINUTES", 817.0, "PT3M", "PATIENT STANDING"]
["CDISCPILOT01", "VS", "01-701-1033", 56.0, "SYSBP", "Systolic Blood Pressure", "SUPINE", "138", "mmHg", "138", 138.0, "mmHg", "", "", "", 4.0, "WEEK 2", 14.0, "TREATMENT", "2014-04-01", 15.0, "AFTER LYING DOWN FOR 5 MINUTES", 815.0, "PT5M", "PATIENT SUPINE"]
["CDISCPILOT01", "VS", "01-701-1033", 57.0, "SYSBP", "Systolic Blood Pressure", "STANDING", "118", "mmHg", "118", 118.0, "mmHg", "", "", "", 4.0, "WEEK 2", 14.0, "TREATMENT", "2014-04-01", 15.0, "AFTER STANDING FOR 1 MINUTE", 816.0, "PT1M", "PATIENT STANDING"]
["CDISCPILOT01", "VS", "01-701-1033", 58.0, "SYSBP", "Systolic Blood Pressure", "STANDING", "130", "mmHg", "130", 130.0, "mmHg", "", "", "", 4.0, "WEEK 2", 14.0, "TREATMENT", "2014-04-01", 15.0, "AFTER STANDING FOR 3 MINUTES", 817.0, "PT3M", "PATIENT STANDING"]
["CDISCPILOT01", "VS", "01-701-1033", 59.0, "SYSBP", "Systolic Blood Pressure", "SUPINE", "130", "mmHg", "130", 130.0, "mmHg", "", "", "", 5.0, "WEEK 4", 28.0, "TREATMENT", "2014-04-14", 28.0, "AFTER LYING DOWN FOR 5 MINUTES", 815.0, "PT5M", "PATIENT SUPINE"]
["CDISCPILOT01", "VS", "01-701-1033", 60.0, "SYSBP", "Systolic Blood Pressure", "STANDING", "122", "mmHg", "122", 122.0, "mmHg", "", "", "", 5.0, "WEEK 4", 28.0, "TREATMENT", "2014-04-14", 28.0, "AFTER STANDING FOR 1 MINUTE", 816.0, "PT1M", "PATIENT STANDING"]
["CDISCPILOT01", "VS", "01-701-1033", 61.0, "SYSBP", "Systolic Blood Pressure", "STANDING", "125", "mmHg", "125", 125.0, "mmHg", "", "", "", 5.0, "WEEK 4", 28.0, "TREATMENT", "2014-04-14", 28.0, "AFTER STANDING FOR 3 MINUTES", 817.0, "PT3M", "PATIENT STANDING"]
["CDISCPILOT01", "VS", "01-701-1033", 62.0, "SYSBP", "Systolic Blood Pressure", "SUPINE", "130", "mmHg", "130", 130.0, "mmHg", "", "", "", 201.0, "RETRIEVAL", 168.0, "FOLLOW-UP", "2014-09-15", 182.0, "AFTER LYING DOWN FOR 5 MINUTES", 815.0, "PT5M", "PATIENT SUPINE"]
["CDISCPILOT01", "VS", "01-701-1033", 63.0, "SYSBP", "Systolic Blood Pressure", "STANDING", "122", "mmHg", "122", 122.0, "mmHg", "", "", "", 201.0, "RETRIEVAL", 168.0, "FOLLOW-UP", "2014-09-15", 182.0, "AFTER STANDING FOR 1 MINUTE", 816.0, "PT1M", "PATIENT STANDING"]
["CDISCPILOT01", "VS", "01-701-1033", 64.0, "SYSBP", "Systolic Blood Pressure", "STANDING", "123", "mmHg", "123", 123.0, "mmHg", "", "", "", 201.0, "RETRIEVAL", 168.0, "FOLLOW-UP", "2014-09-15", 182.0, "AFTER STANDING FOR 3 MINUTES", 817.0, "PT3M", "PATIENT STANDING"]
["CDISCPILOT01", "VS", "01-701-1033", 65.0, "TEMP", "Temperature", "", "98.7", "F", "37.06", 37.06, "C", "", "ORAL CAVITY", "", 1.0, "SCREENING 1", -7.0, "SCREENING", "2014-03-10", -8.0, "", null, "", ""]
["CDISCPILOT01", "VS", "01-701-1033", 66.0, "TEMP", "Temperature", "", "98.9", "F", "37.17", 37.17, "C", "", "ORAL CAVITY", "", 2.0, "SCREENING 2", -1.0, "SCREENING", "2014-03-16", -2.0, "", null, "", ""]
["CDISCPILOT01", "VS", "01-701-1033", 67.0, "TEMP", "Temperature", "", "98.8", "F", "37.11", 37.11, "C", "", "ORAL CAVITY", "Y", 3.0, "BASELINE", 1.0, "TREATMENT", "2014-03-18", 1.0, "", null, "", ""]
["CDISCPILOT01", "VS", "01-701-1033", 68.0, "TEMP", "Temperature", "", "98.0", "F", "36.67", 36.67, "C", "", "ORAL CAVITY", "", 3.5, "AMBUL ECG PLACEMENT", 13.0, "TREATMENT", "2014-03-31", 14.0, "", null, "", ""]
["CDISCPILOT01", "VS", "01-701-1033", 69.0, "TEMP", "Temperature", "", "98.1", "F", "36.72", 36.72, "C", "", "ORAL CAVITY", "", 4.0, "WEEK 2", 14.0, "TREATMENT", "2014-04-01", 15.0, "", null, "", ""]
["CDISCPILOT01", "VS", "01-701-1033", 70.0, "TEMP", "Temperature", "", "98.1", "F", "36.72", 36.72, "C", "", "ORAL CAVITY", "", 5.0, "WEEK 4", 28.0, "TREATMENT", "2014-04-14", 28.0, "", null, "", ""]
["CDISCPILOT01", "VS", "01-701-1033", 71.0, "TEMP", "Temperature", "", "98.1", "F", "36.72", 36.72, "C", "", "ORAL CAVITY", "", 201.0, "RETRIEVAL", 168.0, "FOLLOW-UP", "2014-09-15", 182.0, "", null, "", ""]
["CDISCPILOT01", "VS", "01-701-1033", 72.0, "WEIGHT", "Weight", "", "195.0", "LB", "88.45", 88.45, "kg", "", "", "", 1.0, "SCREENING 1", -7.0, "SCREENING", "2014-03-10", -8.0, "", null, "", ""]
["CDISCPILOT01", "VS", "01-701-1033", 73.0, "WEIGHT", "Weight", "", "195.0", "LB", "88.45", 88.45, "kg", "", "", "Y", 3.0, "BASELINE", 1.0, "TREATMENT", "2014-03-18", 1.0, "", null, "", ""]
["CDISCPILOT01", "VS", "01-701-1033", 74.0, "WEIGHT", "Weight", "", "197.0", "LB", "89.36", 89.36, "kg", "", "", "", 4.0, "WEEK 2", 14.0, "TREATMENT", "2014-04-01", 15.0, "", null, "", ""]
["CDISCPILOT01", "VS", "01-701-1033", 75.0, "WEIGHT", "Weight", "", "195.0", "LB", "88.45", 88.45, "kg", "", "", "", 5.0, "WEEK 4", 28.0, "TREATMENT", "2014-04-14", 28.0, "", null, "", ""]
["CDISCPILOT01", "VS", "01-701-1034", 1.0, "DIABP", "Diastolic Blood Pressure", "SUPINE", "58", "mmHg", "58", 58.0, "mmHg", "", "", "", 1.0, "SCREENING 1", -7.0, "SCREENING", "2014-06-24", -7.0, "AFTER LYING DOWN FOR 5 MINUTES", 815.0, "PT5M", "PATIENT SUPINE"]
["CDISCPILOT01", "VS", "01-701-1034", 2.0, "DIABP", "Diastolic Blood Pressure", "STANDING", "73", "mmHg", "73", 73.0, "mmHg", "", "", "", 1.0, "SCREENING 1", -7.0, "SCREENING", "2014-06-24", -7.0, "AFTER STANDING FOR 1 MINUTE", 816.0, "PT1M", "PATIENT STANDING"]
["CDISCPILOT01", "VS", "01-701-1034", 3.0, "DIABP", "Diastolic Blood Pressure", "STANDING", "79", "mmHg", "79", 79.0, "mmHg", "", "", "", 1.0, "SCREENING 1", -7.0, "SCREENING", "2014-06-24", -7.0, "AFTER STANDING FOR 3 MINUTES", 817.0, "PT3M", "PATIENT STANDING"]
["CDISCPILOT01", "VS", "01-701-1034", 4.0, "DIABP", "Diastolic Blood Pressure", "SUPINE", "62", "mmHg", "62", 62.0, "mmHg", "", "", "", 2.0, "SCREENING 2", -1.0, "SCREENING", "2014-06-29", -2.0, "AFTER LYING DOWN FOR 5 MINUTES", 815.0, "PT5M", "PATIENT SUPINE"]
["CDISCPILOT01", "VS", "01-701-1034", 5.0, "DIABP", "Diastolic Blood Pressure", "STANDING", "81", "mmHg", "81", 81.0, "mmHg", "", "", "", 2.0, "SCREENING 2", -1.0, "SCREENING", "2014-06-29", -2.0, "AFTER STANDING FOR 1 MINUTE", 816.0, "PT1M", "PATIENT STANDING"]
["CDISCPILOT01", "VS", "01-701-1034", 6.0, "DIABP", "Diastolic Blood Pressure", "STANDING", "69", "mmHg", "69", 69.0, "mmHg", "", "", "", 2.0, "SCREENING 2", -1.0, "SCREENING", "2014-06-29", -2.0, "AFTER STANDING FOR 3 MINUTES", 817.0, "PT3M", "PATIENT STANDING"]
["CDISCPILOT01", "VS", "01-701-1034", 7.0, "DIABP", "Diastolic Blood Pressure", "SUPINE", "60", "mmHg", "60", 60.0, "mmHg", "", "", "Y", 3.0, "BASELINE", 1.0, "TREATMENT", "2014-07-01", 1.0, "AFTER LYING DOWN FOR 5 MINUTES", 815.0, "PT5M", "PATIENT SUPINE"]
["CDISCPILOT01", "VS", "01-701-1034", 8.0, "DIABP", "Diastolic Blood Pressure", "STANDING", "75", "mmHg", "75", 75.0, "mmHg", "", "", "Y", 3.0, "BASELINE", 1.0, "TREATMENT", "2014-07-01", 1.0, "AFTER STANDING FOR 1 MINUTE", 816.0, "PT1M", "PATIENT STANDING"]
["CDISCPILOT01", "VS", "01-701-1034", 9.0, "DIABP", "Diastolic Blood Pressure", "STANDING", "82", "mmHg", "82", 82.0, "mmHg", "", "", "Y", 3.0, "BASELINE", 1.0, "TREATMENT", "2014-07-01", 1.0, "AFTER STANDING FOR 3 MINUTES", 817.0, "PT3M", "PATIENT STANDING"]
["CDISCPILOT01", "VS", "01-701-1034", 10.0, "DIABP", "Diastolic Blood Pressure", "SUPINE", "81", "mmHg", "81", 81.0, "mmHg", "", "", "", 4.0, "WEEK 2", 14.0, "TREATMENT", "2014-07-15", 15.0, "AFTER LYING DOWN FOR 5 MINUTES", 815.0, "PT5M", "PATIENT SUPINE"]
["CDISCPILOT01", "VS", "01-701-1034", 11.0, "DIABP", "Diastolic Blood Pressure", "STANDING", "101", "mmHg", "101", 101.0, "mmHg", "", "", "", 4.0, "WEEK 2", 14.0, "TREATMENT", "2014-07-15", 15.0, "AFTER STANDING FOR 1 MINUTE", 816.0, "PT1M", "PATIENT STANDING"]
["CDISCPILOT01", "VS", "01-701-1034", 12.0, "DIABP", "Diastolic Blood Pressure", "STANDING", "84", "mmHg", "84", 84.0, "mmHg", "", "", "", 4.0, "WEEK 2", 14.0, "TREATMENT", "2014-07-15", 15.0, "AFTER STANDING FOR 3 MINUTES", 817.0, "PT3M", "PATIENT STANDING"]
["CDISCPILOT01", "VS", "01-701-1034", 13.0, "DIABP", "Diastolic Blood Pressure", "SUPINE", "71", "mmHg", "71", 71.0, "mmHg", "", "", "", 5.0, "WEEK 4", 28.0, "TREATMENT", "2014-07-29", 29.0, "AFTER LYING DOWN FOR 5 MINUTES", 815.0, "PT5M", "PATIENT SUPINE"]
["CDISCPILOT01", "VS", "01-701-1034", 14.0, "DIABP", "Diastolic Blood Pressure", "STANDING", "69", "mmHg", "69", 69.0, "mmHg", "", "", "", 5.0, "WEEK 4", 28.0, "TREATMENT", "2014-07-29", 29.0, "AFTER STANDING FOR 1 MINUTE", 816.0, "PT1M", "PATIENT STANDING"]
["CDISCPILOT01", "VS", "01-701-1034", 15.0, "DIABP", "Diastolic Blood Pressure", "STANDING", "71", "mmHg", "71", 71.0, "mmHg", "", "", "", 5.0, "WEEK 4", 28.0, "TREATMENT", "2014-07-29", 29.0, "AFTER STANDING FOR 3 MINUTES", 817.0, "PT3M", "PATIENT STANDING"]
["CDISCPILOT01", "VS", "01-701-1034", 16.0, "DIABP", "Diastolic Blood Pressure", "SUPINE", "54", "mmHg", "54", 54.0, "mmHg", "", "", "", 6.0, "AMBUL ECG REMOVAL", 30.0, "TREATMENT", "2014-07-31", 31.0, "AFTER LYING DOWN FOR 5 MINUTES", 815.0, "PT5M", "PATIENT SUPINE"]
["CDISCPILOT01", "VS", "01-701-1034", 17.0, "DIABP", "Diastolic Blood Pressure", "STANDING", "65", "mmHg", "65", 65.0, "mmHg", "", "", "", 6.0, "AMBUL ECG REMOVAL", 30.0, "TREATMENT", "2014-07-31", 31.0, "AFTER STANDING FOR 1 MINUTE", 816.0, "PT1M", "PATIENT STANDING"]
["CDISCPILOT01", "VS", "01-701-1034", 18.0, "DIABP", "Diastolic Blood Pressure", "STANDING", "61", "mmHg", "61", 61.0, "mmHg", "", "", "", 6.0, "AMBUL ECG REMOVAL", 30.0, "TREATMENT", "2014-07-31", 31.0, "AFTER STANDING FOR 3 MINUTES", 817.0, "PT3M", "PATIENT STANDING"]
["CDISCPILOT01", "VS", "01-701-1034", 19.0, "DIABP", "Diastolic Blood Pressure", "SUPINE", "57", "mmHg", "57", 57.0, "mmHg", "", "", "", 7.0, "WEEK 6", 42.0, "TREATMENT", "2014-08-11", 42.0, "AFTER LYING DOWN FOR 5 MINUTES", 815.0, "PT5M", "PATIENT SUPINE"]
["CDISCPILOT01", "VS", "01-701-1034", 20.0, "DIABP", "Diastolic Blood Pressure", "STANDING", "76", "mmHg", "76", 76.0, "mmHg", "", "", "", 7.0, "WEEK 6", 42.0, "TREATMENT", "2014-08-11", 42.0, "AFTER STANDING FOR 1 MINUTE", 816.0, "PT1M", "PATIENT STANDING"]
["CDISCPILOT01", "VS", "01-701-1034", 21.0, "DIABP", "Diastolic Blood Pressure", "STANDING", "80", "mmHg", "80", 80.0, "mmHg", "", "", "", 7.0, "WEEK 6", 42.0, "TREATMENT", "2014-08-11", 42.0, "AFTER STANDING FOR 3 MINUTES", 817.0, "PT3M", "PATIENT STANDING"]
["CDISCPILOT01", "VS", "01-701-1034", 22.0, "DIABP", "Diastolic Blood Pressure", "SUPINE", "73", "mmHg", "73", 73.0, "mmHg", "", "", "", 8.0, "WEEK 8", 56.0, "TREATMENT", "2014-08-26", 57.0, "AFTER LYING DOWN FOR 5 MINUTES", 815.0, "PT5M", "PATIENT SUPINE"]
["CDISCPILOT01", "VS", "01-701-1034", 23.0, "DIABP", "Diastolic Blood Pressure", "STANDING", "80", "mmHg", "80", 80.0, "mmHg", "", "", "", 8.0, "WEEK 8", 56.0, "TREATMENT", "2014-08-26", 57.0, "AFTER STANDING FOR 1 MINUTE", 816.0, "PT1M", "PATIENT STANDING"]
["CDISCPILOT01", "VS", "01-701-1034", 24.0, "DIABP", "Diastolic Blood Pressure", "STANDING", "76", "mmHg", "76", 76.0, "mmHg", "", "", "", 8.0, "WEEK 8", 56.0, "TREATMENT", "2014-08-26", 57.0, "AFTER STANDING FOR 3 MINUTES", 817.0, "PT3M", "PATIENT STANDING"]
["CDISCPILOT01", "VS", "01-701-1034", 25.0, "DIABP", "Diastolic Blood Pressure", "SUPINE", "71", "mmHg", "71", 71.0, "mmHg", "", "", "", 9.0, "WEEK 12", 84.0, "TREATMENT", "2014-09-25", 87.0, "AFTER LYING DOWN FOR 5 MINUTES", 815.0, "PT5M", "PATIENT SUPINE"]
["CDISCPILOT01", "VS", "01-701-1034", 26.0, "DIABP", "Diastolic Blood Pressure", "STANDING", "66", "mmHg", "66", 66.0, "mmHg", "", "", "", 9.0, "WEEK 12", 84.0, "TREATMENT", "2014-09-25", 87.0, "AFTER STANDING FOR 1 MINUTE", 816.0, "PT1M", "PATIENT STANDING"]
["CDISCPILOT01", "VS", "01-701-1034", 27.0, "DIABP", "Diastolic Blood Pressure", "STANDING", "63", "mmHg", "63", 63.0, "mmHg", "", "", "", 9.0, "WEEK 12", 84.0, "TREATMENT", "2014-09-25", 87.0, "AFTER STANDING FOR 3 MINUTES", 817.0, "PT3M", "PATIENT STANDING"]
["CDISCPILOT01", "VS", "01-701-1034", 28.0, "DIABP", "Diastolic Blood Pressure", "SUPINE", "87", "mmHg", "87", 87.0, "mmHg", "", "", "", 10.0, "WEEK 16", 112.0, "TREATMENT", "2014-10-21", 113.0, "AFTER LYING DOWN FOR 5 MINUTES", 815.0, "PT5M", "PATIENT SUPINE"]
["CDISCPILOT01", "VS", "01-701-1034", 29.0, "DIABP", "Diastolic Blood Pressure", "STANDING", "77", "mmHg", "77", 77.0, "mmHg", "", "", "", 10.0, "WEEK 16", 112.0, "TREATMENT", "2014-10-21", 113.0, "AFTER STANDING FOR 1 MINUTE", 816.0, "PT1M", "PATIENT STANDING"]
["CDISCPILOT01", "VS", "01-701-1034", 30.0, "DIABP", "Diastolic Blood Pressure", "STANDING", "72", "mmHg", "72", 72.0, "mmHg", "", "", "", 10.0, "WEEK 16", 112.0, "TREATMENT", "2014-10-21", 113.0, "AFTER STANDING FOR 3 MINUTES", 817.0, "PT3M", "PATIENT STANDING"]
["CDISCPILOT01", "VS", "01-701-1034", 31.0, "DIABP", "Diastolic Blood Pressure", "SUPINE", "78", "mmHg", "78", 78.0, "mmHg", "", "", "", 11.0, "WEEK 20", 140.0, "TREATMENT", "2014-11-18", 141.0, "AFTER LYING DOWN FOR 5 MINUTES", 815.0, "PT5M", "PATIENT SUPINE"]
["CDISCPILOT01", "VS", "01-701-1034", 32.0, "DIABP", "Diastolic Blood Pressure", "STANDING", "77", "mmHg", "77", 77.0, "mmHg", "", "", "", 11.0, "WEEK 20", 140.0, "TREATMENT", "2014-11-18", 141.0, "AFTER STANDING FOR 1 MINUTE", 816.0, "PT1M", "PATIENT STANDING"]
["CDISCPILOT01", "VS", "01-701-1034", 33.0, "DIABP", "Diastolic Blood Pressure", "STANDING", "72", "mmHg", "72", 72.0, "mmHg", "", "", "", 11.0, "WEEK 20", 140.0, "TREATMENT", "2014-11-18", 141.0, "AFTER STANDING FOR 3 MINUTES", 817.0, "PT3M", "PATIENT STANDING"]
["CDISCPILOT01", "VS", "01-701-1034", 34.0, "DIABP", "Diastolic Blood Pressure", "SUPINE", "81", "mmHg", "81", 81.0, "mmHg", "", "", "", 12.0, "WEEK 24", 168.0, "TREATMENT", "2014-12-17", 170.0, "AFTER LYING DOWN FOR 5 MINUTES", 815.0, "PT5M", "PATIENT SUPINE"]
["CDISCPILOT01", "VS", "01-701-1034", 35.0, "DIABP", "Diastolic Blood Pressure", "STANDING", "97", "mmHg", "97", 97.0, "mmHg", "", "", "", 12.0, "WEEK 24", 168.0, "TREATMENT", "2014-12-17", 170.0, "AFTER STANDING FOR 1 MINUTE", 816.0, "PT1M", "PATIENT STANDING"]
["CDISCPILOT01", "VS", "01-701-1034", 36.0, "DIABP", "Diastolic Blood Pressure", "STANDING", "98", "mmHg", "98", 98.0, "mmHg", "", "", "", 12.0, "WEEK 24", 168.0, "TREATMENT", "2014-12-17", 170.0, "AFTER STANDING FOR 3 MINUTES", 817.0, "PT3M", "PATIENT STANDING"]
["CDISCPILOT01", "VS", "01-701-1034", 37.0, "DIABP", "Diastolic Blood Pressure", "SUPINE", "67", "mmHg", "67", 67.0, "mmHg", "", "", "", 13.0, "WEEK 26", 182.0, "TREATMENT", "2014-12-30", 183.0, "AFTER LYING DOWN FOR 5 MINUTES", 815.0, "PT5M", "PATIENT SUPINE"]
["CDISCPILOT01", "VS", "01-701-1034", 38.0, "DIABP", "Diastolic Blood Pressure", "STANDING", "93", "mmHg", "93", 93.0, "mmHg", "", "", "", 13.0, "WEEK 26", 182.0, "TREATMENT", "2014-12-30", 183.0, "AFTER STANDING FOR 1 MINUTE", 816.0, "PT1M", "PATIENT STANDING"]
["CDISCPILOT01", "VS", "01-701-1034", 39.0, "DIABP", "Diastolic Blood Pressure", "STANDING", "66", "mmHg", "66", 66.0, "mmHg", "", "", "", 13.0, "WEEK 26", 182.0, "TREATMENT", "2014-12-30", 183.0, "AFTER STANDING FOR 3 MINUTES", 817.0, "PT3M", "PATIENT STANDING"]
["CDISCPILOT01", "VS", "01-701-1034", 40.0, "HEIGHT", "Height", "", "61.0", "in", "154.94", 154.94, "cm", "", "", "", 1.0, "SCREENING 1", -7.0, "SCREENING", "2014-06-24", -7.0, "", null, "", ""]
["CDISCPILOT01", "VS", "01-701-1034", 41.0, "PULSE", "Pulse Rate", "SUPINE", "69", "beats/min", "69", 69.0, "beats/min", "", "", "", 1.0, "SCREENING 1", -7.0, "SCREENING", "2014-06-24", -7.0, "AFTER LYING DOWN FOR 5 MINUTES", 815.0, "PT5M", "PATIENT SUPINE"]
["CDISCPILOT01", "VS", "01-701-1034", 42.0, "PULSE", "Pulse Rate", "STANDING", "76", "beats/min", "76", 76.0, "beats/min", "", "", "", 1.0, "SCREENING 1", -7.0, "SCREENING", "2014-06-24", -7.0, "AFTER STANDING FOR 1 MINUTE", 816.0, "PT1M", "PATIENT STANDING"]
["CDISCPILOT01", "VS", "01-701-1034", 43.0, "PULSE", "Pulse Rate", "STANDING", "74", "beats/min", "74", 74.0, "beats/min", "", "", "", 1.0, "SCREENING 1", -7.0, "SCREENING", "2014-06-24", -7.0, "AFTER STANDING FOR 3 MINUTES", 817.0, "PT3M", "PATIENT STANDING"]
["CDISCPILOT01", "VS", "01-701-1034", 44.0, "PULSE", "Pulse Rate", "SUPINE", "75", "beats/min", "75", 75.0, "beats/min", "", "", "", 2.0, "SCREENING 2", -1.0, "SCREENING", "2014-06-29", -2.0, "AFTER LYING DOWN FOR 5 MINUTES", 815.0, "PT5M", "PATIENT SUPINE"]
["CDISCPILOT01", "VS", "01-701-1034", 45.0, "PULSE", "Pulse Rate", "STANDING", "79", "beats/min", "79", 79.0, "beats/min", "", "", "", 2.0, "SCREENING 2", -1.0, "SCREENING", "2014-06-29", -2.0, "AFTER STANDING FOR 1 MINUTE", 816.0, "PT1M", "PATIENT STANDING"]
["CDISCPILOT01", "VS", "01-701-1034", 46.0, "PULSE", "Pulse Rate", "STANDING", "79", "beats/min", "79", 79.0, "beats/min", "", "", "", 2.0, "SCREENING 2", -1.0, "SCREENING", "2014-06-29", -2.0, "AFTER STANDING FOR 3 MINUTES", 817.0, "PT3M", "PATIENT STANDING"]
["CDISCPILOT01", "VS", "01-701-1034", 47.0, "PULSE", "Pulse Rate", "SUPINE", "76", "beats/min", "76", 76.0, "beats/min", "", "", "Y", 3.0, "BASELINE", 1.0, "TREATMENT", "2014-07-01", 1.0, "AFTER LYING DOWN FOR 5 MINUTES", 815.0, "PT5M", "PATIENT SUPINE"]
["CDISCPILOT01", "VS", "01-701-1034", 48.0, "PULSE", "Pulse Rate", "STANDING", "83", "beats/min", "83", 83.0, "beats/min", "", "", "Y", 3.0, "BASELINE", 1.0, "TREATMENT", "2014-07-01", 1.0, "AFTER STANDING FOR 1 MINUTE", 816.0, "PT1M", "PATIENT STANDING"]
["CDISCPILOT01", "VS", "01-701-1034", 49.0, "PULSE", "Pulse Rate", "STANDING", "80", "beats/min", "80", 80.0, "beats/min", "", "", "Y", 3.0, "BASELINE", 1.0, "TREATMENT", "2014-07-01", 1.0, "AFTER STANDING FOR 3 MINUTES", 817.0, "PT3M", "PATIENT STANDING"]
["CDISCPILOT01", "VS", "01-701-1034", 50.0, "PULSE", "Pulse Rate", "SUPINE", "86", "beats/min", "86", 86.0, "beats/min", "", "", "", 4.0, "WEEK 2", 14.0, "TREATMENT", "2014-07-15", 15.0, "AFTER LYING DOWN FOR 5 MINUTES", 815.0, "PT5M", "PATIENT SUPINE"]
["CDISCPILOT01", "VS", "01-701-1034", 51.0, "PULSE", "Pulse Rate", "STANDING", "91", "beats/min", "91", 91.0, "beats/min", "", "", "", 4.0, "WEEK 2", 14.0, "TREATMENT", "2014-07-15", 15.0, "AFTER STANDING FOR 1 MINUTE", 816.0, "PT1M", "PATIENT STANDING"]
["CDISCPILOT01", "VS", "01-701-1034", 52.0, "PULSE", "Pulse Rate", "STANDING", "86", "beats/min", "86", 86.0, "beats/min", "", "", "", 4.0, "WEEK 2", 14.0, "TREATMENT", "2014-07-15", 15.0, "AFTER STANDING FOR 3 MINUTES", 817.0, "PT3M", "PATIENT STANDING"]
["CDISCPILOT01", "VS", "01-701-1034", 53.0, "PULSE", "Pulse Rate", "SUPINE", "87", "beats/min", "87", 87.0, "beats/min", "", "", "", 5.0, "WEEK 4", 28.0, "TREATMENT", "2014-07-29", 29.0, "AFTER LYING DOWN FOR 5 MINUTES", 815.0, "PT5M", "PATIENT SUPINE"]
["CDISCPILOT01", "VS", "01-701-1034", 54.0, "PULSE", "Pulse Rate", "STANDING", "91", "beats/min", "91", 91.0, "beats/min", "", "", "", 5.0, "WEEK 4", 28.0, "TREATMENT", "2014-07-29", 29.0, "AFTER STANDING FOR 1 MINUTE", 816.0, "PT1M", "PATIENT STANDING"]
["CDISCPILOT01", "VS", "01-701-1034", 55.0, "PULSE", "Pulse Rate", "STANDING", "88", "beats/min", "88", 88.0, "beats/min", "", "", "", 5.0, "WEEK 4", 28.0, "TREATMENT", "2014-07-29", 29.0, "AFTER STANDING FOR 3 MINUTES", 817.0, "PT3M", "PATIENT STANDING"]
["CDISCPILOT01", "VS", "01-701-1034", 56.0, "PULSE", "Pulse Rate", "SUPINE", "83", "beats/min", "83", 83.0, "beats/min", "", "", "", 6.0, "AMBUL ECG REMOVAL", 30.0, "TREATMENT", "2014-07-31", 31.0, "AFTER LYING DOWN FOR 5 MINUTES", 815.0, "PT5M", "PATIENT SUPINE"]
["CDISCPILOT01", "VS", "01-701-1034", 57.0, "PULSE", "Pulse Rate", "STANDING", "90", "beats/min", "90", 90.0, "beats/min", "", "", "", 6.0, "AMBUL ECG REMOVAL", 30.0, "TREATMENT", "2014-07-31", 31.0, "AFTER STANDING FOR 1 MINUTE", 816.0, "PT1M", "PATIENT STANDING"]
["CDISCPILOT01", "VS", "01-701-1034", 58.0, "PULSE", "Pulse Rate", "STANDING", "86", "beats/min", "86", 86.0, "beats/min", "", "", "", 6.0, "AMBUL ECG REMOVAL", 30.0, "TREATMENT", "2014-07-31", 31.0, "AFTER STANDING FOR 3 MINUTES", 817.0, "PT3M", "PATIENT STANDING"]
["CDISCPILOT01", "VS", "01-701-1034", 59.0, "PULSE", "Pulse Rate", "SUPINE", "97", "beats/min", "97", 97.0, "beats/min", "", "", "", 7.0, "WEEK 6", 42.0, "TREATMENT", "2014-08-11", 42.0, "AFTER LYING DOWN FOR 5 MINUTES", 815.0, "PT5M", "PATIENT SUPINE"]
["CDISCPILOT01", "VS", "01-701-1034", 60.0, "PULSE", "Pulse Rate", "STANDING", "93", "beats/min", "93", 93.0, "beats/min", "", "", "", 7.0, "WEEK 6", 42.0, "TREATMENT", "2014-08-11", 42.0, "AFTER STANDING FOR 1 MINUTE", 816.0, "PT1M", "PATIENT STANDING"]
["CDISCPILOT01", "VS", "01-701-1034", 61.0, "PULSE", "Pulse Rate", "STANDING", "94", "beats/min", "94", 94.0, "beats/min", "", "", "", 7.0, "WEEK 6", 42.0, "TREATMENT", "2014-08-11", 42.0, "AFTER STANDING FOR 3 MINUTES", 817.0, "PT3M", "PATIENT STANDING"]
["CDISCPILOT01", "VS", "01-701-1034", 62.0, "PULSE", "Pulse Rate", "SUPINE", "78", "beats/min", "78", 78.0, "beats/min", "", "", "", 8.0, "WEEK 8", 56.0, "TREATMENT", "2014-08-26", 57.0, "AFTER LYING DOWN FOR 5 MINUTES", 815.0, "PT5M", "PATIENT SUPINE"]
["CDISCPILOT01", "VS", "01-701-1034", 63.0, "PULSE", "Pulse Rate", "STANDING", "71", "beats/min", "71", 71.0, "beats/min", "", "", "", 8.0, "WEEK 8", 56.0, "TREATMENT", "2014-08-26", 57.0, "AFTER STANDING FOR 1 MINUTE", 816.0, "PT1M", "PATIENT STANDING"]
["CDISCPILOT01", "VS", "01-701-1034", 64.0, "PULSE", "Pulse Rate", "STANDING", "71", "beats/min", "71", 71.0, "beats/min", "", "", "", 8.0, "WEEK 8", 56.0, "TREATMENT", "2014-08-26", 57.0, "AFTER STANDING FOR 3 MINUTES", 817.0, "PT3M", "PATIENT STANDING"]
["CDISCPILOT01", "VS", "01-701-1034", 65.0, "PULSE", "Pulse Rate", "SUPINE", "66", "beats/min", "66", 66.0, "beats/min", "", "", "", 9.0, "WEEK 12", 84.0, "TREATMENT", "2014-09-25", 87.0, "AFTER LYING DOWN FOR 5 MINUTES", 815.0, "PT5M", "PATIENT SUPINE"]
["CDISCPILOT01", "VS", "01-701-1034", 66.0, "PULSE", "Pulse Rate", "STANDING", "70", "beats/min", "70", 70.0, "beats/min", "", "", "", 9.0, "WEEK 12", 84.0, "TREATMENT", "2014-09-25", 87.0, "AFTER STANDING FOR 1 MINUTE", 816.0, "PT1M", "PATIENT STANDING"]
["CDISCPILOT01", "VS", "01-701-1034", 67.0, "PULSE", "Pulse Rate", "STANDING", "69", "beats/min", "69", 69.0, "beats/min", "", "", "", 9.0, "WEEK 12", 84.0, "TREATMENT", "2014-09-25", 87.0, "AFTER STANDING FOR 3 MINUTES", 817.0, "PT3M", "PATIENT STANDING"]
["CDISCPILOT01", "VS", "01-701-1034", 68.0, "PULSE", "Pulse Rate", "SUPINE", "74", "beats/min", "74", 74.0, "beats/min", "", "", "", 10.0, "WEEK 16", 112.0, "TREATMENT", "2014-10-21", 113.0, "AFTER LYING DOWN FOR 5 MINUTES", 815.0, "PT5M", "PATIENT SUPINE"]
["CDISCPILOT01", "VS", "01-701-1034", 69.0, "PULSE", "Pulse Rate", "STANDING", "79", "beats/min", "79", 79.0, "beats/min", "", "", "", 10.0, "WEEK 16", 112.0, "TREATMENT", "2014-10-21", 113.0, "AFTER STANDING FOR 1 MINUTE", 816.0, "PT1M", "PATIENT STANDING"]
["CDISCPILOT01", "VS", "01-701-1034", 70.0, "PULSE", "Pulse Rate", "STANDING", "78", "beats/min", "78", 78.0, "beats/min", "", "", "", 10.0, "WEEK 16", 112.0, "TREATMENT", "2014-10-21", 113.0, "AFTER STANDING FOR 3 MINUTES", 817.0, "PT3M", "PATIENT STANDING"]
["CDISCPILOT01", "VS", "01-701-1034", 71.0, "PULSE", "Pulse Rate", "SUPINE", "86", "beats/min", "86", 86.0, "beats/min", "", "", "", 11.0, "WEEK 20", 140.0, "TREATMENT", "2014-11-18", 141.0, "AFTER LYING DOWN FOR 5 MINUTES", 815.0, "PT5M", "PATIENT SUPINE"]
["CDISCPILOT01", "VS", "01-701-1034", 72.0, "PULSE", "Pulse Rate", "STANDING", "84", "beats/min", "84", 84.0, "beats/min", "", "", "", 11.0, "WEEK 20", 140.0, "TREATMENT", "2014-11-18", 141.0, "AFTER STANDING FOR 1 MINUTE", 816.0, "PT1M", "PATIENT STANDING"]
["CDISCPILOT01", "VS", "01-701-1034", 73.0, "PULSE", "Pulse Rate", "STANDING", "80", "beats/min", "80", 80.0, "beats/min", "", "", "", 11.0, "WEEK 20", 140.0, "TREATMENT", "2014-11-18", 141.0, "AFTER STANDING FOR 3 MINUTES", 817.0, "PT3M", "PATIENT STANDING"]
["CDISCPILOT01", "VS", "01-701-1034", 74.0, "PULSE", "Pulse Rate", "SUPINE", "96", "beats/min", "96", 96.0, "beats/min", "", "", "", 12.0, "WEEK 24", 168.0, "TREATMENT", "2014-12-17", 170.0, "AFTER LYING DOWN FOR 5 MINUTES", 815.0, "PT5M", "PATIENT SUPINE"]
["CDISCPILOT01", "VS", "01-701-1034", 75.0, "PULSE", "Pulse Rate", "STANDING", "97", "beats/min", "97", 97.0, "beats/min", "", "", "", 12.0, "WEEK 24", 168.0, "TREATMENT", "2014-12-17", 170.0, "AFTER STANDING FOR 1 MINUTE", 816.0, "PT1M", "PATIENT STANDING"]
["CDISCPILOT01", "VS", "01-701-1034", 76.0, "PULSE", "Pulse Rate", "STANDING", "91", "beats/min", "91", 91.0, "beats/min", "", "", "", 12.0, "WEEK 24", 168.0, "TREATMENT", "2014-12-17", 170.0, "AFTER STANDING FOR 3 MINUTES", 817.0, "PT3M", "PATIENT STANDING"]
["CDISCPILOT01", "VS", "01-701-1034", 77.0, "PULSE", "Pulse Rate", "SUPINE", "74", "beats/min", "74", 74.0, "beats/min", "", "", "", 13.0, "WEEK 26", 182.0, "TREATMENT", "2014-12-30", 183.0, "AFTER LYING DOWN FOR 5 MINUTES", 815.0, "PT5M", "PATIENT SUPINE"]
["CDISCPILOT01", "VS", "01-701-1034", 78.0, "PULSE", "Pulse Rate", "STANDING", "86", "beats/min", "86", 86.0, "beats/min", "", "", "", 13.0, "WEEK 26", 182.0, "TREATMENT", "2014-12-30", 183.0, "AFTER STANDING FOR 1 MINUTE", 816.0, "PT1M", "PATIENT STANDING"]
["CDISCPILOT01", "VS", "01-701-1034", 79.0, "PULSE", "Pulse Rate", "STANDING", "76", "beats/min", "76", 76.0, "beats/min", "", "", "", 13.0, "WEEK 26", 182.0, "TREATMENT", "2014-12-30", 183.0, "AFTER STANDING FOR 3 MINUTES", 817.0, "PT3M", "PATIENT STANDING"]
["CDISCPILOT01", "VS", "01-701-1034", 80.0, "SYSBP", "Systolic Blood Pressure", "SUPINE", "160", "mmHg", "160", 160.0, "mmHg", "", "", "", 1.0, "SCREENING 1", -7.0, "SCREENING", "2014-06-24", -7.0, "AFTER LYING DOWN FOR 5 MINUTES", 815.0, "PT5M", "PATIENT SUPINE"]
["CDISCPILOT01", "VS", "01-701-1034", 81.0, "SYSBP", "Systolic Blood Pressure", "STANDING", "183", "mmHg", "183", 183.0, "mmHg", "", "", "", 1.0, "SCREENING 1", -7.0, "SCREENING", "2014-06-24", -7.0, "AFTER STANDING FOR 1 MINUTE", 816.0, "PT1M", "PATIENT STANDING"]
["CDISCPILOT01", "VS", "01-701-1034", 82.0, "SYSBP", "Systolic Blood Pressure", "STANDING", "151", "mmHg", "151", 151.0, "mmHg", "", "", "", 1.0, "SCREENING 1", -7.0, "SCREENING", "2014-06-24", -7.0, "AFTER STANDING FOR 3 MINUTES", 817.0, "PT3M", "PATIENT STANDING"]
["CDISCPILOT01", "VS", "01-701-1034", 83.0, "SYSBP", "Systolic Blood Pressure", "SUPINE", "158", "mmHg", "158", 158.0, "mmHg", "", "", "", 2.0, "SCREENING 2", -1.0, "SCREENING", "2014-06-29", -2.0, "AFTER LYING DOWN FOR 5 MINUTES", 815.0, "PT5M", "PATIENT SUPINE"]
["CDISCPILOT01", "VS", "01-701-1034", 84.0, "SYSBP", "Systolic Blood Pressure", "STANDING", "155", "mmHg", "155", 155.0, "mmHg", "", "", "", 2.0, "SCREENING 2", -1.0, "SCREENING", "2014-06-29", -2.0, "AFTER STANDING FOR 1 MINUTE", 816.0, "PT1M", "PATIENT STANDING"]
["CDISCPILOT01", "VS", "01-701-1034", 85.0, "SYSBP", "Systolic Blood Pressure", "STANDING", "155", "mmHg", "155", 155.0, "mmHg", "", "", "", 2.0, "SCREENING 2", -1.0, "SCREENING", "2014-06-29", -2.0, "AFTER STANDING FOR 3 MINUTES", 817.0, "PT3M", "PATIENT STANDING"]
["CDISCPILOT01", "VS", "01-701-1034", 86.0, "SYSBP", "Systolic Blood Pressure", "SUPINE", "163", "mmHg", "163", 163.0, "mmHg", "", "", "Y", 3.0, "BASELINE", 1.0, "TREATMENT", "2014-07-01", 1.0, "AFTER LYING DOWN FOR 5 MINUTES", 815.0, "PT5M", "PATIENT SUPINE"]
["CDISCPILOT01", "VS", "01-701-1034", 87.0, "SYSBP", "Systolic Blood Pressure", "STANDING", "177", "mmHg", "177", 177.0, "mmHg", "", "", "Y", 3.0, "BASELINE", 1.0, "TREATMENT", "2014-07-01", 1.0, "AFTER STANDING FOR 1 MINUTE", 816.0, "PT1M", "PATIENT STANDING"]
["CDISCPILOT01", "VS", "01-701-1034", 88.0, "SYSBP", "Systolic Blood Pressure", "STANDING", "168", "mmHg", "168", 168.0, "mmHg", "", "", "Y", 3.0, "BASELINE", 1.0, "TREATMENT", "2014-07-01", 1.0, "AFTER STANDING FOR 3 MINUTES", 817.0, "PT3M", "PATIENT STANDING"]
["CDISCPILOT01", "VS", "01-701-1034", 89.0, "SYSBP", "Systolic Blood Pressure", "SUPINE", "183", "mmHg", "183", 183.0, "mmHg", "", "", "", 4.0, "WEEK 2", 14.0, "TREATMENT", "2014-07-15", 15.0, "AFTER LYING DOWN FOR 5 MINUTES", 815.0, "PT5M", "PATIENT SUPINE"]
["CDISCPILOT01", "VS", "01-701-1034", 90.0, "SYSBP", "Systolic Blood Pressure", "STANDING", "191", "mmHg", "191", 191.0, "mmHg", "", "", "", 4.0, "WEEK 2", 14.0, "TREATMENT", "2014-07-15", 15.0, "AFTER STANDING FOR 1 MINUTE", 816.0, "PT1M", "PATIENT STANDING"]
["CDISCPILOT01", "VS", "01-701-1034", 91.0, "SYSBP", "Systolic Blood Pressure", "STANDING", "161", "mmHg", "161", 161.0, "mmHg", "", "", "", 4.0, "WEEK 2", 14.0, "TREATMENT", "2014-07-15", 15.0, "AFTER STANDING FOR 3 MINUTES", 817.0, "PT3M", "PATIENT STANDING"]
["CDISCPILOT01", "VS", "01-701-1034", 92.0, "SYSBP", "Systolic Blood Pressure", "SUPINE", "165", "mmHg", "165", 165.0, "mmHg", "", "", "", 5.0, "WEEK 4", 28.0, "TREATMENT", "2014-07-29", 29.0, "AFTER LYING DOWN FOR 5 MINUTES", 815.0, "PT5M", "PATIENT SUPINE"]
["CDISCPILOT01", "VS", "01-701-1034", 93.0, "SYSBP", "Systolic Blood Pressure", "STANDING", "170", "mmHg", "170", 170.0, "mmHg", "", "", "", 5.0, "WEEK 4", 28.0, "TREATMENT", "2014-07-29", 29.0, "AFTER STANDING FOR 1 MINUTE", 816.0, "PT1M", "PATIENT STANDING"]
["CDISCPILOT01", "VS", "01-701-1034", 94.0, "SYSBP", "Systolic Blood Pressure", "STANDING", "169", "mmHg", "169", 169.0, "mmHg", "", "", "", 5.0, "WEEK 4", 28.0, "TREATMENT", "2014-07-29", 29.0, "AFTER STANDING FOR 3 MINUTES", 817.0, "PT3M", "PATIENT STANDING"]
["CDISCPILOT01", "VS", "01-701-1034", 95.0, "SYSBP", "Systolic Blood Pressure", "SUPINE", "140", "mmHg", "140", 140.0, "mmHg", "", "", "", 6.0, "AMBUL ECG REMOVAL", 30.0, "TREATMENT", "2014-07-31", 31.0, "AFTER LYING DOWN FOR 5 MINUTES", 815.0, "PT5M", "PATIENT SUPINE"]
["CDISCPILOT01", "VS", "01-701-1034", 96.0, "SYSBP", "Systolic Blood Pressure", "STANDING", "166", "mmHg", "166", 166.0, "mmHg", "", "", "", 6.0, "AMBUL ECG REMOVAL", 30.0, "TREATMENT", "2014-07-31", 31.0, "AFTER STANDING FOR 1 MINUTE", 816.0, "PT1M", "PATIENT STANDING"]
["CDISCPILOT01", "VS", "01-701-1034", 97.0, "SYSBP", "Systolic Blood Pressure", "STANDING", "159", "mmHg", "159", 159.0, "mmHg", "", "", "", 6.0, "AMBUL ECG REMOVAL", 30.0, "TREATMENT", "2014-07-31", 31.0, "AFTER STANDING FOR 3 MINUTES", 817.0, "PT3M", "PATIENT STANDING"]
["CDISCPILOT01", "VS", "01-701-1034", 98.0, "SYSBP", "Systolic Blood Pressure", "SUPINE", "145", "mmHg", "145", 145.0, "mmHg", "", "", "", 7.0, "WEEK 6", 42.0, "TREATMENT", "2014-08-11", 42.0, "AFTER LYING DOWN FOR 5 MINUTES", 815.0, "PT5M", "PATIENT SUPINE"]
["CDISCPILOT01", "VS", "01-701-1034", 99.0, "SYSBP", "Systolic Blood Pressure", "STANDING", "174", "mmHg", "174", 174.0, "mmHg", "", "", "", 7.0, "WEEK 6", 42.0, "TREATMENT", "2014-08-11", 42.0, "AFTER STANDING FOR 1 MINUTE", 816.0, "PT1M", "PATIENT STANDING"]
["CDISCPILOT01", "VS", "01-701-1034", 100.0, "SYSBP", "Systolic Blood Pressure", "STANDING", "170", "mmHg", "170", 170.0, "mmHg", "", "", "", 7.0, "WEEK 6", 42.0, "TREATMENT", "2014-08-11", 42.0, "AFTER STANDING FOR 3 MINUTES", 817.0, "PT3M", "PATIENT STANDING"]
["CDISCPILOT01", "VS", "01-701-1034", 101.0, "SYSBP", "Systolic Blood Pressure", "SUPINE", "188", "mmHg", "188", 188.0, "mmHg", "", "", "", 8.0, "WEEK 8", 56.0, "TREATMENT", "2014-08-26", 57.0, "AFTER LYING DOWN FOR 5 MINUTES", 815.0, "PT5M", "PATIENT SUPINE"]
["CDISCPILOT01", "VS", "01-701-1034", 102.0, "SYSBP", "Systolic Blood Pressure", "STANDING", "197", "mmHg", "197", 197.0, "mmHg", "", "", "", 8.0, "WEEK 8", 56.0, "TREATMENT", "2014-08-26", 57.0, "AFTER STANDING FOR 1 MINUTE", 816.0, "PT1M", "PATIENT STANDING"]
["CDISCPILOT01", "VS", "01-701-1034", 103.0, "SYSBP", "Systolic Blood Pressure", "STANDING", "198", "mmHg", "198", 198.0, "mmHg", "", "", "", 8.0, "WEEK 8", 56.0, "TREATMENT", "2014-08-26", 57.0, "AFTER STANDING FOR 3 MINUTES", 817.0, "PT3M", "PATIENT STANDING"]
["CDISCPILOT01", "VS", "01-701-1034", 104.0, "SYSBP", "Systolic Blood Pressure", "SUPINE", "145", "mmHg", "145", 145.0, "mmHg", "", "", "", 9.0, "WEEK 12", 84.0, "TREATMENT", "2014-09-25", 87.0, "AFTER LYING DOWN FOR 5 MINUTES", 815.0, "PT5M", "PATIENT SUPINE"]
["CDISCPILOT01", "VS", "01-701-1034", 105.0, "SYSBP", "Systolic Blood Pressure", "STANDING", "150", "mmHg", "150", 150.0, "mmHg", "", "", "", 9.0, "WEEK 12", 84.0, "TREATMENT", "2014-09-25", 87.0, "AFTER STANDING FOR 1 MINUTE", 816.0, "PT1M", "PATIENT STANDING"]
["CDISCPILOT01", "VS", "01-701-1034", 106.0, "SYSBP", "Systolic Blood Pressure", "STANDING", "177", "mmHg", "177", 177.0, "mmHg", "", "", "", 9.0, "WEEK 12", 84.0, "TREATMENT", "2014-09-25", 87.0, "AFTER STANDING FOR 3 MINUTES", 817.0, "PT3M", "PATIENT STANDING"]
["CDISCPILOT01", "VS", "01-701-1034", 107.0, "SYSBP", "Systolic Blood Pressure", "SUPINE", "154", "mmHg", "154", 154.0, "mmHg", "", "", "", 10.0, "WEEK 16", 112.0, "TREATMENT", "2014-10-21", 113.0, "AFTER LYING DOWN FOR 5 MINUTES", 815.0, "PT5M", "PATIENT SUPINE"]
["CDISCPILOT01", "VS", "01-701-1034", 108.0, "SYSBP", "Systolic Blood Pressure", "STANDING", "183", "mmHg", "183", 183.0, "mmHg", "", "", "", 10.0, "WEEK 16", 112.0, "TREATMENT", "2014-10-21", 113.0, "AFTER STANDING FOR 1 MINUTE", 816.0, "PT1M", "PATIENT STANDING"]
["CDISCPILOT01", "VS", "01-701-1034", 109.0, "SYSBP", "Systolic Blood Pressure", "STANDING", "186", "mmHg", "186", 186.0, "mmHg", "", "", "", 10.0, "WEEK 16", 112.0, "TREATMENT", "2014-10-21", 113.0, "AFTER STANDING FOR 3 MINUTES", 817.0, "PT3M", "PATIENT STANDING"]
["CDISCPILOT01", "VS", "01-701-1034", 110.0, "SYSBP", "Systolic Blood Pressure", "SUPINE", "167", "mmHg", "167", 167.0, "mmHg", "", "", "", 11.0, "WEEK 20", 140.0, "TREATMENT", "2014-11-18", 141.0, "AFTER LYING DOWN FOR 5 MINUTES", 815.0, "PT5M", "PATIENT SUPINE"]
["CDISCPILOT01", "VS", "01-701-1034", 111.0, "SYSBP", "Systolic Blood Pressure", "STANDING", "181", "mmHg", "181", 181.0, "mmHg", "", "", "", 11.0, "WEEK 20", 140.0, "TREATMENT", "2014-11-18", 141.0, "AFTER STANDING FOR 1 MINUTE", 816.0, "PT1M", "PATIENT STANDING"]
["CDISCPILOT01", "VS", "01-701-1034", 112.0, "SYSBP", "Systolic Blood Pressure", "STANDING", "185", "mmHg", "185", 185.0, "mmHg", "", "", "", 11.0, "WEEK 20", 140.0, "TREATMENT", "2014-11-18", 141.0, "AFTER STANDING FOR 3 MINUTES", 817.0, "PT3M", "PATIENT STANDING"]
["CDISCPILOT01", "VS", "01-701-1034", 113.0, "SYSBP", "Systolic Blood Pressure", "SUPINE", "178", "mmHg", "178", 178.0, "mmHg", "", "", "", 12.0, "WEEK 24", 168.0, "TREATMENT", "2014-12-17", 170.0, "AFTER LYING DOWN FOR 5 MINUTES", 815.0, "PT5M", "PATIENT SUPINE"]
["CDISCPILOT01", "VS", "01-701-1034", 114.0, "SYSBP", "Systolic Blood Pressure", "STANDING", "198", "mmHg", "198", 198.0, "mmHg", "", "", "", 12.0, "WEEK 24", 168.0, "TREATMENT", "2014-12-17", 170.0, "AFTER STANDING FOR 1 MINUTE", 816.0, "PT1M", "PATIENT STANDING"]
["CDISCPILOT01", "VS", "01-701-1034", 115.0, "SYSBP", "Systolic Blood Pressure", "STANDING", "164", "mmHg", "164", 164.0, "mmHg", "", "", "", 12.0, "WEEK 24", 168.0, "TREATMENT", "2014-12-17", 170.0, "AFTER STANDING FOR 3 MINUTES", 817.0, "PT3M", "PATIENT STANDING"]
["CDISCPILOT01", "VS", "01-701-1034", 116.0, "SYSBP", "Systolic Blood Pressure", "SUPINE", "154", "mmHg", "154", 154.0, "mmHg", "", "", "", 13.0, "WEEK 26", 182.0, "TREATMENT", "2014-12-30", 183.0, "AFTER LYING DOWN FOR 5 MINUTES", 815.0, "PT5M", "PATIENT SUPINE"]
["CDISCPILOT01", "VS", "01-701-1034", 117.0, "SYSBP", "Systolic Blood Pressure", "STANDING", "150", "mmHg", "150", 150.0, "mmHg", "", "", "", 13.0, "WEEK 26", 182.0, "TREATMENT", "2014-12-30", 183.0, "AFTER STANDING FOR 1 MINUTE", 816.0, "PT1M", "PATIENT STANDING"]
["CDISCPILOT01", "VS", "01-701-1034", 118.0, "SYSBP", "Systolic Blood Pressure", "STANDING", "179", "mmHg", "179", 179.0, "mmHg", "", "", "", 13.0, "WEEK 26", 182.0, "TREATMENT", "2014-12-30", 183.0, "AFTER STANDING FOR 3 MINUTES", 817.0, "PT3M", "PATIENT STANDING"]
["CDISCPILOT01", "VS", "01-701-1034", 119.0, "TEMP", "Temperature", "", "97.2", "F", "36.22", 36.22, "C", "", "ORAL CAVITY", "", 1.0, "SCREENING 1", -7.0, "SCREENING", "2014-06-24", -7.0, "", null, "", ""]
["CDISCPILOT01", "VS", "01-701-1034", 120.0, "TEMP", "Temperature", "", "97.7", "F", "36.5", 36.5, "C", "", "ORAL CAVITY", "", 2.0, "SCREENING 2", -1.0, "SCREENING", "2014-06-29", -2.0, "", null, "", ""]
["CDISCPILOT01", "VS", "01-701-1034", 121.0, "TEMP", "Temperature", "", "98.5", "F", "36.94", 36.94, "C", "", "ORAL CAVITY", "Y", 3.0, "BASELINE", 1.0, "TREATMENT", "2014-07-01", 1.0, "", null, "", ""]
["CDISCPILOT01", "VS", "01-701-1034", 122.0, "TEMP", "Temperature", "", "97.8", "F", "36.56", 36.56, "C", "", "ORAL CAVITY", "", 4.0, "WEEK 2", 14.0, "TREATMENT", "2014-07-15", 15.0, "", null, "", ""]
["CDISCPILOT01", "VS", "01-701-1034", 123.0, "TEMP", "Temperature", "", "97.9", "F", "36.61", 36.61, "C", "", "ORAL CAVITY", "", 5.0, "WEEK 4", 28.0, "TREATMENT", "2014-07-29", 29.0, "", null, "", ""]
["CDISCPILOT01", "VS", "01-701-1034", 124.0, "TEMP", "Temperature", "", "98.3", "F", "36.83", 36.83, "C", "", "ORAL CAVITY", "", 6.0, "AMBUL ECG REMOVAL", 30.0, "TREATMENT", "2014-07-31", 31.0, "", null, "", ""]
["CDISCPILOT01", "VS", "01-701-1034", 125.0, "TEMP", "Temperature", "", "98.7", "F", "37.06", 37.06, "C", "", "ORAL CAVITY", "", 7.0, "WEEK 6", 42.0, "TREATMENT", "2014-08-11", 42.0, "", null, "", ""]
["CDISCPILOT01", "VS", "01-701-1034", 126.0, "TEMP", "Temperature", "", "98.1", "F", "36.72", 36.72, "C", "", "ORAL CAVITY", "", 8.0, "WEEK 8", 56.0, "TREATMENT", "2014-08-26", 57.0, "", null, "", ""]
["CDISCPILOT01", "VS", "01-701-1034", 127.0, "TEMP", "Temperature", "", "98.7", "F", "37.06", 37.06, "C", "", "ORAL CAVITY", "", 9.0, "WEEK 12", 84.0, "TREATMENT", "2014-09-25", 87.0, "", null, "", ""]
["CDISCPILOT01", "VS", "01-701-1034", 128.0, "TEMP", "Temperature", "", "98.5", "F", "36.94", 36.94, "C", "", "ORAL CAVITY", "", 10.0, "WEEK 16", 112.0, "TREATMENT", "2014-10-21", 113.0, "", null, "", ""]
["CDISCPILOT01", "VS", "01-701-1034", 129.0, "TEMP", "Temperature", "", "98.4", "F", "36.89", 36.89, "C", "", "ORAL CAVITY", "", 11.0, "WEEK 20", 140.0, "TREATMENT", "2014-11-18", 141.0, "", null, "", ""]
["CDISCPILOT01", "VS", "01-701-1034", 130.0, "TEMP", "Temperature", "", "98.1", "F", "36.72", 36.72, "C", "", "ORAL CAVITY", "", 12.0, "WEEK 24", 168.0, "TREATMENT", "2014-12-17", 170.0, "", null, "", ""]
["CDISCPILOT01", "VS", "01-701-1034", 131.0, "TEMP", "Temperature", "", "97.8", "F", "36.56", 36.56, "C", "", "ORAL CAVITY", "", 13.0, "WEEK 26", 182.0, "TREATMENT", "2014-12-30", 183.0, "", null, "", ""]
["CDISCPILOT01", "VS", "01-701-1034", 132.0, "WEIGHT", "Weight", "", "140.0", "LB", "63.5", 63.5, "kg", "", "", "", 1.0, "SCREENING 1", -7.0, "SCREENING", "2014-06-24", -7.0, "", null, "", ""]
["CDISCPILOT01", "VS", "01-701-1034", 133.0, "WEIGHT", "Weight", "", "138.0", "LB", "62.6", 62.6, "kg", "", "", "Y", 3.0, "BASELINE", 1.0, "TREATMENT", "2014-07-01", 1.0, "", null, "", ""]
["CDISCPILOT01", "VS", "01-701-1034", 134.0, "WEIGHT", "Weight", "", "138.0", "LB", "62.6", 62.6, "kg", "", "", "", 4.0, "WEEK 2", 14.0, "TREATMENT", "2014-07-15", 15.0, "", null, "", ""]
["CDISCPILOT01", "VS", "01-701-1034", 135.0, "WEIGHT", "Weight", "", "141.0", "LB", "63.96", 63.96, "kg", "", "", "", 5.0, "WEEK 4", 28.0, "TREATMENT", "2014-07-29", 29.0, "", null, "", ""]
["CDISCPILOT01", "VS", "01-701-1034", 136.0, "WEIGHT", "Weight", "", "141.0", "LB", "63.96", 63.96, "kg", "", "", "", 7.0, "WEEK 6", 42.0, "TREATMENT", "2014-08-11", 42.0, "", null, "", ""]
["CDISCPILOT01", "VS", "01-701-1034", 137.0, "WEIGHT", "Weight", "", "139.0", "LB", "63.05", 63.05, "kg", "", "", "", 8.0, "WEEK 8", 56.0, "TREATMENT", "2014-08-26", 57.0, "", null, "", ""]
["CDISCPILOT01", "VS", "01-701-1034", 138.0, "WEIGHT", "Weight", "", "139.0", "LB", "63.05", 63.05, "kg", "", "", "", 9.0, "WEEK 12", 84.0, "TREATMENT", "2014-09-25", 87.0, "", null, "", ""]
["CDISCPILOT01", "VS", "01-701-1034", 139.0, "WEIGHT", "Weight", "", "142.0", "LB", "64.41", 64.41, "kg", "", "", "", 10.0, "WEEK 16", 112.0, "TREATMENT", "2014-10-21", 113.0, "", null, "", ""]
["CDISCPILOT01", "VS", "01-701-1034", 140.0, "WEIGHT", "Weight", "", "143.0", "LB", "64.86", 64.86, "kg", "", "", "", 11.0, "WEEK 20", 140.0, "TREATMENT", "2014-11-18", 141.0, "", null, "", ""]
["CDISCPILOT01", "VS", "01-701-1034", 141.0, "WEIGHT", "Weight", "", "144.0", "LB", "65.32", 65.32, "kg", "", "", "", 12.0, "WEEK 24", 168.0, "TREATMENT", "2014-12-17", 170.0, "", null, "", ""]
["CDISCPILOT01", "VS", "01-701-1034", 142.0, "WEIGHT", "Weight", "", "141.0", "LB", "63.96", 63.96, "kg", "", "", "", 13.0, "WEEK 26", 182.0, "TREATMENT", "2014-12-30", 183.0, "", null, "", ""]
["CDISCPILOT01", "VS", "01-701-1047", 1.0, "DIABP", "Diastolic Blood Pressure", "SUPINE", "68", "mmHg", "68", 68.0, "mmHg", "", "", "", 1.0, "SCREENING 1", -7.0, "SCREENING", "2013-01-22", -21.0, "AFTER LYING DOWN FOR 5 MINUTES", 815.0, "PT5M", "PATIENT SUPINE"]
["CDISCPILOT01", "VS", "01-701-1047", 2.0, "DIABP", "Diastolic Blood Pressure", "STANDING", "71", "mmHg", "71", 71.0, "mmHg", "", "", "", 1.0, "SCREENING 1", -7.0, "SCREENING", "2013-01-22", -21.0, "AFTER STANDING FOR 1 MINUTE", 816.0, "PT1M", "PATIENT STANDING"]
["CDISCPILOT01", "VS", "01-701-1047", 3.0, "DIABP", "Diastolic Blood Pressure", "STANDING", "83", "mmHg", "83", 83.0, "mmHg", "", "", "", 1.0, "SCREENING 1", -7.0, "SCREENING", "2013-01-22", -21.0, "AFTER STANDING FOR 3 MINUTES", 817.0, "PT3M", "PATIENT STANDING"]
["CDISCPILOT01", "VS", "01-701-1047", 4.0, "DIABP", "Diastolic Blood Pressure", "SUPINE", "65", "mmHg", "65", 65.0, "mmHg", "", "", "", 2.0, "SCREENING 2", -1.0, "SCREENING", "2013-02-10", -2.0, "AFTER LYING DOWN FOR 5 MINUTES", 815.0, "PT5M", "PATIENT SUPINE"]
["CDISCPILOT01", "VS", "01-701-1047", 5.0, "DIABP", "Diastolic Blood Pressure", "STANDING", "86", "mmHg", "86", 86.0, "mmHg", "", "", "", 2.0, "SCREENING 2", -1.0, "SCREENING", "2013-02-10", -2.0, "AFTER STANDING FOR 1 MINUTE", 816.0, "PT1M", "PATIENT STANDING"]
["CDISCPILOT01", "VS", "01-701-1047", 6.0, "DIABP", "Diastolic Blood Pressure", "STANDING", "71", "mmHg", "71", 71.0, "mmHg", "", "", "", 2.0, "SCREENING 2", -1.0, "SCREENING", "2013-02-10", -2.0, "AFTER STANDING FOR 3 MINUTES", 817.0, "PT3M", "PATIENT STANDING"]
["CDISCPILOT01", "VS", "01-701-1047", 7.0, "DIABP", "Diastolic Blood Pressure", "SUPINE", "61", "mmHg", "61", 61.0, "mmHg", "", "", "Y", 3.0, "BASELINE", 1.0, "TREATMENT", "2013-02-12", 1.0, "AFTER LYING DOWN FOR 5 MINUTES", 815.0, "PT5M", "PATIENT SUPINE"]
["CDISCPILOT01", "VS", "01-701-1047", 8.0, "DIABP", "Diastolic Blood Pressure", "STANDING", "68", "mmHg", "68", 68.0, "mmHg", "", "", "Y", 3.0, "BASELINE", 1.0, "TREATMENT", "2013-02-12", 1.0, "AFTER STANDING FOR 1 MINUTE", 816.0, "PT1M", "PATIENT STANDING"]
["CDISCPILOT01", "VS", "01-701-1047", 9.0, "DIABP", "Diastolic Blood Pressure", "STANDING", "78", "mmHg", "78", 78.0, "mmHg", "", "", "Y", 3.0, "BASELINE", 1.0, "TREATMENT", "2013-02-12", 1.0, "AFTER STANDING FOR 3 MINUTES", 817.0, "PT3M", "PATIENT STANDING"]
["CDISCPILOT01", "VS", "01-701-1047", 10.0, "DIABP", "Diastolic Blood Pressure", "SUPINE", "72", "mmHg", "72", 72.0, "mmHg", "", "", "", 3.5, "AMBUL ECG PLACEMENT", 13.0, "TREATMENT", "2013-02-24", 13.0, "AFTER LYING DOWN FOR 5 MINUTES", 815.0, "PT5M", "PATIENT SUPINE"]
["CDISCPILOT01", "VS", "01-701-1047", 11.0, "DIABP", "Diastolic Blood Pressure", "STANDING", "56", "mmHg", "56", 56.0, "mmHg", "", "", "", 3.5, "AMBUL ECG PLACEMENT", 13.0, "TREATMENT", "2013-02-24", 13.0, "AFTER STANDING FOR 1 MINUTE", 816.0, "PT1M", "PATIENT STANDING"]
["CDISCPILOT01", "VS", "01-701-1047", 12.0, "DIABP", "Diastolic Blood Pressure", "STANDING", "73", "mmHg", "73", 73.0, "mmHg", "", "", "", 3.5, "AMBUL ECG PLACEMENT", 13.0, "TREATMENT", "2013-02-24", 13.0, "AFTER STANDING FOR 3 MINUTES", 817.0, "PT3M", "PATIENT STANDING"]
["CDISCPILOT01", "VS", "01-701-1047", 13.0, "DIABP", "Diastolic Blood Pressure", "SUPINE", "72", "mmHg", "72", 72.0, "mmHg", "", "", "", 4.0, "WEEK 2", 14.0, "TREATMENT", "2013-02-25", 14.0, "AFTER LYING DOWN FOR 5 MINUTES", 815.0, "PT5M", "PATIENT SUPINE"]
["CDISCPILOT01", "VS", "01-701-1047", 14.0, "DIABP", "Diastolic Blood Pressure", "STANDING", "84", "mmHg", "84", 84.0, "mmHg", "", "", "", 4.0, "WEEK 2", 14.0, "TREATMENT", "2013-02-25", 14.0, "AFTER STANDING FOR 1 MINUTE", 816.0, "PT1M", "PATIENT STANDING"]
["CDISCPILOT01", "VS", "01-701-1047", 15.0, "DIABP", "Diastolic Blood Pressure", "STANDING", "73", "mmHg", "73", 73.0, "mmHg", "", "", "", 4.0, "WEEK 2", 14.0, "TREATMENT", "2013-02-25", 14.0, "AFTER STANDING FOR 3 MINUTES", 817.0, "PT3M", "PATIENT STANDING"]
["CDISCPILOT01", "VS", "01-701-1047", 16.0, "DIABP", "Diastolic Blood Pressure", "SUPINE", "72", "mmHg", "72", 72.0, "mmHg", "", "", "", 5.0, "WEEK 4", 28.0, "TREATMENT", "2013-03-10", 27.0, "AFTER LYING DOWN FOR 5 MINUTES", 815.0, "PT5M", "PATIENT SUPINE"]
["CDISCPILOT01", "VS", "01-701-1047", 17.0, "DIABP", "Diastolic Blood Pressure", "STANDING", "71", "mmHg", "71", 71.0, "mmHg", "", "", "", 5.0, "WEEK 4", 28.0, "TREATMENT", "2013-03-10", 27.0, "AFTER STANDING FOR 1 MINUTE", 816.0, "PT1M", "PATIENT STANDING"]
["CDISCPILOT01", "VS", "01-701-1047", 18.0, "DIABP", "Diastolic Blood Pressure", "STANDING", "78", "mmHg", "78", 78.0, "mmHg", "", "", "", 5.0, "WEEK 4", 28.0, "TREATMENT", "2013-03-10", 27.0, "AFTER STANDING FOR 3 MINUTES", 817.0, "PT3M", "PATIENT STANDING"]
["CDISCPILOT01", "VS", "01-701-1047", 19.0, "DIABP", "Diastolic Blood Pressure", "SUPINE", "71", "mmHg", "71", 71.0, "mmHg", "", "", "", 6.0, "AMBUL ECG REMOVAL", 30.0, "TREATMENT", "2013-03-29", 46.0, "AFTER LYING DOWN FOR 5 MINUTES", 815.0, "PT5M", "PATIENT SUPINE"]
["CDISCPILOT01", "VS", "01-701-1047", 20.0, "DIABP", "Diastolic Blood Pressure", "STANDING", "63", "mmHg", "63", 63.0, "mmHg", "", "", "", 6.0, "AMBUL ECG REMOVAL", 30.0, "TREATMENT", "2013-03-29", 46.0, "AFTER STANDING FOR 1 MINUTE", 816.0, "PT1M", "PATIENT STANDING"]
["CDISCPILOT01", "VS", "01-701-1047", 21.0, "DIABP", "Diastolic Blood Pressure", "STANDING", "57", "mmHg", "57", 57.0, "mmHg", "", "", "", 6.0, "AMBUL ECG REMOVAL", 30.0, "TREATMENT", "2013-03-29", 46.0, "AFTER STANDING FOR 3 MINUTES", 817.0, "PT3M", "PATIENT STANDING"]
["CDISCPILOT01", "VS", "01-701-1047", 22.0, "DIABP", "Diastolic Blood Pressure", "SUPINE", "76", "mmHg", "76", 76.0, "mmHg", "", "", "", 201.0, "RETRIEVAL", 168.0, "FOLLOW-UP", "2013-07-28", 167.0, "AFTER LYING DOWN FOR 5 MINUTES", 815.0, "PT5M", "PATIENT SUPINE"]
["CDISCPILOT01", "VS", "01-701-1047", 23.0, "DIABP", "Diastolic Blood Pressure", "STANDING", "71", "mmHg", "71", 71.0, "mmHg", "", "", "", 201.0, "RETRIEVAL", 168.0, "FOLLOW-UP", "2013-07-28", 167.0, "AFTER STANDING FOR 1 MINUTE", 816.0, "PT1M", "PATIENT STANDING"]
["CDISCPILOT01", "VS", "01-701-1047", 24.0, "DIABP", "Diastolic Blood Pressure", "STANDING", "65", "mmHg", "65", 65.0, "mmHg", "", "", "", 201.0, "RETRIEVAL", 168.0, "FOLLOW-UP", "2013-07-28", 167.0, "AFTER STANDING FOR 3 MINUTES", 817.0, "PT3M", "PATIENT STANDING"]
["CDISCPILOT01", "VS", "01-701-1047", 25.0, "HEIGHT", "Height", "", "58.5", "in", "148.59", 148.59, "cm", "", "", "", 1.0, "SCREENING 1", -7.0, "SCREENING", "2013-01-22", -21.0, "", null, "", ""]
["CDISCPILOT01", "VS", "01-701-1047", 26.0, "PULSE", "Pulse Rate", "SUPINE", "53", "beats/min", "53", 53.0, "beats/min", "", "", "", 1.0, "SCREENING 1", -7.0, "SCREENING", "2013-01-22", -21.0, "AFTER LYING DOWN FOR 5 MINUTES", 815.0, "PT5M", "PATIENT SUPINE"]
["CDISCPILOT01", "VS", "01-701-1047", 27.0, "PULSE", "Pulse Rate", "STANDING", "64", "beats/min", "64", 64.0, "beats/min", "", "", "", 1.0, "SCREENING 1", -7.0, "SCREENING", "2013-01-22", -21.0, "AFTER STANDING FOR 1 MINUTE", 816.0, "PT1M", "PATIENT STANDING"]
["CDISCPILOT01", "VS", "01-701-1047", 28.0, "PULSE", "Pulse Rate", "STANDING", "61", "beats/min", "61", 61.0, "beats/min", "", "", "", 1.0, "SCREENING 1", -7.0, "SCREENING", "2013-01-22", -21.0, "AFTER STANDING FOR 3 MINUTES", 817.0, "PT3M", "PATIENT STANDING"]
["CDISCPILOT01", "VS", "01-701-1047", 29.0, "PULSE", "Pulse Rate", "SUPINE", "58", "beats/min", "58", 58.0, "beats/min", "", "", "", 2.0, "SCREENING 2", -1.0, "SCREENING", "2013-02-10", -2.0, "AFTER LYING DOWN FOR 5 MINUTES", 815.0, "PT5M", "PATIENT SUPINE"]
["CDISCPILOT01", "VS", "01-701-1047", 30.0, "PULSE", "Pulse Rate", "STANDING", "74", "beats/min", "74", 74.0, "beats/min", "", "", "", 2.0, "SCREENING 2", -1.0, "SCREENING", "2013-02-10", -2.0, "AFTER STANDING FOR 1 MINUTE", 816.0, "PT1M", "PATIENT STANDING"]
["CDISCPILOT01", "VS", "01-701-1047", 31.0, "PULSE", "Pulse Rate", "STANDING", "73", "beats/min", "73", 73.0, "beats/min", "", "", "", 2.0, "SCREENING 2", -1.0, "SCREENING", "2013-02-10", -2.0, "AFTER STANDING FOR 3 MINUTES", 817.0, "PT3M", "PATIENT STANDING"]
["CDISCPILOT01", "VS", "01-701-1047", 32.0, "PULSE", "Pulse Rate", "SUPINE", "58", "beats/min", "58", 58.0, "beats/min", "", "", "Y", 3.0, "BASELINE", 1.0, "TREATMENT", "2013-02-12", 1.0, "AFTER LYING DOWN FOR 5 MINUTES", 815.0, "PT5M", "PATIENT SUPINE"]
["CDISCPILOT01", "VS", "01-701-1047", 33.0, "PULSE", "Pulse Rate", "STANDING", "67", "beats/min", "67", 67.0, "beats/min", "", "", "Y", 3.0, "BASELINE", 1.0, "TREATMENT", "2013-02-12", 1.0, "AFTER STANDING FOR 1 MINUTE", 816.0, "PT1M", "PATIENT STANDING"]
["CDISCPILOT01", "VS", "01-701-1047", 34.0, "PULSE", "Pulse Rate", "STANDING", "67", "beats/min", "67", 67.0, "beats/min", "", "", "Y", 3.0, "BASELINE", 1.0, "TREATMENT", "2013-02-12", 1.0, "AFTER STANDING FOR 3 MINUTES", 817.0, "PT3M", "PATIENT STANDING"]
["CDISCPILOT01", "VS", "01-701-1047", 35.0, "PULSE", "Pulse Rate", "SUPINE", "62", "beats/min", "62", 62.0, "beats/min", "", "", "", 3.5, "AMBUL ECG PLACEMENT", 13.0, "TREATMENT", "2013-02-24", 13.0, "AFTER LYING DOWN FOR 5 MINUTES", 815.0, "PT5M", "PATIENT SUPINE"]
["CDISCPILOT01", "VS", "01-701-1047", 36.0, "PULSE", "Pulse Rate", "STANDING", "74", "beats/min", "74", 74.0, "beats/min", "", "", "", 3.5, "AMBUL ECG PLACEMENT", 13.0, "TREATMENT", "2013-02-24", 13.0, "AFTER STANDING FOR 1 MINUTE", 816.0, "PT1M", "PATIENT STANDING"]
["CDISCPILOT01", "VS", "01-701-1047", 37.0, "PULSE", "Pulse Rate", "STANDING", "72", "beats/min", "72", 72.0, "beats/min", "", "", "", 3.5, "AMBUL ECG PLACEMENT", 13.0, "TREATMENT", "2013-02-24", 13.0, "AFTER STANDING FOR 3 MINUTES", 817.0, "PT3M", "PATIENT STANDING"]
["CDISCPILOT01", "VS", "01-701-1047", 38.0, "PULSE", "Pulse Rate", "SUPINE", "66", "beats/min", "66", 66.0, "beats/min", "", "", "", 4.0, "WEEK 2", 14.0, "TREATMENT", "2013-02-25", 14.0, "AFTER LYING DOWN FOR 5 MINUTES", 815.0, "PT5M", "PATIENT SUPINE"]
["CDISCPILOT01", "VS", "01-701-1047", 39.0, "PULSE", "Pulse Rate", "STANDING", "75", "beats/min", "75", 75.0, "beats/min", "", "", "", 4.0, "WEEK 2", 14.0, "TREATMENT", "2013-02-25", 14.0, "AFTER STANDING FOR 1 MINUTE", 816.0, "PT1M", "PATIENT STANDING"]
["CDISCPILOT01", "VS", "01-701-1047", 40.0, "PULSE", "Pulse Rate", "STANDING", "78", "beats/min", "78", 78.0, "beats/min", "", "", "", 4.0, "WEEK 2", 14.0, "TREATMENT", "2013-02-25", 14.0, "AFTER STANDING FOR 3 MINUTES", 817.0, "PT3M", "PATIENT STANDING"]
["CDISCPILOT01", "VS", "01-701-1047", 41.0, "PULSE", "Pulse Rate", "SUPINE", "69", "beats/min", "69", 69.0, "beats/min", "", "", "", 5.0, "WEEK 4", 28.0, "TREATMENT", "2013-03-10", 27.0, "AFTER LYING DOWN FOR 5 MINUTES", 815.0, "PT5M", "PATIENT SUPINE"]
["CDISCPILOT01", "VS", "01-701-1047", 42.0, "PULSE", "Pulse Rate", "STANDING", "64", "beats/min", "64", 64.0, "beats/min", "", "", "", 5.0, "WEEK 4", 28.0, "TREATMENT", "2013-03-10", 27.0, "AFTER STANDING FOR 1 MINUTE", 816.0, "PT1M", "PATIENT STANDING"]
["CDISCPILOT01", "VS", "01-701-1047", 43.0, "PULSE", "Pulse Rate", "STANDING", "70", "beats/min", "70", 70.0, "beats/min", "", "", "", 5.0, "WEEK 4", 28.0, "TREATMENT", "2013-03-10", 27.0, "AFTER STANDING FOR 3 MINUTES", 817.0, "PT3M", "PATIENT STANDING"]
["CDISCPILOT01", "VS", "01-701-1047", 44.0, "PULSE", "Pulse Rate", "SUPINE", "78", "beats/min", "78", 78.0, "beats/min", "", "", "", 6.0, "AMBUL ECG REMOVAL", 30.0, "TREATMENT", "2013-03-29", 46.0, "AFTER LYING DOWN FOR 5 MINUTES", 815.0, "PT5M", "PATIENT SUPINE"]
["CDISCPILOT01", "VS", "01-701-1047", 45.0, "PULSE", "Pulse Rate", "STANDING", "90", "beats/min", "90", 90.0, "beats/min", "", "", "", 6.0, "AMBUL ECG REMOVAL", 30.0, "TREATMENT", "2013-03-29", 46.0, "AFTER STANDING FOR 1 MINUTE", 816.0, "PT1M", "PATIENT STANDING"]
["CDISCPILOT01", "VS", "01-701-1047", 46.0, "PULSE", "Pulse Rate", "STANDING", "87", "beats/min", "87", 87.0, "beats/min", "", "", "", 6.0, "AMBUL ECG REMOVAL", 30.0, "TREATMENT", "2013-03-29", 46.0, "AFTER STANDING FOR 3 MINUTES", 817.0, "PT3M", "PATIENT STANDING"]
["CDISCPILOT01", "VS", "01-701-1047", 47.0, "PULSE", "Pulse Rate", "SUPINE", "58", "beats/min", "58", 58.0, "beats/min", "", "", "", 201.0, "RETRIEVAL", 168.0, "FOLLOW-UP", "2013-07-28", 167.0, "AFTER LYING DOWN FOR 5 MINUTES", 815.0, "PT5M", "PATIENT SUPINE"]
["CDISCPILOT01", "VS", "01-701-1047", 48.0, "PULSE", "Pulse Rate", "STANDING", "72", "beats/min", "72", 72.0, "beats/min", "", "", "", 201.0, "RETRIEVAL", 168.0, "FOLLOW-UP", "2013-07-28", 167.0, "AFTER STANDING FOR 1 MINUTE", 816.0, "PT1M", "PATIENT STANDING"]
["CDISCPILOT01", "VS", "01-701-1047", 49.0, "PULSE", "Pulse Rate", "STANDING", "72", "beats/min", "72", 72.0, "beats/min", "", "", "", 201.0, "RETRIEVAL", 168.0, "FOLLOW-UP", "2013-07-28", 167.0, "AFTER STANDING FOR 3 MINUTES", 817.0, "PT3M", "PATIENT STANDING"]
["CDISCPILOT01", "VS", "01-701-1047", 50.0, "SYSBP", "Systolic Blood Pressure", "SUPINE", "165", "mmHg", "165", 165.0, "mmHg", "", "", "", 1.0, "SCREENING 1", -7.0, "SCREENING", "2013-01-22", -21.0, "AFTER LYING DOWN FOR 5 MINUTES", 815.0, "PT5M", "PATIENT SUPINE"]
["CDISCPILOT01", "VS", "01-701-1047", 51.0, "SYSBP", "Systolic Blood Pressure", "STANDING", "162", "mmHg", "162", 162.0, "mmHg", "", "", "", 1.0, "SCREENING 1", -7.0, "SCREENING", "2013-01-22", -21.0, "AFTER STANDING FOR 1 MINUTE", 816.0, "PT1M", "PATIENT STANDING"]
["CDISCPILOT01", "VS", "01-701-1047", 52.0, "SYSBP", "Systolic Blood Pressure", "STANDING", "161", "mmHg", "161", 161.0, "mmHg", "", "", "", 1.0, "SCREENING 1", -7.0, "SCREENING", "2013-01-22", -21.0, "AFTER STANDING FOR 3 MINUTES", 817.0, "PT3M", "PATIENT STANDING"]
["CDISCPILOT01", "VS", "01-701-1047", 53.0, "SYSBP", "Systolic Blood Pressure", "SUPINE", "159", "mmHg", "159", 159.0, "mmHg", "", "", "", 2.0, "SCREENING 2", -1.0, "SCREENING", "2013-02-10", -2.0, "AFTER LYING DOWN FOR 5 MINUTES", 815.0, "PT5M", "PATIENT SUPINE"]
["CDISCPILOT01", "VS", "01-701-1047", 54.0, "SYSBP", "Systolic Blood Pressure", "STANDING", "152", "mmHg", "152", 152.0, "mmHg", "", "", "", 2.0, "SCREENING 2", -1.0, "SCREENING", "2013-02-10", -2.0, "AFTER STANDING FOR 1 MINUTE", 816.0, "PT1M", "PATIENT STANDING"]
["CDISCPILOT01", "VS", "01-701-1047", 55.0, "SYSBP", "Systolic Blood Pressure", "STANDING", "138", "mmHg", "138", 138.0, "mmHg", "", "", "", 2.0, "SCREENING 2", -1.0, "SCREENING", "2013-02-10", -2.0, "AFTER STANDING FOR 3 MINUTES", 817.0, "PT3M", "PATIENT STANDING"]
["CDISCPILOT01", "VS", "01-701-1047", 56.0, "SYSBP", "Systolic Blood Pressure", "SUPINE", "151", "mmHg", "151", 151.0, "mmHg", "", "", "Y", 3.0, "BASELINE", 1.0, "TREATMENT", "2013-02-12", 1.0, "AFTER LYING DOWN FOR 5 MINUTES", 815.0, "PT5M", "PATIENT SUPINE"]
["CDISCPILOT01", "VS", "01-701-1047", 57.0, "SYSBP", "Systolic Blood Pressure", "STANDING", "145", "mmHg", "145", 145.0, "mmHg", "", "", "Y", 3.0, "BASELINE", 1.0, "TREATMENT", "2013-02-12", 1.0, "AFTER STANDING FOR 1 MINUTE", 816.0, "PT1M", "PATIENT STANDING"]
["CDISCPILOT01", "VS", "01-701-1047", 58.0, "SYSBP", "Systolic Blood Pressure", "STANDING", "167", "mmHg", "167", 167.0, "mmHg", "", "", "Y", 3.0, "BASELINE", 1.0, "TREATMENT", "2013-02-12", 1.0, "AFTER STANDING FOR 3 MINUTES", 817.0, "PT3M", "PATIENT STANDING"]
["CDISCPILOT01", "VS", "01-701-1047", 59.0, "SYSBP", "Systolic Blood Pressure", "SUPINE", "146", "mmHg", "146", 146.0, "mmHg", "", "", "", 3.5, "AMBUL ECG PLACEMENT", 13.0, "TREATMENT", "2013-02-24", 13.0, "AFTER LYING DOWN FOR 5 MINUTES", 815.0, "PT5M", "PATIENT SUPINE"]
["CDISCPILOT01", "VS", "01-701-1047", 60.0, "SYSBP", "Systolic Blood Pressure", "STANDING", "137", "mmHg", "137", 137.0, "mmHg", "", "", "", 3.5, "AMBUL ECG PLACEMENT", 13.0, "TREATMENT", "2013-02-24", 13.0, "AFTER STANDING FOR 1 MINUTE", 816.0, "PT1M", "PATIENT STANDING"]
["CDISCPILOT01", "VS", "01-701-1047", 61.0, "SYSBP", "Systolic Blood Pressure", "STANDING", "148", "mmHg", "148", 148.0, "mmHg", "", "", "", 3.5, "AMBUL ECG PLACEMENT", 13.0, "TREATMENT", "2013-02-24", 13.0, "AFTER STANDING FOR 3 MINUTES", 817.0, "PT3M", "PATIENT STANDING"]
["CDISCPILOT01", "VS", "01-701-1047", 62.0, "SYSBP", "Systolic Blood Pressure", "SUPINE", "145", "mmHg", "145", 145.0, "mmHg", "", "", "", 4.0, "WEEK 2", 14.0, "TREATMENT", "2013-02-25", 14.0, "AFTER LYING DOWN FOR 5 MINUTES", 815.0, "PT5M", "PATIENT SUPINE"]
["CDISCPILOT01", "VS", "01-701-1047", 63.0, "SYSBP", "Systolic Blood Pressure", "STANDING", "146", "mmHg", "146", 146.0, "mmHg", "", "", "", 4.0, "WEEK 2", 14.0, "TREATMENT", "2013-02-25", 14.0, "AFTER STANDING FOR 1 MINUTE", 816.0, "PT1M", "PATIENT STANDING"]
["CDISCPILOT01", "VS", "01-701-1047", 64.0, "SYSBP", "Systolic Blood Pressure", "STANDING", "153", "mmHg", "153", 153.0, "mmHg", "", "", "", 4.0, "WEEK 2", 14.0, "TREATMENT", "2013-02-25", 14.0, "AFTER STANDING FOR 3 MINUTES", 817.0, "PT3M", "PATIENT STANDING"]
["CDISCPILOT01", "VS", "01-701-1047", 65.0, "SYSBP", "Systolic Blood Pressure", "SUPINE", "135", "mmHg", "135", 135.0, "mmHg", "", "", "", 5.0, "WEEK 4", 28.0, "TREATMENT", "2013-03-10", 27.0, "AFTER LYING DOWN FOR 5 MINUTES", 815.0, "PT5M", "PATIENT SUPINE"]
["CDISCPILOT01", "VS", "01-701-1047", 66.0, "SYSBP", "Systolic Blood Pressure", "STANDING", "145", "mmHg", "145", 145.0, "mmHg", "", "", "", 5.0, "WEEK 4", 28.0, "TREATMENT", "2013-03-10", 27.0, "AFTER STANDING FOR 1 MINUTE", 816.0, "PT1M", "PATIENT STANDING"]
["CDISCPILOT01", "VS", "01-701-1047", 67.0, "SYSBP", "Systolic Blood Pressure", "STANDING", "143", "mmHg", "143", 143.0, "mmHg", "", "", "", 5.0, "WEEK 4", 28.0, "TREATMENT", "2013-03-10", 27.0, "AFTER STANDING FOR 3 MINUTES", 817.0, "PT3M", "PATIENT STANDING"]
["CDISCPILOT01", "VS", "01-701-1047", 68.0, "SYSBP", "Systolic Blood Pressure", "SUPINE", "123", "mmHg", "123", 123.0, "mmHg", "", "", "", 6.0, "AMBUL ECG REMOVAL", 30.0, "TREATMENT", "2013-03-29", 46.0, "AFTER LYING DOWN FOR 5 MINUTES", 815.0, "PT5M", "PATIENT SUPINE"]
["CDISCPILOT01", "VS", "01-701-1047", 69.0, "SYSBP", "Systolic Blood Pressure", "STANDING", "115", "mmHg", "115", 115.0, "mmHg", "", "", "", 6.0, "AMBUL ECG REMOVAL", 30.0, "TREATMENT", "2013-03-29", 46.0, "AFTER STANDING FOR 1 MINUTE", 816.0, "PT1M", "PATIENT STANDING"]
["CDISCPILOT01", "VS", "01-701-1047", 70.0, "SYSBP", "Systolic Blood Pressure", "STANDING", "123", "mmHg", "123", 123.0, "mmHg", "", "", "", 6.0, "AMBUL ECG REMOVAL", 30.0, "TREATMENT", "2013-03-29", 46.0, "AFTER STANDING FOR 3 MINUTES", 817.0, "PT3M", "PATIENT STANDING"]
["CDISCPILOT01", "VS", "01-701-1047", 71.0, "SYSBP", "Systolic Blood Pressure", "SUPINE", "139", "mmHg", "139", 139.0, "mmHg", "", "", "", 201.0, "RETRIEVAL", 168.0, "FOLLOW-UP", "2013-07-28", 167.0, "AFTER LYING DOWN FOR 5 MINUTES", 815.0, "PT5M", "PATIENT SUPINE"]
["CDISCPILOT01", "VS", "01-701-1047", 72.0, "SYSBP", "Systolic Blood Pressure", "STANDING", "130", "mmHg", "130", 130.0, "mmHg", "", "", "", 201.0, "RETRIEVAL", 168.0, "FOLLOW-UP", "2013-07-28", 167.0, "AFTER STANDING FOR 1 MINUTE", 816.0, "PT1M", "PATIENT STANDING"]
["CDISCPILOT01", "VS", "01-701-1047", 73.0, "SYSBP", "Systolic Blood Pressure", "STANDING", "139", "mmHg", "139", 139.0, "mmHg", "", "", "", 201.0, "RETRIEVAL", 168.0, "FOLLOW-UP", "2013-07-28", 167.0, "AFTER STANDING FOR 3 MINUTES", 817.0, "PT3M", "PATIENT STANDING"]
["CDISCPILOT01", "VS", "01-701-1047", 74.0, "TEMP", "Temperature", "", "97.9", "F", "36.61", 36.61, "C", "", "ORAL CAVITY", "", 2.0, "SCREENING 2", -1.0, "SCREENING", "2013-02-10", -2.0, "", null, "", ""]
["CDISCPILOT01", "VS", "01-701-1047", 75.0, "TEMP", "Temperature", "", "97.5", "F", "36.39", 36.39, "C", "", "ORAL CAVITY", "Y", 3.0, "BASELINE", 1.0, "TREATMENT", "2013-02-12", 1.0, "", null, "", ""]
["CDISCPILOT01", "VS", "01-701-1047", 76.0, "TEMP", "Temperature", "", "97.0", "F", "36.11", 36.11, "C", "", "ORAL CAVITY", "", 3.5, "AMBUL ECG PLACEMENT", 13.0, "TREATMENT", "2013-02-24", 13.0, "", null, "", ""]
["CDISCPILOT01", "VS", "01-701-1047", 77.0, "TEMP", "Temperature", "", "98.9", "F", "37.17", 37.17, "C", "", "ORAL CAVITY", "", 4.0, "WEEK 2", 14.0, "TREATMENT", "2013-02-25", 14.0, "", null, "", ""]
["CDISCPILOT01", "VS", "01-701-1047", 78.0, "TEMP", "Temperature", "", "97.8", "F", "36.56", 36.56, "C", "", "ORAL CAVITY", "", 5.0, "WEEK 4", 28.0, "TREATMENT", "2013-03-10", 27.0, "", null, "", ""]
["CDISCPILOT01", "VS", "01-701-1047", 79.0, "TEMP", "Temperature", "", "98.5", "F", "36.94", 36.94, "C", "", "ORAL CAVITY", "", 6.0, "AMBUL ECG REMOVAL", 30.0, "TREATMENT", "2013-03-29", 46.0, "", null, "", ""]
["CDISCPILOT01", "VS", "01-701-1047", 80.0, "TEMP", "Temperature", "", "98.4", "F", "36.89", 36.89, "C", "", "ORAL CAVITY", "", 201.0, "RETRIEVAL", 168.0, "FOLLOW-UP", "2013-07-28", 167.0, "", null, "", ""]
["CDISCPILOT01", "VS", "01-701-1047", 81.0, "WEIGHT", "Weight", "", "146.0", "LB", "66.23", 66.23, "kg", "", "", "", 1.0, "SCREENING 1", -7.0, "SCREENING", "2013-01-22", -21.0, "", null, "", ""]
["CDISCPILOT01", "VS", "01-701-1047", 82.0, "WEIGHT", "Weight", "", "148.0", "LB", "67.13", 67.13, "kg", "", "", "Y", 3.0, "BASELINE", 1.0, "TREATMENT", "2013-02-12", 1.0, "", null, "", ""]
["CDISCPILOT01", "VS", "01-701-1047", 83.0, "WEIGHT", "Weight", "", "149.0", "LB", "67.59", 67.59, "kg", "", "", "", 4.0, "WEEK 2", 14.0, "TREATMENT", "2013-02-25", 14.0, "", null, "", ""]
["CDISCPILOT01", "VS", "01-701-1047", 84.0, "WEIGHT", "Weight", "", "149.0", "LB", "67.59", 67.59, "kg", "", "", "", 5.0, "WEEK 4", 28.0, "TREATMENT", "2013-03-10", 27.0, "", null, "", ""]
["CDISCPILOT01", "VS", "01-701-1047", 85.0, "WEIGHT", "Weight", "", "148.0", "LB", "67.13", 67.13, "kg", "", "", "", 6.0, "AMBUL ECG REMOVAL", 30.0, "TREATMENT", "2013-03-29", 46.0, "", null, "", ""]
["CDISCPILOT01", "VS", "01-701-1097", 1.0, "DIABP", "Diastolic Blood Pressure", "SUPINE", "72", "mmHg", "72", 72.0, "mmHg", "", "", "", 1.0, "SCREENING 1", -7.0, "SCREENING", "2013-12-23", -9.0, "AFTER LYING DOWN FOR 5 MINUTES", 815.0, "PT5M", "PATIENT SUPINE"]
["CDISCPILOT01", "VS", "01-701-1097", 2.0, "DIABP", "Diastolic Blood Pressure", "STANDING", "74", "mmHg", "74", 74.0, "mmHg", "", "", "", 1.0, "SCREENING 1", -7.0, "SCREENING", "2013-12-23", -9.0, "AFTER STANDING FOR 1 MINUTE", 816.0, "PT1M", "PATIENT STANDING"]
["CDISCPILOT01", "VS", "01-701-1097", 3.0, "DIABP", "Diastolic Blood Pressure", "STANDING", "79", "mmHg", "79", 79.0, "mmHg", "", "", "", 1.0, "SCREENING 1", -7.0, "SCREENING", "2013-12-23", -9.0, "AFTER STANDING FOR 3 MINUTES", 817.0, "PT3M", "PATIENT STANDING"]
["CDISCPILOT01", "VS", "01-701-1097", 4.0, "DIABP", "Diastolic Blood Pressure", "SUPINE", "65", "mmHg", "65", 65.0, "mmHg", "", "", "", 2.0, "SCREENING 2", -1.0, "SCREENING", "2013-12-30", -2.0, "AFTER LYING DOWN FOR 5 MINUTES", 815.0, "PT5M", "PATIENT SUPINE"]
["CDISCPILOT01", "VS", "01-701-1097", 5.0, "DIABP", "Diastolic Blood Pressure", "STANDING", "76", "mmHg", "76", 76.0, "mmHg", "", "", "", 2.0, "SCREENING 2", -1.0, "SCREENING", "2013-12-30", -2.0, "AFTER STANDING FOR 1 MINUTE", 816.0, "PT1M", "PATIENT STANDING"]
["CDISCPILOT01", "VS", "01-701-1097", 6.0, "DIABP", "Diastolic Blood Pressure", "STANDING", "80", "mmHg", "80", 80.0, "mmHg", "", "", "", 2.0, "SCREENING 2", -1.0, "SCREENING", "2013-12-30", -2.0, "AFTER STANDING FOR 3 MINUTES", 817.0, "PT3M", "PATIENT STANDING"]
["CDISCPILOT01", "VS", "01-701-1097", 7.0, "DIABP", "Diastolic Blood Pressure", "SUPINE", "72", "mmHg", "72", 72.0, "mmHg", "", "", "Y", 3.0, "BASELINE", 1.0, "TREATMENT", "2014-01-01", 1.0, "AFTER LYING DOWN FOR 5 MINUTES", 815.0, "PT5M", "PATIENT SUPINE"]
["CDISCPILOT01", "VS", "01-701-1097", 8.0, "DIABP", "Diastolic Blood Pressure", "STANDING", "78", "mmHg", "78", 78.0, "mmHg", "", "", "Y", 3.0, "BASELINE", 1.0, "TREATMENT", "2014-01-01", 1.0, "AFTER STANDING FOR 1 MINUTE", 816.0, "PT1M", "PATIENT STANDING"]
["CDISCPILOT01", "VS", "01-701-1097", 9.0, "DIABP", "Diastolic Blood Pressure", "STANDING", "80", "mmHg", "80", 80.0, "mmHg", "", "", "Y", 3.0, "BASELINE", 1.0, "TREATMENT", "2014-01-01", 1.0, "AFTER STANDING FOR 3 MINUTES", 817.0, "PT3M", "PATIENT STANDING"]
["CDISCPILOT01", "VS", "01-701-1097", 10.0, "DIABP", "Diastolic Blood Pressure", "SUPINE", "67", "mmHg", "67", 67.0, "mmHg", "", "", "", 3.5, "AMBUL ECG PLACEMENT", 13.0, "TREATMENT", "2014-01-14", 14.0, "AFTER LYING DOWN FOR 5 MINUTES", 815.0, "PT5M", "PATIENT SUPINE"]
["CDISCPILOT01", "VS", "01-701-1097", 11.0, "DIABP", "Diastolic Blood Pressure", "STANDING", "79", "mmHg", "79", 79.0, "mmHg", "", "", "", 3.5, "AMBUL ECG PLACEMENT", 13.0, "TREATMENT", "2014-01-14", 14.0, "AFTER STANDING FOR 1 MINUTE", 816.0, "PT1M", "PATIENT STANDING"]
["CDISCPILOT01", "VS", "01-701-1097", 12.0, "DIABP", "Diastolic Blood Pressure", "STANDING", "67", "mmHg", "67", 67.0, "mmHg", "", "", "", 3.5, "AMBUL ECG PLACEMENT", 13.0, "TREATMENT", "2014-01-14", 14.0, "AFTER STANDING FOR 3 MINUTES", 817.0, "PT3M", "PATIENT STANDING"]
["CDISCPILOT01", "VS", "01-701-1097", 13.0, "DIABP", "Diastolic Blood Pressure", "SUPINE", "72", "mmHg", "72", 72.0, "mmHg", "", "", "", 4.0, "WEEK 2", 14.0, "TREATMENT", "2014-01-15", 15.0, "AFTER LYING DOWN FOR 5 MINUTES", 815.0, "PT5M", "PATIENT SUPINE"]
["CDISCPILOT01", "VS", "01-701-1097", 14.0, "DIABP", "Diastolic Blood Pressure", "STANDING", "82", "mmHg", "82", 82.0, "mmHg", "", "", "", 4.0, "WEEK 2", 14.0, "TREATMENT", "2014-01-15", 15.0, "AFTER STANDING FOR 1 MINUTE", 816.0, "PT1M", "PATIENT STANDING"]
["CDISCPILOT01", "VS", "01-701-1097", 15.0, "DIABP", "Diastolic Blood Pressure", "STANDING", "84", "mmHg", "84", 84.0, "mmHg", "", "", "", 4.0, "WEEK 2", 14.0, "TREATMENT", "2014-01-15", 15.0, "AFTER STANDING FOR 3 MINUTES", 817.0, "PT3M", "PATIENT STANDING"]
["CDISCPILOT01", "VS", "01-701-1097", 16.0, "DIABP", "Diastolic Blood Pressure", "SUPINE", "71", "mmHg", "71", 71.0, "mmHg", "", "", "", 5.0, "WEEK 4", 28.0, "TREATMENT", "2014-01-29", 29.0, "AFTER LYING DOWN FOR 5 MINUTES", 815.0, "PT5M", "PATIENT SUPINE"]
["CDISCPILOT01", "VS", "01-701-1097", 17.0, "DIABP", "Diastolic Blood Pressure", "STANDING", "70", "mmHg", "70", 70.0, "mmHg", "", "", "", 5.0, "WEEK 4", 28.0, "TREATMENT", "2014-01-29", 29.0, "AFTER STANDING FOR 1 MINUTE", 816.0, "PT1M", "PATIENT STANDING"]
["CDISCPILOT01", "VS", "01-701-1097", 18.0, "DIABP", "Diastolic Blood Pressure", "STANDING", "68", "mmHg", "68", 68.0, "mmHg", "", "", "", 5.0, "WEEK 4", 28.0, "TREATMENT", "2014-01-29", 29.0, "AFTER STANDING FOR 3 MINUTES", 817.0, "PT3M", "PATIENT STANDING"]
["CDISCPILOT01", "VS", "01-701-1097", 19.0, "DIABP", "Diastolic Blood Pressure", "SUPINE", "68", "mmHg", "68", 68.0, "mmHg", "", "", "", 6.0, "AMBUL ECG REMOVAL", 30.0, "TREATMENT", "2014-02-04", 35.0, "AFTER LYING DOWN FOR 5 MINUTES", 815.0, "PT5M", "PATIENT SUPINE"]
["CDISCPILOT01", "VS", "01-701-1097", 20.0, "DIABP", "Diastolic Blood Pressure", "STANDING", "70", "mmHg", "70", 70.0, "mmHg", "", "", "", 6.0, "AMBUL ECG REMOVAL", 30.0, "TREATMENT", "2014-02-04", 35.0, "AFTER STANDING FOR 1 MINUTE", 816.0, "PT1M", "PATIENT STANDING"]
["CDISCPILOT01", "VS", "01-701-1097", 21.0, "DIABP", "Diastolic Blood Pressure", "STANDING", "70", "mmHg", "70", 70.0, "mmHg", "", "", "", 6.0, "AMBUL ECG REMOVAL", 30.0, "TREATMENT", "2014-02-04", 35.0, "AFTER STANDING FOR 3 MINUTES", 817.0, "PT3M", "PATIENT STANDING"]
["CDISCPILOT01", "VS", "01-701-1097", 22.0, "DIABP", "Diastolic Blood Pressure", "SUPINE", "68", "mmHg", "68", 68.0, "mmHg", "", "", "", 7.0, "WEEK 6", 42.0, "TREATMENT", "2014-02-11", 42.0, "AFTER LYING DOWN FOR 5 MINUTES", 815.0, "PT5M", "PATIENT SUPINE"]
["CDISCPILOT01", "VS", "01-701-1097", 23.0, "DIABP", "Diastolic Blood Pressure", "STANDING", "70", "mmHg", "70", 70.0, "mmHg", "", "", "", 7.0, "WEEK 6", 42.0, "TREATMENT", "2014-02-11", 42.0, "AFTER STANDING FOR 1 MINUTE", 816.0, "PT1M", "PATIENT STANDING"]
["CDISCPILOT01", "VS", "01-701-1097", 24.0, "DIABP", "Diastolic Blood Pressure", "STANDING", "78", "mmHg", "78", 78.0, "mmHg", "", "", "", 7.0, "WEEK 6", 42.0, "TREATMENT", "2014-02-11", 42.0, "AFTER STANDING FOR 3 MINUTES", 817.0, "PT3M", "PATIENT STANDING"]
["CDISCPILOT01", "VS", "01-701-1097", 25.0, "DIABP", "Diastolic Blood Pressure", "SUPINE", "75", "mmHg", "75", 75.0, "mmHg", "", "", "", 8.0, "WEEK 8", 56.0, "TREATMENT", "2014-02-26", 57.0, "AFTER LYING DOWN FOR 5 MINUTES", 815.0, "PT5M", "PATIENT SUPINE"]
["CDISCPILOT01", "VS", "01-701-1097", 26.0, "DIABP", "Diastolic Blood Pressure", "STANDING", "73", "mmHg", "73", 73.0, "mmHg", "", "", "", 8.0, "WEEK 8", 56.0, "TREATMENT", "2014-02-26", 57.0, "AFTER STANDING FOR 1 MINUTE", 816.0, "PT1M", "PATIENT STANDING"]
["CDISCPILOT01", "VS", "01-701-1097", 27.0, "DIABP", "Diastolic Blood Pressure", "STANDING", "66", "mmHg", "66", 66.0, "mmHg", "", "", "", 8.0, "WEEK 8", 56.0, "TREATMENT", "2014-02-26", 57.0, "AFTER STANDING FOR 3 MINUTES", 817.0, "PT3M", "PATIENT STANDING"]
["CDISCPILOT01", "VS", "01-701-1097", 28.0, "DIABP", "Diastolic Blood Pressure", "SUPINE", "74", "mmHg", "74", 74.0, "mmHg", "", "", "", 9.0, "WEEK 12", 84.0, "TREATMENT", "2014-03-26", 85.0, "AFTER LYING DOWN FOR 5 MINUTES", 815.0, "PT5M", "PATIENT SUPINE"]
["CDISCPILOT01", "VS", "01-701-1097", 29.0, "DIABP", "Diastolic Blood Pressure", "STANDING", "70", "mmHg", "70", 70.0, "mmHg", "", "", "", 9.0, "WEEK 12", 84.0, "TREATMENT", "2014-03-26", 85.0, "AFTER STANDING FOR 1 MINUTE", 816.0, "PT1M", "PATIENT STANDING"]
["CDISCPILOT01", "VS", "01-701-1097", 30.0, "DIABP", "Diastolic Blood Pressure", "STANDING", "72", "mmHg", "72", 72.0, "mmHg", "", "", "", 9.0, "WEEK 12", 84.0, "TREATMENT", "2014-03-26", 85.0, "AFTER STANDING FOR 3 MINUTES", 817.0, "PT3M", "PATIENT STANDING"]
["CDISCPILOT01", "VS", "01-701-1097", 31.0, "DIABP", "Diastolic Blood Pressure", "SUPINE", "70", "mmHg", "70", 70.0, "mmHg", "", "", "", 10.0, "WEEK 16", 112.0, "TREATMENT", "2014-04-23", 113.0, "AFTER LYING DOWN FOR 5 MINUTES", 815.0, "PT5M", "PATIENT SUPINE"]
["CDISCPILOT01", "VS", "01-701-1097", 32.0, "DIABP", "Diastolic Blood Pressure", "STANDING", "76", "mmHg", "76", 76.0, "mmHg", "", "", "", 10.0, "WEEK 16", 112.0, "TREATMENT", "2014-04-23", 113.0, "AFTER STANDING FOR 1 MINUTE", 816.0, "PT1M", "PATIENT STANDING"]
["CDISCPILOT01", "VS", "01-701-1097", 33.0, "DIABP", "Diastolic Blood Pressure", "STANDING", "74", "mmHg", "74", 74.0, "mmHg", "", "", "", 10.0, "WEEK 16", 112.0, "TREATMENT", "2014-04-23", 113.0, "AFTER STANDING FOR 3 MINUTES", 817.0, "PT3M", "PATIENT STANDING"]
["CDISCPILOT01", "VS", "01-701-1097", 34.0, "DIABP", "Diastolic Blood Pressure", "SUPINE", "67", "mmHg", "67", 67.0, "mmHg", "", "", "", 11.0, "WEEK 20", 140.0, "TREATMENT", "2014-05-21", 141.0, "AFTER LYING DOWN FOR 5 MINUTES", 815.0, "PT5M", "PATIENT SUPINE"]
["CDISCPILOT01", "VS", "01-701-1097", 35.0, "DIABP", "Diastolic Blood Pressure", "STANDING", "58", "mmHg", "58", 58.0, "mmHg", "", "", "", 11.0, "WEEK 20", 140.0, "TREATMENT", "2014-05-21", 141.0, "AFTER STANDING FOR 1 MINUTE", 816.0, "PT1M", "PATIENT STANDING"]
["CDISCPILOT01", "VS", "01-701-1097", 36.0, "DIABP", "Diastolic Blood Pressure", "STANDING", "61", "mmHg", "61", 61.0, "mmHg", "", "", "", 11.0, "WEEK 20", 140.0, "TREATMENT", "2014-05-21", 141.0, "AFTER STANDING FOR 3 MINUTES", 817.0, "PT3M", "PATIENT STANDING"]
["CDISCPILOT01", "VS", "01-701-1097", 37.0, "DIABP", "Diastolic Blood Pressure", "SUPINE", "83", "mmHg", "83", 83.0, "mmHg", "", "", "", 12.0, "WEEK 24", 168.0, "TREATMENT", "2014-06-18", 169.0, "AFTER LYING DOWN FOR 5 MINUTES", 815.0, "PT5M", "PATIENT SUPINE"]
["CDISCPILOT01", "VS", "01-701-1097", 38.0, "DIABP", "Diastolic Blood Pressure", "STANDING", "84", "mmHg", "84", 84.0, "mmHg", "", "", "", 12.0, "WEEK 24", 168.0, "TREATMENT", "2014-06-18", 169.0, "AFTER STANDING FOR 1 MINUTE", 816.0, "PT1M", "PATIENT STANDING"]
["CDISCPILOT01", "VS", "01-701-1097", 39.0, "DIABP", "Diastolic Blood Pressure", "STANDING", "84", "mmHg", "84", 84.0, "mmHg", "", "", "", 12.0, "WEEK 24", 168.0, "TREATMENT", "2014-06-18", 169.0, "AFTER STANDING FOR 3 MINUTES", 817.0, "PT3M", "PATIENT STANDING"]
["CDISCPILOT01", "VS", "01-701-1097", 40.0, "DIABP", "Diastolic Blood Pressure", "SUPINE", "72", "mmHg", "72", 72.0, "mmHg", "", "", "", 13.0, "WEEK 26", 182.0, "TREATMENT", "2014-07-09", 190.0, "AFTER LYING DOWN FOR 5 MINUTES", 815.0, "PT5M", "PATIENT SUPINE"]
["CDISCPILOT01", "VS", "01-701-1097", 41.0, "DIABP", "Diastolic Blood Pressure", "STANDING", "78", "mmHg", "78", 78.0, "mmHg", "", "", "", 13.0, "WEEK 26", 182.0, "TREATMENT", "2014-07-09", 190.0, "AFTER STANDING FOR 1 MINUTE", 816.0, "PT1M", "PATIENT STANDING"]
["CDISCPILOT01", "VS", "01-701-1097", 42.0, "DIABP", "Diastolic Blood Pressure", "STANDING", "77", "mmHg", "77", 77.0, "mmHg", "", "", "", 13.0, "WEEK 26", 182.0, "TREATMENT", "2014-07-09", 190.0, "AFTER STANDING FOR 3 MINUTES", 817.0, "PT3M", "PATIENT STANDING"]
["CDISCPILOT01", "VS", "01-701-1097", 43.0, "HEIGHT", "Height", "", "066.5", "in", "168.91", 168.91, "cm", "", "", "", 1.0, "SCREENING 1", -7.0, "SCREENING", "2013-12-23", -9.0, "", null, "", ""]
["CDISCPILOT01", "VS", "01-701-1097", 44.0, "PULSE", "Pulse Rate", "SUPINE", "59", "beats/min", "59", 59.0, "beats/min", "", "", "", 1.0, "SCREENING 1", -7.0, "SCREENING", "2013-12-23", -9.0, "AFTER LYING DOWN FOR 5 MINUTES", 815.0, "PT5M", "PATIENT SUPINE"]
["CDISCPILOT01", "VS", "01-701-1097", 45.0, "PULSE", "Pulse Rate", "STANDING", "66", "beats/min", "66", 66.0, "beats/min", "", "", "", 1.0, "SCREENING 1", -7.0, "SCREENING", "2013-12-23", -9.0, "AFTER STANDING FOR 1 MINUTE", 816.0, "PT1M", "PATIENT STANDING"]
["CDISCPILOT01", "VS", "01-701-1097", 46.0, "PULSE", "Pulse Rate", "STANDING", "65", "beats/min", "65", 65.0, "beats/min", "", "", "", 1.0, "SCREENING 1", -7.0, "SCREENING", "2013-12-23", -9.0, "AFTER STANDING FOR 3 MINUTES", 817.0, "PT3M", "PATIENT STANDING"]
["CDISCPILOT01", "VS", "01-701-1097", 47.0, "PULSE", "Pulse Rate", "SUPINE", "60", "beats/min", "60", 60.0, "beats/min", "", "", "", 2.0, "SCREENING 2", -1.0, "SCREENING", "2013-12-30", -2.0, "AFTER LYING DOWN FOR 5 MINUTES", 815.0, "PT5M", "PATIENT SUPINE"]
["CDISCPILOT01", "VS", "01-701-1097", 48.0, "PULSE", "Pulse Rate", "STANDING", "70", "beats/min", "70", 70.0, "beats/min", "", "", "", 2.0, "SCREENING 2", -1.0, "SCREENING", "2013-12-30", -2.0, "AFTER STANDING FOR 1 MINUTE", 816.0, "PT1M", "PATIENT STANDING"]
["CDISCPILOT01", "VS", "01-701-1097", 49.0, "PULSE", "Pulse Rate", "STANDING", "66", "beats/min", "66", 66.0, "beats/min", "", "", "", 2.0, "SCREENING 2", -1.0, "SCREENING", "2013-12-30", -2.0, "AFTER STANDING FOR 3 MINUTES", 817.0, "PT3M", "PATIENT STANDING"]
["CDISCPILOT01", "VS", "01-701-1097", 50.0, "PULSE", "Pulse Rate", "SUPINE", "60", "beats/min", "60", 60.0, "beats/min", "", "", "Y", 3.0, "BASELINE", 1.0, "TREATMENT", "2014-01-01", 1.0, "AFTER LYING DOWN FOR 5 MINUTES", 815.0, "PT5M", "PATIENT SUPINE"]
["CDISCPILOT01", "VS", "01-701-1097", 51.0, "PULSE", "Pulse Rate", "STANDING", "68", "beats/min", "68", 68.0, "beats/min", "", "", "Y", 3.0, "BASELINE", 1.0, "TREATMENT", "2014-01-01", 1.0, "AFTER STANDING FOR 1 MINUTE", 816.0, "PT1M", "PATIENT STANDING"]
["CDISCPILOT01", "VS", "01-701-1097", 52.0, "PULSE", "Pulse Rate", "STANDING", "64", "beats/min", "64", 64.0, "beats/min", "", "", "Y", 3.0, "BASELINE", 1.0, "TREATMENT", "2014-01-01", 1.0, "AFTER STANDING FOR 3 MINUTES", 817.0, "PT3M", "PATIENT STANDING"]
["CDISCPILOT01", "VS", "01-701-1097", 53.0, "PULSE", "Pulse Rate", "SUPINE", "55", "beats/min", "55", 55.0, "beats/min", "", "", "", 3.5, "AMBUL ECG PLACEMENT", 13.0, "TREATMENT", "2014-01-14", 14.0, "AFTER LYING DOWN FOR 5 MINUTES", 815.0, "PT5M", "PATIENT SUPINE"]
["CDISCPILOT01", "VS", "01-701-1097", 54.0, "PULSE", "Pulse Rate", "STANDING", "59", "beats/min", "59", 59.0, "beats/min", "", "", "", 3.5, "AMBUL ECG PLACEMENT", 13.0, "TREATMENT", "2014-01-14", 14.0, "AFTER STANDING FOR 1 MINUTE", 816.0, "PT1M", "PATIENT STANDING"]
["CDISCPILOT01", "VS", "01-701-1097", 55.0, "PULSE", "Pulse Rate", "STANDING", "60", "beats/min", "60", 60.0, "beats/min", "", "", "", 3.5, "AMBUL ECG PLACEMENT", 13.0, "TREATMENT", "2014-01-14", 14.0, "AFTER STANDING FOR 3 MINUTES", 817.0, "PT3M", "PATIENT STANDING"]
["CDISCPILOT01", "VS", "01-701-1097", 56.0, "PULSE", "Pulse Rate", "SUPINE", "66", "beats/min", "66", 66.0, "beats/min", "", "", "", 4.0, "WEEK 2", 14.0, "TREATMENT", "2014-01-15", 15.0, "AFTER LYING DOWN FOR 5 MINUTES", 815.0, "PT5M", "PATIENT SUPINE"]
["CDISCPILOT01", "VS", "01-701-1097", 57.0, "PULSE", "Pulse Rate", "STANDING", "72", "beats/min", "72", 72.0, "beats/min", "", "", "", 4.0, "WEEK 2", 14.0, "TREATMENT", "2014-01-15", 15.0, "AFTER STANDING FOR 1 MINUTE", 816.0, "PT1M", "PATIENT STANDING"]
["CDISCPILOT01", "VS", "01-701-1097", 58.0, "PULSE", "Pulse Rate", "STANDING", "68", "beats/min", "68", 68.0, "beats/min", "", "", "", 4.0, "WEEK 2", 14.0, "TREATMENT", "2014-01-15", 15.0, "AFTER STANDING FOR 3 MINUTES", 817.0, "PT3M", "PATIENT STANDING"]
["CDISCPILOT01", "VS", "01-701-1097", 59.0, "PULSE", "Pulse Rate", "SUPINE", "50", "beats/min", "50", 50.0, "beats/min", "", "", "", 5.0, "WEEK 4", 28.0, "TREATMENT", "2014-01-29", 29.0, "AFTER LYING DOWN FOR 5 MINUTES", 815.0, "PT5M", "PATIENT SUPINE"]
["CDISCPILOT01", "VS", "01-701-1097", 60.0, "PULSE", "Pulse Rate", "STANDING", "54", "beats/min", "54", 54.0, "beats/min", "", "", "", 5.0, "WEEK 4", 28.0, "TREATMENT", "2014-01-29", 29.0, "AFTER STANDING FOR 1 MINUTE", 816.0, "PT1M", "PATIENT STANDING"]
["CDISCPILOT01", "VS", "01-701-1097", 61.0, "PULSE", "Pulse Rate", "STANDING", "54", "beats/min", "54", 54.0, "beats/min", "", "", "", 5.0, "WEEK 4", 28.0, "TREATMENT", "2014-01-29", 29.0, "AFTER STANDING FOR 3 MINUTES", 817.0, "PT3M", "PATIENT STANDING"]
["CDISCPILOT01", "VS", "01-701-1097", 62.0, "PULSE", "Pulse Rate", "SUPINE", "62", "beats/min", "62", 62.0, "beats/min", "", "", "", 6.0, "AMBUL ECG REMOVAL", 30.0, "TREATMENT", "2014-02-04", 35.0, "AFTER LYING DOWN FOR 5 MINUTES", 815.0, "PT5M", "PATIENT SUPINE"]
["CDISCPILOT01", "VS", "01-701-1097", 63.0, "PULSE", "Pulse Rate", "STANDING", "68", "beats/min", "68", 68.0, "beats/min", "", "", "", 6.0, "AMBUL ECG REMOVAL", 30.0, "TREATMENT", "2014-02-04", 35.0, "AFTER STANDING FOR 1 MINUTE", 816.0, "PT1M", "PATIENT STANDING"]
["CDISCPILOT01", "VS", "01-701-1097", 64.0, "PULSE", "Pulse Rate", "STANDING", "66", "beats/min", "66", 66.0, "beats/min", "", "", "", 6.0, "AMBUL ECG REMOVAL", 30.0, "TREATMENT", "2014-02-04", 35.0, "AFTER STANDING FOR 3 MINUTES", 817.0, "PT3M", "PATIENT STANDING"]
["CDISCPILOT01", "VS", "01-701-1097", 65.0, "PULSE", "Pulse Rate", "SUPINE", "64", "beats/min", "64", 64.0, "beats/min", "", "", "", 7.0, "WEEK 6", 42.0, "TREATMENT", "2014-02-11", 42.0, "AFTER LYING DOWN FOR 5 MINUTES", 815.0, "PT5M", "PATIENT SUPINE"]
["CDISCPILOT01", "VS", "01-701-1097", 66.0, "PULSE", "Pulse Rate", "STANDING", "76", "beats/min", "76", 76.0, "beats/min", "", "", "", 7.0, "WEEK 6", 42.0, "TREATMENT", "2014-02-11", 42.0, "AFTER STANDING FOR 1 MINUTE", 816.0, "PT1M", "PATIENT STANDING"]
["CDISCPILOT01", "VS", "01-701-1097", 67.0, "PULSE", "Pulse Rate", "STANDING", "74", "beats/min", "74", 74.0, "beats/min", "", "", "", 7.0, "WEEK 6", 42.0, "TREATMENT", "2014-02-11", 42.0, "AFTER STANDING FOR 3 MINUTES", 817.0, "PT3M", "PATIENT STANDING"]
["CDISCPILOT01", "VS", "01-701-1097", 68.0, "PULSE", "Pulse Rate", "SUPINE", "54", "beats/min", "54", 54.0, "beats/min", "", "", "", 8.0, "WEEK 8", 56.0, "TREATMENT", "2014-02-26", 57.0, "AFTER LYING DOWN FOR 5 MINUTES", 815.0, "PT5M", "PATIENT SUPINE"]
["CDISCPILOT01", "VS", "01-701-1097", 69.0, "PULSE", "Pulse Rate", "STANDING", "62", "beats/min", "62", 62.0, "beats/min", "", "", "", 8.0, "WEEK 8", 56.0, "TREATMENT", "2014-02-26", 57.0, "AFTER STANDING FOR 1 MINUTE", 816.0, "PT1M", "PATIENT STANDING"]
["CDISCPILOT01", "VS", "01-701-1097", 70.0, "PULSE", "Pulse Rate", "STANDING", "61", "beats/min", "61", 61.0, "beats/min", "", "", "", 8.0, "WEEK 8", 56.0, "TREATMENT", "2014-02-26", 57.0, "AFTER STANDING FOR 3 MINUTES", 817.0, "PT3M", "PATIENT STANDING"]
["CDISCPILOT01", "VS", "01-701-1097", 71.0, "PULSE", "Pulse Rate", "SUPINE", "58", "beats/min", "58", 58.0, "beats/min", "", "", "", 9.0, "WEEK 12", 84.0, "TREATMENT", "2014-03-26", 85.0, "AFTER LYING DOWN FOR 5 MINUTES", 815.0, "PT5M", "PATIENT SUPINE"]
["CDISCPILOT01", "VS", "01-701-1097", 72.0, "PULSE", "Pulse Rate", "STANDING", "72", "beats/min", "72", 72.0, "beats/min", "", "", "", 9.0, "WEEK 12", 84.0, "TREATMENT", "2014-03-26", 85.0, "AFTER STANDING FOR 1 MINUTE", 816.0, "PT1M", "PATIENT STANDING"]
["CDISCPILOT01", "VS", "01-701-1097", 73.0, "PULSE", "Pulse Rate", "STANDING", "70", "beats/min", "70", 70.0, "beats/min", "", "", "", 9.0, "WEEK 12", 84.0, "TREATMENT", "2014-03-26", 85.0, "AFTER STANDING FOR 3 MINUTES", 817.0, "PT3M", "PATIENT STANDING"]
["CDISCPILOT01", "VS", "01-701-1097", 74.0, "PULSE", "Pulse Rate", "SUPINE", "67", "beats/min", "67", 67.0, "beats/min", "", "", "", 10.0, "WEEK 16", 112.0, "TREATMENT", "2014-04-23", 113.0, "AFTER LYING DOWN FOR 5 MINUTES", 815.0, "PT5M", "PATIENT SUPINE"]
["CDISCPILOT01", "VS", "01-701-1097", 75.0, "PULSE", "Pulse Rate", "STANDING", "74", "beats/min", "74", 74.0, "beats/min", "", "", "", 10.0, "WEEK 16", 112.0, "TREATMENT", "2014-04-23", 113.0, "AFTER STANDING FOR 1 MINUTE", 816.0, "PT1M", "PATIENT STANDING"]
["CDISCPILOT01", "VS", "01-701-1097", 76.0, "PULSE", "Pulse Rate", "STANDING", "72", "beats/min", "72", 72.0, "beats/min", "", "", "", 10.0, "WEEK 16", 112.0, "TREATMENT", "2014-04-23", 113.0, "AFTER STANDING FOR 3 MINUTES", 817.0, "PT3M", "PATIENT STANDING"]
["CDISCPILOT01", "VS", "01-701-1097", 77.0, "PULSE", "Pulse Rate", "SUPINE", "61", "beats/min", "61", 61.0, "beats/min", "", "", "", 11.0, "WEEK 20", 140.0, "TREATMENT", "2014-05-21", 141.0, "AFTER LYING DOWN FOR 5 MINUTES", 815.0, "PT5M", "PATIENT SUPINE"]
["CDISCPILOT01", "VS", "01-701-1097", 78.0, "PULSE", "Pulse Rate", "STANDING", "70", "beats/min", "70", 70.0, "beats/min", "", "", "", 11.0, "WEEK 20", 140.0, "TREATMENT", "2014-05-21", 141.0, "AFTER STANDING FOR 1 MINUTE", 816.0, "PT1M", "PATIENT STANDING"]
["CDISCPILOT01", "VS", "01-701-1097", 79.0, "PULSE", "Pulse Rate", "STANDING", "67", "beats/min", "67", 67.0, "beats/min", "", "", "", 11.0, "WEEK 20", 140.0, "TREATMENT", "2014-05-21", 141.0, "AFTER STANDING FOR 3 MINUTES", 817.0, "PT3M", "PATIENT STANDING"]
["CDISCPILOT01", "VS", "01-701-1097", 80.0, "PULSE", "Pulse Rate", "SUPINE", "65", "beats/min", "65", 65.0, "beats/min", "", "", "", 12.0, "WEEK 24", 168.0, "TREATMENT", "2014-06-18", 169.0, "AFTER LYING DOWN FOR 5 MINUTES", 815.0, "PT5M", "PATIENT SUPINE"]
["CDISCPILOT01", "VS", "01-701-1097", 81.0, "PULSE", "Pulse Rate", "STANDING", "74", "beats/min", "74", 74.0, "beats/min", "", "", "", 12.0, "WEEK 24", 168.0, "TREATMENT", "2014-06-18", 169.0, "AFTER STANDING FOR 1 MINUTE", 816.0, "PT1M", "PATIENT STANDING"]
["CDISCPILOT01", "VS", "01-701-1097", 82.0, "PULSE", "Pulse Rate", "STANDING", "72", "beats/min", "72", 72.0, "beats/min", "", "", "", 12.0, "WEEK 24", 168.0, "TREATMENT", "2014-06-18", 169.0, "AFTER STANDING FOR 3 MINUTES", 817.0, "PT3M", "PATIENT STANDING"]
["CDISCPILOT01", "VS", "01-701-1097", 83.0, "PULSE", "Pulse Rate", "SUPINE", "58", "beats/min", "58", 58.0, "beats/min", "", "", "", 13.0, "WEEK 26", 182.0, "TREATMENT", "2014-07-09", 190.0, "AFTER LYING DOWN FOR 5 MINUTES", 815.0, "PT5M", "PATIENT SUPINE"]
["CDISCPILOT01", "VS", "01-701-1097", 84.0, "PULSE", "Pulse Rate", "STANDING", "76", "beats/min", "76", 76.0, "beats/min", "", "", "", 13.0, "WEEK 26", 182.0, "TREATMENT", "2014-07-09", 190.0, "AFTER STANDING FOR 1 MINUTE", 816.0, "PT1M", "PATIENT STANDING"]
["CDISCPILOT01", "VS", "01-701-1097", 85.0, "PULSE", "Pulse Rate", "STANDING", "66", "beats/min", "66", 66.0, "beats/min", "", "", "", 13.0, "WEEK 26", 182.0, "TREATMENT", "2014-07-09", 190.0, "AFTER STANDING FOR 3 MINUTES", 817.0, "PT3M", "PATIENT STANDING"]
["CDISCPILOT01", "VS", "01-701-1097", 86.0, "SYSBP", "Systolic Blood Pressure", "SUPINE", "138", "mmHg", "138", 138.0, "mmHg", "", "", "", 1.0, "SCREENING 1", -7.0, "SCREENING", "2013-12-23", -9.0, "AFTER LYING DOWN FOR 5 MINUTES", 815.0, "PT5M", "PATIENT SUPINE"]
["CDISCPILOT01", "VS", "01-701-1097", 87.0, "SYSBP", "Systolic Blood Pressure", "STANDING", "137", "mmHg", "137", 137.0, "mmHg", "", "", "", 1.0, "SCREENING 1", -7.0, "SCREENING", "2013-12-23", -9.0, "AFTER STANDING FOR 1 MINUTE", 816.0, "PT1M", "PATIENT STANDING"]
["CDISCPILOT01", "VS", "01-701-1097", 88.0, "SYSBP", "Systolic Blood Pressure", "STANDING", "139", "mmHg", "139", 139.0, "mmHg", "", "", "", 1.0, "SCREENING 1", -7.0, "SCREENING", "2013-12-23", -9.0, "AFTER STANDING FOR 3 MINUTES", 817.0, "PT3M", "PATIENT STANDING"]
["CDISCPILOT01", "VS", "01-701-1097", 89.0, "SYSBP", "Systolic Blood Pressure", "SUPINE", "131", "mmHg", "131", 131.0, "mmHg", "", "", "", 2.0, "SCREENING 2", -1.0, "SCREENING", "2013-12-30", -2.0, "AFTER LYING DOWN FOR 5 MINUTES", 815.0, "PT5M", "PATIENT SUPINE"]
["CDISCPILOT01", "VS", "01-701-1097", 90.0, "SYSBP", "Systolic Blood Pressure", "STANDING", "138", "mmHg", "138", 138.0, "mmHg", "", "", "", 2.0, "SCREENING 2", -1.0, "SCREENING", "2013-12-30", -2.0, "AFTER STANDING FOR 1 MINUTE", 816.0, "PT1M", "PATIENT STANDING"]
["CDISCPILOT01", "VS", "01-701-1097", 91.0, "SYSBP", "Systolic Blood Pressure", "STANDING", "138", "mmHg", "138", 138.0, "mmHg", "", "", "", 2.0, "SCREENING 2", -1.0, "SCREENING", "2013-12-30", -2.0, "AFTER STANDING FOR 3 MINUTES", 817.0, "PT3M", "PATIENT STANDING"]
["CDISCPILOT01", "VS", "01-701-1097", 92.0, "SYSBP", "Systolic Blood Pressure", "SUPINE", "128", "mmHg", "128", 128.0, "mmHg", "", "", "Y", 3.0, "BASELINE", 1.0, "TREATMENT", "2014-01-01", 1.0, "AFTER LYING DOWN FOR 5 MINUTES", 815.0, "PT5M", "PATIENT SUPINE"]
["CDISCPILOT01", "VS", "01-701-1097", 93.0, "SYSBP", "Systolic Blood Pressure", "STANDING", "130", "mmHg", "130", 130.0, "mmHg", "", "", "Y", 3.0, "BASELINE", 1.0, "TREATMENT", "2014-01-01", 1.0, "AFTER STANDING FOR 1 MINUTE", 816.0, "PT1M", "PATIENT STANDING"]
["CDISCPILOT01", "VS", "01-701-1097", 94.0, "SYSBP", "Systolic Blood Pressure", "STANDING", "132", "mmHg", "132", 132.0, "mmHg", "", "", "Y", 3.0, "BASELINE", 1.0, "TREATMENT", "2014-01-01", 1.0, "AFTER STANDING FOR 3 MINUTES", 817.0, "PT3M", "PATIENT STANDING"]
["CDISCPILOT01", "VS", "01-701-1097", 95.0, "SYSBP", "Systolic Blood Pressure", "SUPINE", "121", "mmHg", "121", 121.0, "mmHg", "", "", "", 3.5, "AMBUL ECG PLACEMENT", 13.0, "TREATMENT", "2014-01-14", 14.0, "AFTER LYING DOWN FOR 5 MINUTES", 815.0, "PT5M", "PATIENT SUPINE"]
["CDISCPILOT01", "VS", "01-701-1097", 96.0, "SYSBP", "Systolic Blood Pressure", "STANDING", "144", "mmHg", "144", 144.0, "mmHg", "", "", "", 3.5, "AMBUL ECG PLACEMENT", 13.0, "TREATMENT", "2014-01-14", 14.0, "AFTER STANDING FOR 1 MINUTE", 816.0, "PT1M", "PATIENT STANDING"]
["CDISCPILOT01", "VS", "01-701-1097", 97.0, "SYSBP", "Systolic Blood Pressure", "STANDING", "130", "mmHg", "130", 130.0, "mmHg", "", "", "", 3.5, "AMBUL ECG PLACEMENT", 13.0, "TREATMENT", "2014-01-14", 14.0, "AFTER STANDING FOR 3 MINUTES", 817.0, "PT3M", "PATIENT STANDING"]
["CDISCPILOT01", "VS", "01-701-1097", 98.0, "SYSBP", "Systolic Blood Pressure", "SUPINE", "124", "mmHg", "124", 124.0, "mmHg", "", "", "", 4.0, "WEEK 2", 14.0, "TREATMENT", "2014-01-15", 15.0, "AFTER LYING DOWN FOR 5 MINUTES", 815.0, "PT5M", "PATIENT SUPINE"]
["CDISCPILOT01", "VS", "01-701-1097", 99.0, "SYSBP", "Systolic Blood Pressure", "STANDING", "130", "mmHg", "130", 130.0, "mmHg", "", "", "", 4.0, "WEEK 2", 14.0, "TREATMENT", "2014-01-15", 15.0, "AFTER STANDING FOR 1 MINUTE", 816.0, "PT1M", "PATIENT STANDING"]
