{"datasetJSONCreationDateTime": "2025-10-13T16:29:06", "datasetJSONVersion": "1.1.0", "fileOID": "UpdatedCDISCPILOT.CDISC SDTM.3.2.CM", "studyOID": "UpdatedCDISCPILOT.CDISC SDTM.3.2", "metaDataVersionOID": "MDV.UpdatedCDISCPILOT.CDISC SDTM.3.2", "itemGroupOID": "{CM", "records": 7510, "name": "CM", "label": "Concomitant Medications", "columns": [{"itemOID": "IT.CM.STUDYID", "name": "STUDYID", "label": "Study Identifier", "dataType": "string", "length": 12, "keySequence": 1}, {"itemOID": "IT.CM.DOMAIN", "name": "DOMAIN", "label": "Domain Abbreviation", "dataType": "string", "length": 2}, {"itemOID": "IT.CM.USUBJID", "name": "USUBJID", "label": "Unique Subject Identifier", "dataType": "string", "length": 11, "keySequence": 2}, {"itemOID": "IT.CM.CMSEQ", "name": "CMSEQ", "label": "Sequence Number", "dataType": "integer", "length": 8}, {"itemOID": "IT.CM.CMSPID", "name": "CMSPID", "label": "Sponsor-Defined Identifier", "dataType": "string", "length": 2}, {"itemOID": "IT.CM.CMTRT", "name": "CMTRT", "label": "Reported Name of Drug, Med, or Therapy", "dataType": "string", "length": 44, "keySequence": 3}, {"itemOID": "IT.CM.CMDECOD", "name": "CMDECOD", "label": "Standardized Medication Name", "dataType": "string", "length": 24}, {"itemOID": "IT.CM.CMINDC", "name": "CMINDC", "label": "Indication", "dataType": "string", "length": 34}, {"itemOID": "IT.CM.CMCLAS", "name": "CMCLAS", "label": "Medication Class", "dataType": "string", "length": 42}, {"itemOID": "IT.CM.CMDOSE", "name": "CMDOSE", "label": "Dose per Administration", "dataType": "integer", "length": 8}, {"itemOID": "IT.CM.CMDOSU", "name": "CMDOSU", "label": "Dose Units", "dataType": "string", "length": 17}, {"itemOID": "IT.CM.CMDOSFRQ", "name": "CMDOSFRQ", "label": "Dosing Frequency per Interval", "dataType": "string", "length": 15}, {"itemOID": "IT.CM.CMROUTE", "name": "CMROUTE", "label": "Route of Administration", "dataType": "string", "length": 200}, {"itemOID": "IT.CM.VISITNUM", "name": "VISITNUM", "label": "Visit Number", "dataType": "double", "length": 8}, {"itemOID": "IT.CM.VISIT", "name": "VISIT", "label": "Visit Name", "dataType": "string", "length": 19}, {"itemOID": "IT.CM.VISITDY", "name": "VISITDY", "label": "Planned Study Day of Visit", "dataType": "integer", "length": 8}, {"itemOID": "IT.CM.EPOCH", "name": "EPOCH", "label": "Epoch", "dataType": "string", "length": 9}, {"itemOID": "IT.CM.CMDTC", "name": "CMDTC", "label": "Date/Time of Collection", "dataType": "string", "length": 10}, {"itemOID": "IT.CM.CMSTDTC", "name": "CMSTDTC", "label": "Start Date/Time of Medication", "dataType": "string", "length": 10, "keySequence": 4}, {"itemOID": "IT.CM.CMENDTC", "name": "CMENDTC", "label": "End Date/Time of Medication", "dataType": "string", "length": 10}, {"itemOID": "IT.CM.CMDY", "name": "CMDY", "label": "Study Day of Visit/Collection/Exam", "dataType": "integer", "length": 8}, {"itemOID": "IT.CM.CMSTDY", "name": "CMSTDY", "label": "Study Day of Start of Medication", "dataType": "integer", "length": 8}, {"itemOID": "IT.CM.CMENDY", "name": "CMENDY", "label": "Study Day of End of Medication", "dataType": "integer", "length": 8}], "rows": [["CDISCPILOT01", "CM", "01-701-1015", 1, "1", "ASPIRIN", "ACETYLSALICYLIC ACID", "", "NERVOUS SYSTEM", 1, "TABLET", "PRN", "ORAL", 1.0, "SCREENING 1", -7, "SCREENING", "2013-12-26", "2003", "", -7, null, null], ["CDISCPILOT01", "CM", "01-701-1015", 2, "4", "TYLENOL", "UNCODED", "", "UNCODED", 1, "TABLET", "PRN", "ORAL", 1.0, "SCREENING 1", -7, "SCREENING", "2013-12-26", "2003", "", -7, null, null], ["CDISCPILOT01", "CM", "01-701-1015", 3, "3", "PREMARIN", "ESTROGENS CONJUGATED", "PROPHYLAXIS OR NON-THERAPEUTIC USE", "GENITO URINARY SYSTEM AND SEX HORMONES", 0, "mg", "QD", "ORAL", 1.0, "SCREENING 1", -7, "SCREENING", "2013-12-26", "2006", "", -7, null, null], ["CDISCPILOT01", "CM", "01-701-1015", 4, "2", "CALCIUM", "CALCIUM", "PROPHYLAXIS OR NON-THERAPEUTIC USE", "ALIMENTARY TRACT AND METABOLISM", 1, "TABLET", "QD", "ORAL", 1.0, "SCREENING 1", -7, "SCREENING", "2013-12-26", "2013", "", -7, null, null], ["CDISCPILOT01", "CM", "01-701-1015", 5, "1", "ASPIRIN", "ACETYLSALICYLIC ACID", "", "NERVOUS SYSTEM", 1, "TABLET", "PRN", "ORAL", 2.0, "SCREENING 2", -1, "SCREENING", "2013-12-31", "2003", "", -2, null, null], ["CDISCPILOT01", "CM", "01-701-1015", 6, "4", "TYLENOL", "UNCODED", "", "UNCODED", 1, "TABLET", "PRN", "ORAL", 2.0, "SCREENING 2", -1, "SCREENING", "2013-12-31", "2003", "", -2, null, null], ["CDISCPILOT01", "CM", "01-701-1015", 7, "3", "PREMARIN", "ESTROGENS CONJUGATED", "PROPHYLAXIS OR NON-THERAPEUTIC USE", "GENITO URINARY SYSTEM AND SEX HORMONES", 0, "mg", "QD", "ORAL", 2.0, "SCREENING 2", -1, "SCREENING", "2013-12-31", "2006", "", -2, null, null], ["CDISCPILOT01", "CM", "01-701-1015", 8, "2", "CALCIUM", "CALCIUM", "PROPHYLAXIS OR NON-THERAPEUTIC USE", "ALIMENTARY TRACT AND METABOLISM", 1, "TABLET", "QD", "ORAL", 2.0, "SCREENING 2", -1, "SCREENING", "2013-12-31", "2013", "", -2, null, null], ["CDISCPILOT01", "CM", "01-701-1015", 9, "1", "ASPIRIN", "ACETYLSALICYLIC ACID", "", "NERVOUS SYSTEM", 1, "TABLET", "PRN", "ORAL", 3.0, "BASELINE", 1, "TREATMENT", "2014-01-02", "2003", "", 1, null, null], ["CDISCPILOT01", "CM", "01-701-1015", 10, "4", "TYLENOL", "UNCODED", "", "UNCODED", 1, "TABLET", "PRN", "ORAL", 3.0, "BASELINE", 1, "TREATMENT", "2014-01-02", "2003", "", 1, null, null], ["CDISCPILOT01", "CM", "01-701-1015", 11, "3", "PREMARIN", "ESTROGENS CONJUGATED", "PROPHYLAXIS OR NON-THERAPEUTIC USE", "GENITO URINARY SYSTEM AND SEX HORMONES", 0, "mg", "QD", "ORAL", 3.0, "BASELINE", 1, "TREATMENT", "2014-01-02", "2006", "", 1, null, null], ["CDISCPILOT01", "CM", "01-701-1015", 12, "2", "CALCIUM", "CALCIUM", "PROPHYLAXIS OR NON-THERAPEUTIC USE", "ALIMENTARY TRACT AND METABOLISM", 1, "TABLET", "QD", "ORAL", 3.0, "BASELINE", 1, "TREATMENT", "2014-01-02", "2013", "", 1, null, null], ["CDISCPILOT01", "CM", "01-701-1015", 13, "1", "ASPIRIN", "ACETYLSALICYLIC ACID", "", "NERVOUS SYSTEM", 1, "TABLET", "PRN", "ORAL", 4.0, "WEEK 2", 14, "TREATMENT", "2014-01-16", "2003", "", 15, null, null], ["CDISCPILOT01", "CM", "01-701-1015", 14, "4", "TYLENOL", "UNCODED", "", "UNCODED", 1, "TABLET", "PRN", "ORAL", 4.0, "WEEK 2", 14, "TREATMENT", "2014-01-16", "2003", "", 15, null, null], ["CDISCPILOT01", "CM", "01-701-1015", 15, "3", "PREMARIN", "ESTROGENS CONJUGATED", "PROPHYLAXIS OR NON-THERAPEUTIC USE", "GENITO URINARY SYSTEM AND SEX HORMONES", 0, "mg", "QD", "ORAL", 4.0, "WEEK 2", 14, "TREATMENT", "2014-01-16", "2006", "", 15, null, null], ["CDISCPILOT01", "CM", "01-701-1015", 16, "2", "CALCIUM", "CALCIUM", "PROPHYLAXIS OR NON-THERAPEUTIC USE", "ALIMENTARY TRACT AND METABOLISM", 1, "TABLET", "QD", "ORAL", 4.0, "WEEK 2", 14, "TREATMENT", "2014-01-16", "2013", "", 15, null, null], ["CDISCPILOT01", "CM", "01-701-1015", 17, "5", "NEOSPORIN /USA/", "UNCODED", "", "UNCODED", 1, "TABLET", "PRN", "TOPICAL", 4.0, "WEEK 2", 14, "TREATMENT", "2014-01-16", "2014-01-03", "", 15, 2, null], ["CDISCPILOT01", "CM", "01-701-1015", 18, "1", "ASPIRIN", "ACETYLSALICYLIC ACID", "", "NERVOUS SYSTEM", 1, "TABLET", "PRN", "ORAL", 5.0, "WEEK 4", 28, "TREATMENT", "2014-01-30", "2003", "", 29, null, null], ["CDISCPILOT01", "CM", "01-701-1015", 19, "4", "TYLENOL", "UNCODED", "", "UNCODED", 1, "TABLET", "PRN", "ORAL", 5.0, "WEEK 4", 28, "TREATMENT", "2014-01-30", "2003", "", 29, null, null], ["CDISCPILOT01", "CM", "01-701-1015", 20, "3", "PREMARIN", "ESTROGENS CONJUGATED", "PROPHYLAXIS OR NON-THERAPEUTIC USE", "GENITO URINARY SYSTEM AND SEX HORMONES", 0, "mg", "QD", "ORAL", 5.0, "WEEK 4", 28, "TREATMENT", "2014-01-30", "2006", "", 29, null, null], ["CDISCPILOT01", "CM", "01-701-1015", 21, "2", "CALCIUM", "CALCIUM", "PROPHYLAXIS OR NON-THERAPEUTIC USE", "ALIMENTARY TRACT AND METABOLISM", 1, "TABLET", "QD", "ORAL", 5.0, "WEEK 4", 28, "TREATMENT", "2014-01-30", "2013", "", 29, null, null], ["CDISCPILOT01", "CM", "01-701-1015", 22, "5", "NEOSPORIN /USA/", "UNCODED", "", "UNCODED", 1, "TABLET", "PRN", "TOPICAL", 5.0, "WEEK 4", 28, "TREATMENT", "2014-01-30", "2014-01-03", "", 29, 2, null], ["CDISCPILOT01", "CM", "01-701-1015", 23, "1", "ASPIRIN", "ACETYLSALICYLIC ACID", "", "NERVOUS SYSTEM", 1, "TABLET", "PRN", "ORAL", 6.0, "AMBUL ECG REMOVAL", 30, "TREATMENT", "2014-02-01", "2003", "", 31, null, null], ["CDISCPILOT01", "CM", "01-701-1015", 24, "4", "TYLENOL", "UNCODED", "", "UNCODED", 1, "TABLET", "PRN", "ORAL", 6.0, "AMBUL ECG REMOVAL", 30, "TREATMENT", "2014-02-01", "2003", "", 31, null, null], ["CDISCPILOT01", "CM", "01-701-1015", 25, "3", "PREMARIN", "ESTROGENS CONJUGATED", "PROPHYLAXIS OR NON-THERAPEUTIC USE", "GENITO URINARY SYSTEM AND SEX HORMONES", 0, "mg", "QD", "ORAL", 6.0, "AMBUL ECG REMOVAL", 30, "TREATMENT", "2014-02-01", "2006", "", 31, null, null], ["CDISCPILOT01", "CM", "01-701-1015", 26, "2", "CALCIUM", "CALCIUM", "PROPHYLAXIS OR NON-THERAPEUTIC USE", "ALIMENTARY TRACT AND METABOLISM", 1, "TABLET", "QD", "ORAL", 6.0, "AMBUL ECG REMOVAL", 30, "TREATMENT", "2014-02-01", "2013", "", 31, null, null], ["CDISCPILOT01", "CM", "01-701-1015", 27, "5", "NEOSPORIN /USA/", "UNCODED", "", "UNCODED", 1, "TABLET", "PRN", "TOPICAL", 6.0, "AMBUL ECG REMOVAL", 30, "TREATMENT", "2014-02-01", "2014-01-03", "", 31, 2, null], ["CDISCPILOT01", "CM", "01-701-1015", 28, "1", "ASPIRIN", "ACETYLSALICYLIC ACID", "", "NERVOUS SYSTEM", 1, "TABLET", "PRN", "ORAL", 7.0, "WEEK 6", 42, "TREATMENT", "2014-02-12", "2003", "", 42, null, null], ["CDISCPILOT01", "CM", "01-701-1015", 29, "4", "TYLENOL", "UNCODED", "", "UNCODED", 1, "TABLET", "PRN", "ORAL", 7.0, "WEEK 6", 42, "TREATMENT", "2014-02-12", "2003", "", 42, null, null], ["CDISCPILOT01", "CM", "01-701-1015", 30, "3", "PREMARIN", "ESTROGENS CONJUGATED", "PROPHYLAXIS OR NON-THERAPEUTIC USE", "GENITO URINARY SYSTEM AND SEX HORMONES", 0, "mg", "QD", "ORAL", 7.0, "WEEK 6", 42, "TREATMENT", "2014-02-12", "2006", "", 42, null, null], ["CDISCPILOT01", "CM", "01-701-1015", 31, "2", "CALCIUM", "CALCIUM", "PROPHYLAXIS OR NON-THERAPEUTIC USE", "ALIMENTARY TRACT AND METABOLISM", 1, "TABLET", "QD", "ORAL", 7.0, "WEEK 6", 42, "TREATMENT", "2014-02-12", "2013", "", 42, null, null], ["CDISCPILOT01", "CM", "01-701-1015", 32, "5", "NEOSPORIN /USA/", "UNCODED", "", "UNCODED", 1, "TABLET", "PRN", "TOPICAL", 7.0, "WEEK 6", 42, "TREATMENT", "2014-02-12", "2014-01-03", "", 42, 2, null], ["CDISCPILOT01", "CM", "01-701-1015", 33, "1", "ASPIRIN", "ACETYLSALICYLIC ACID", "", "NERVOUS SYSTEM", 1, "TABLET", "PRN", "ORAL", 8.0, "WEEK 8", 56, "TREATMENT", "2014-03-05", "2003", "", 63, null, null], ["CDISCPILOT01", "CM", "01-701-1015", 34, "4", "TYLENOL", "UNCODED", "", "UNCODED", 1, "TABLET", "PRN", "ORAL", 8.0, "WEEK 8", 56, "TREATMENT", "2014-03-05", "2003", "", 63, null, null], ["CDISCPILOT01", "CM", "01-701-1015", 35, "3", "PREMARIN", "ESTROGENS CONJUGATED", "PROPHYLAXIS OR NON-THERAPEUTIC USE", "GENITO URINARY SYSTEM AND SEX HORMONES", 0, "mg", "QD", "ORAL", 8.0, "WEEK 8", 56, "TREATMENT", "2014-03-05", "2006", "", 63, null, null], ["CDISCPILOT01", "CM", "01-701-1015", 36, "2", "CALCIUM", "CALCIUM", "PROPHYLAXIS OR NON-THERAPEUTIC USE", "ALIMENTARY TRACT AND METABOLISM", 1, "TABLET", "QD", "ORAL", 8.0, "WEEK 8", 56, "TREATMENT", "2014-03-05", "2013", "", 63, null, null], ["CDISCPILOT01", "CM", "01-701-1015", 37, "5", "NEOSPORIN /USA/", "UNCODED", "", "UNCODED", 1, "TABLET", "PRN", "TOPICAL", 8.0, "WEEK 8", 56, "TREATMENT", "2014-03-05", "2014-01-03", "", 63, 2, null], ["CDISCPILOT01", "CM", "01-701-1015", 38, "1", "ASPIRIN", "ACETYLSALICYLIC ACID", "", "NERVOUS SYSTEM", 1, "TABLET", "PRN", "ORAL", 9.0, "WEEK 12", 84, "TREATMENT", "2014-03-26", "2003", "", 84, null, null], ["CDISCPILOT01", "CM", "01-701-1015", 39, "4", "TYLENOL", "UNCODED", "", "UNCODED", 1, "TABLET", "PRN", "ORAL", 9.0, "WEEK 12", 84, "TREATMENT", "2014-03-26", "2003", "", 84, null, null], ["CDISCPILOT01", "CM", "01-701-1015", 40, "3", "PREMARIN", "ESTROGENS CONJUGATED", "PROPHYLAXIS OR NON-THERAPEUTIC USE", "GENITO URINARY SYSTEM AND SEX HORMONES", 0, "mg", "QD", "ORAL", 9.0, "WEEK 12", 84, "TREATMENT", "2014-03-26", "2006", "", 84, null, null], ["CDISCPILOT01", "CM", "01-701-1015", 41, "2", "CALCIUM", "CALCIUM", "PROPHYLAXIS OR NON-THERAPEUTIC USE", "ALIMENTARY TRACT AND METABOLISM", 1, "TABLET", "QD", "ORAL", 9.0, "WEEK 12", 84, "TREATMENT", "2014-03-26", "2013", "", 84, null, null], ["CDISCPILOT01", "CM", "01-701-1015", 42, "5", "NEOSPORIN /USA/", "UNCODED", "", "UNCODED", 1, "TABLET", "PRN", "TOPICAL", 9.0, "WEEK 12", 84, "TREATMENT", "2014-03-26", "2014-01-03", "", 84, 2, null], ["CDISCPILOT01", "CM", "01-701-1015", 43, "1", "ASPIRIN", "ACETYLSALICYLIC ACID", "", "NERVOUS SYSTEM", 1, "TABLET", "PRN", "ORAL", 10.0, "WEEK 16", 112, "TREATMENT", "2014-05-07", "2003", "", 126, null, null], ["CDISCPILOT01", "CM", "01-701-1015", 44, "4", "TYLENOL", "UNCODED", "", "UNCODED", 1, "TABLET", "PRN", "ORAL", 10.0, "WEEK 16", 112, "TREATMENT", "2014-05-07", "2003", "", 126, null, null], ["CDISCPILOT01", "CM", "01-701-1015", 45, "3", "PREMARIN", "ESTROGENS CONJUGATED", "PROPHYLAXIS OR NON-THERAPEUTIC USE", "GENITO URINARY SYSTEM AND SEX HORMONES", 0, "mg", "QD", "ORAL", 10.0, "WEEK 16", 112, "TREATMENT", "2014-05-07", "2006", "", 126, null, null], ["CDISCPILOT01", "CM", "01-701-1015", 46, "2", "CALCIUM", "CALCIUM", "PROPHYLAXIS OR NON-THERAPEUTIC USE", "ALIMENTARY TRACT AND METABOLISM", 1, "TABLET", "QD", "ORAL", 10.0, "WEEK 16", 112, "TREATMENT", "2014-05-07", "2013", "", 126, null, null], ["CDISCPILOT01", "CM", "01-701-1015", 47, "5", "NEOSPORIN /USA/", "UNCODED", "", "UNCODED", 1, "TABLET", "PRN", "TOPICAL", 10.0, "WEEK 16", 112, "TREATMENT", "2014-05-07", "2014-01-03", "", 126, 2, null], ["CDISCPILOT01", "CM", "01-701-1015", 48, "6", "HYDROCORTISONE", "HYDROCORTISONE", "", "SYSTEMIC HORMONAL PREPARATIONS, EXCL.", 1, "TABLET", "PRN", "TOPICAL", 10.0, "WEEK 16", 112, "TREATMENT", "2014-05-07", "2014-03-27", "", 126, 85, null], ["CDISCPILOT01", "CM", "01-701-1015", 49, "1", "ASPIRIN", "ACETYLSALICYLIC ACID", "", "NERVOUS SYSTEM", 1, "TABLET", "PRN", "ORAL", 11.0, "WEEK 20", 140, "TREATMENT", "2014-05-21", "2003", "", 140, null, null], ["CDISCPILOT01", "CM", "01-701-1015", 50, "4", "TYLENOL", "UNCODED", "", "UNCODED", 1, "TABLET", "PRN", "ORAL", 11.0, "WEEK 20", 140, "TREATMENT", "2014-05-21", "2003", "", 140, null, null], ["CDISCPILOT01", "CM", "01-701-1015", 51, "3", "PREMARIN", "ESTROGENS CONJUGATED", "PROPHYLAXIS OR NON-THERAPEUTIC USE", "GENITO URINARY SYSTEM AND SEX HORMONES", 0, "mg", "QD", "ORAL", 11.0, "WEEK 20", 140, "TREATMENT", "2014-05-21", "2006", "", 140, null, null], ["CDISCPILOT01", "CM", "01-701-1015", 52, "2", "CALCIUM", "CALCIUM", "PROPHYLAXIS OR NON-THERAPEUTIC USE", "ALIMENTARY TRACT AND METABOLISM", 1, "TABLET", "QD", "ORAL", 11.0, "WEEK 20", 140, "TREATMENT", "2014-05-21", "2013", "", 140, null, null], ["CDISCPILOT01", "CM", "01-701-1015", 53, "5", "NEOSPORIN /USA/", "UNCODED", "", "UNCODED", 1, "TABLET", "PRN", "TOPICAL", 11.0, "WEEK 20", 140, "TREATMENT", "2014-05-21", "2014-01-03", "", 140, 2, null], ["CDISCPILOT01", "CM", "01-701-1015", 54, "6", "HYDROCORTISONE", "HYDROCORTISONE", "", "SYSTEMIC HORMONAL PREPARATIONS, EXCL.", 1, "TABLET", "PRN", "TOPICAL", 11.0, "WEEK 20", 140, "TREATMENT", "2014-05-21", "2014-03-27", "", 140, 85, null], ["CDISCPILOT01", "CM", "01-701-1015", 55, "1", "ASPIRIN", "ACETYLSALICYLIC ACID", "", "NERVOUS SYSTEM", 1, "TABLET", "PRN", "ORAL", 12.0, "WEEK 24", 168, "TREATMENT", "2014-06-18", "2003", "", 168, null, null], ["CDISCPILOT01", "CM", "01-701-1015", 56, "4", "TYLENOL", "UNCODED", "", "UNCODED", 1, "TABLET", "PRN", "ORAL", 12.0, "WEEK 24", 168, "TREATMENT", "2014-06-18", "2003", "", 168, null, null], ["CDISCPILOT01", "CM", "01-701-1015", 57, "3", "PREMARIN", "ESTROGENS CONJUGATED", "PROPHYLAXIS OR NON-THERAPEUTIC USE", "GENITO URINARY SYSTEM AND SEX HORMONES", 0, "mg", "QD", "ORAL", 12.0, "WEEK 24", 168, "TREATMENT", "2014-06-18", "2006", "", 168, null, null], ["CDISCPILOT01", "CM", "01-701-1015", 58, "2", "CALCIUM", "CALCIUM", "PROPHYLAXIS OR NON-THERAPEUTIC USE", "ALIMENTARY TRACT AND METABOLISM", 1, "TABLET", "QD", "ORAL", 12.0, "WEEK 24", 168, "TREATMENT", "2014-06-18", "2013", "", 168, null, null], ["CDISCPILOT01", "CM", "01-701-1015", 59, "5", "NEOSPORIN /USA/", "UNCODED", "", "UNCODED", 1, "TABLET", "PRN", "TOPICAL", 12.0, "WEEK 24", 168, "TREATMENT", "2014-06-18", "2014-01-03", "", 168, 2, null], ["CDISCPILOT01", "CM", "01-701-1015", 60, "6", "HYDROCORTISONE", "HYDROCORTISONE", "", "SYSTEMIC HORMONAL PREPARATIONS, EXCL.", 1, "TABLET", "PRN", "TOPICAL", 12.0, "WEEK 24", 168, "TREATMENT", "2014-06-18", "2014-03-27", "", 168, 85, null], ["CDISCPILOT01", "CM", "01-701-1015", 61, "1", "ASPIRIN", "ACETYLSALICYLIC ACID", "", "NERVOUS SYSTEM", 1, "TABLET", "PRN", "ORAL", 13.0, "WEEK 26", 182, "TREATMENT", "2014-07-02", "2003", "", 182, null, null], ["CDISCPILOT01", "CM", "01-701-1015", 62, "4", "TYLENOL", "UNCODED", "", "UNCODED", 1, "TABLET", "PRN", "ORAL", 13.0, "WEEK 26", 182, "TREATMENT", "2014-07-02", "2003", "", 182, null, null], ["CDISCPILOT01", "CM", "01-701-1015", 63, "3", "PREMARIN", "ESTROGENS CONJUGATED", "PROPHYLAXIS OR NON-THERAPEUTIC USE", "GENITO URINARY SYSTEM AND SEX HORMONES", 0, "mg", "QD", "ORAL", 13.0, "WEEK 26", 182, "TREATMENT", "2014-07-02", "2006", "", 182, null, null], ["CDISCPILOT01", "CM", "01-701-1015", 64, "2", "CALCIUM", "CALCIUM", "PROPHYLAXIS OR NON-THERAPEUTIC USE", "ALIMENTARY TRACT AND METABOLISM", 1, "TABLET", "QD", "ORAL", 13.0, "WEEK 26", 182, "TREATMENT", "2014-07-02", "2013", "", 182, null, null], ["CDISCPILOT01", "CM", "01-701-1015", 65, "5", "NEOSPORIN /USA/", "UNCODED", "", "UNCODED", 1, "TABLET", "PRN", "TOPICAL", 13.0, "WEEK 26", 182, "TREATMENT", "2014-07-02", "2014-01-03", "", 182, 2, null], ["CDISCPILOT01", "CM", "01-701-1015", 66, "6", "HYDROCORTISONE", "HYDROCORTISONE", "", "SYSTEMIC HORMONAL PREPARATIONS, EXCL.", 1, "TABLET", "PRN", "TOPICAL", 13.0, "WEEK 26", 182, "TREATMENT", "2014-07-02", "2014-03-27", "", 182, 85, null], ["CDISCPILOT01", "CM", "01-701-1023", 1, "2", "MYLANTA", "UNCODED", "", "UNCODED", 1, "TABLET", "PRN", "ORAL", 1.0, "SCREENING 1", -7, "SCREENING", "2012-07-22", "2002", "", -14, null, null], ["CDISCPILOT01", "CM", "01-701-1023", 2, "3", "TUMS", "UNCODED", "", "UNCODED", 1, "TABLET", "PRN", "ORAL", 1.0, "SCREENING 1", -7, "SCREENING", "2012-07-22", "2002", "", -14, null, null], ["CDISCPILOT01", "CM", "01-701-1023", 3, "1", "ASPIRIN", "ACETYLSALICYLIC ACID", "", "NERVOUS SYSTEM", 325, "mg", "PRN", "ORAL", 1.0, "SCREENING 1", -7, "SCREENING", "2012-07-22", "2006", "", -14, null, null], ["CDISCPILOT01", "CM", "01-701-1023", 4, "2", "MYLANTA", "UNCODED", "", "UNCODED", 1, "TABLET", "PRN", "ORAL", 2.0, "SCREENING 2", -1, "SCREENING", "2012-08-03", "2002", "", -2, null, null], ["CDISCPILOT01", "CM", "01-701-1023", 5, "3", "TUMS", "UNCODED", "", "UNCODED", 1, "TABLET", "PRN", "ORAL", 2.0, "SCREENING 2", -1, "SCREENING", "2012-08-03", "2002", "", -2, null, null], ["CDISCPILOT01", "CM", "01-701-1023", 6, "1", "ASPIRIN", "ACETYLSALICYLIC ACID", "", "NERVOUS SYSTEM", 325, "mg", "PRN", "ORAL", 2.0, "SCREENING 2", -1, "SCREENING", "2012-08-03", "2006", "", -2, null, null], ["CDISCPILOT01", "CM", "01-701-1023", 7, "2", "MYLANTA", "UNCODED", "", "UNCODED", 1, "TABLET", "PRN", "ORAL", 3.0, "BASELINE", 1, "TREATMENT", "2012-08-05", "2002", "", 1, null, null], ["CDISCPILOT01", "CM", "01-701-1023", 8, "3", "TUMS", "UNCODED", "", "UNCODED", 1, "TABLET", "PRN", "ORAL", 3.0, "BASELINE", 1, "TREATMENT", "2012-08-05", "2002", "", 1, null, null], ["CDISCPILOT01", "CM", "01-701-1023", 9, "1", "ASPIRIN", "ACETYLSALICYLIC ACID", "", "NERVOUS SYSTEM", 325, "mg", "PRN", "ORAL", 3.0, "BASELINE", 1, "TREATMENT", "2012-08-05", "2006", "", 1, null, null], ["CDISCPILOT01", "CM", "01-701-1023", 10, "2", "MYLANTA", "UNCODED", "", "UNCODED", 1, "TABLET", "PRN", "ORAL", 4.0, "WEEK 2", 14, "TREATMENT", "2012-08-27", "2002", "", 23, null, null], ["CDISCPILOT01", "CM", "01-701-1023", 11, "3", "TUMS", "UNCODED", "", "UNCODED", 1, "TABLET", "PRN", "ORAL", 4.0, "WEEK 2", 14, "TREATMENT", "2012-08-27", "2002", "", 23, null, null], ["CDISCPILOT01", "CM", "01-701-1023", 12, "1", "ASPIRIN", "ACETYLSALICYLIC ACID", "", "NERVOUS SYSTEM", 325, "mg", "PRN", "ORAL", 4.0, "WEEK 2", 14, "TREATMENT", "2012-08-27", "2006", "", 23, null, null], ["CDISCPILOT01", "CM", "01-701-1023", 13, "2", "MYLANTA", "UNCODED", "", "UNCODED", 1, "TABLET", "PRN", "ORAL", 5.0, "WEEK 4", 28, "TREATMENT", "2012-09-02", "2002", "", 29, null, null], ["CDISCPILOT01", "CM", "01-701-1023", 14, "3", "TUMS", "UNCODED", "", "UNCODED", 1, "TABLET", "PRN", "ORAL", 5.0, "WEEK 4", 28, "TREATMENT", "2012-09-02", "2002", "", 29, null, null], ["CDISCPILOT01", "CM", "01-701-1023", 15, "1", "ASPIRIN", "ACETYLSALICYLIC ACID", "", "NERVOUS SYSTEM", 325, "mg", "PRN", "ORAL", 5.0, "WEEK 4", 28, "TREATMENT", "2012-09-02", "2006", "", 29, null, null], ["CDISCPILOT01", "CM", "01-701-1023", 16, "2", "MYLANTA", "UNCODED", "", "UNCODED", 1, "TABLET", "PRN", "ORAL", 101.0, "AE FOLLOW-UP", null, "SCREENING", "2013-02-18", "2002", "", 198, null, null], ["CDISCPILOT01", "CM", "01-701-1023", 17, "3", "TUMS", "UNCODED", "", "UNCODED", 1, "TABLET", "PRN", "ORAL", 101.0, "AE FOLLOW-UP", null, "SCREENING", "2013-02-18", "2002", "", 198, null, null], ["CDISCPILOT01", "CM", "01-701-1023", 18, "1", "ASPIRIN", "ACETYLSALICYLIC ACID", "", "NERVOUS SYSTEM", 325, "mg", "PRN", "ORAL", 101.0, "AE FOLLOW-UP", null, "SCREENING", "2013-02-18", "2006", "", 198, null, null], ["CDISCPILOT01", "CM", "01-701-1023", 19, "2", "MYLANTA", "UNCODED", "", "UNCODED", 1, "TABLET", "PRN", "ORAL", 201.0, "RETRIEVAL", 168, "TREATMENT", "2013-02-18", "2002", "", 198, null, null], ["CDISCPILOT01", "CM", "01-701-1023", 20, "3", "TUMS", "UNCODED", "", "UNCODED", 1, "TABLET", "PRN", "ORAL", 201.0, "RETRIEVAL", 168, "TREATMENT", "2013-02-18", "2002", "", 198, null, null], ["CDISCPILOT01", "CM", "01-701-1023", 21, "1", "ASPIRIN", "ACETYLSALICYLIC ACID", "", "NERVOUS SYSTEM", 325, "mg", "PRN", "ORAL", 201.0, "RETRIEVAL", 168, "TREATMENT", "2013-02-18", "2006", "", 198, null, null], ["CDISCPILOT01", "CM", "01-701-1028", 1, "1", "CENTRUM", "UNCODED", "PROPHYLAXIS OR NON-THERAPEUTIC USE", "UNCODED", 1, "TABLET", "QD", "ORAL", 1.0, "SCREENING 1", -7, "SCREENING", "2013-07-11", "2013-04", "", -8, null, null], ["CDISCPILOT01", "CM", "01-701-1028", 2, "1", "CENTRUM", "UNCODED", "PROPHYLAXIS OR NON-THERAPEUTIC USE", "UNCODED", 1, "TABLET", "QD", "ORAL", 2.0, "SCREENING 2", -1, "SCREENING", "2013-07-17", "2013-04", "", -2, null, null], ["CDISCPILOT01", "CM", "01-701-1028", 3, "1", "CENTRUM", "UNCODED", "PROPHYLAXIS OR NON-THERAPEUTIC USE", "UNCODED", 1, "TABLET", "QD", "ORAL", 3.0, "BASELINE", 1, "TREATMENT", "2013-07-19", "2013-04", "", 1, null, null], ["CDISCPILOT01", "CM", "01-701-1028", 4, "1", "CENTRUM", "UNCODED", "PROPHYLAXIS OR NON-THERAPEUTIC USE", "UNCODED", 1, "TABLET", "QD", "ORAL", 4.0, "WEEK 2", 14, "TREATMENT", "2013-08-01", "2013-04", "", 14, null, null], ["CDISCPILOT01", "CM", "01-701-1028", 5, "1", "CENTRUM", "UNCODED", "PROPHYLAXIS OR NON-THERAPEUTIC USE", "UNCODED", 1, "TABLET", "QD", "ORAL", 5.0, "WEEK 4", 28, "TREATMENT", "2013-08-14", "2013-04", "", 27, null, null], ["CDISCPILOT01", "CM", "01-701-1028", 6, "2", "HYDROCORTISONE", "HYDROCORTISONE", "", "SYSTEMIC HORMONAL PREPARATIONS, EXCL.", 1, "TABLET", "PRN", "TOPICAL", 5.0, "WEEK 4", 28, "TREATMENT", "2013-08-14", "2013-08-08", "", 27, 21, null], ["CDISCPILOT01", "CM", "01-701-1028", 7, "1", "CENTRUM", "UNCODED", "PROPHYLAXIS OR NON-THERAPEUTIC USE", "UNCODED", 1, "TABLET", "QD", "ORAL", 6.0, "AMBUL ECG REMOVAL", 30, "TREATMENT", "2013-08-16", "2013-04", "", 29, null, null], ["CDISCPILOT01", "CM", "01-701-1028", 8, "2", "HYDROCORTISONE", "HYDROCORTISONE", "", "SYSTEMIC HORMONAL PREPARATIONS, EXCL.", 1, "TABLET", "PRN", "TOPICAL", 6.0, "AMBUL ECG REMOVAL", 30, "TREATMENT", "2013-08-16", "2013-08-08", "", 29, 21, null], ["CDISCPILOT01", "CM", "01-701-1028", 9, "1", "CENTRUM", "UNCODED", "PROPHYLAXIS OR NON-THERAPEUTIC USE", "UNCODED", 1, "TABLET", "QD", "ORAL", 7.0, "WEEK 6", 42, "TREATMENT", "2013-08-29", "2013-04", "", 42, null, null], ["CDISCPILOT01", "CM", "01-701-1028", 10, "2", "HYDROCORTISONE", "HYDROCORTISONE", "", "SYSTEMIC HORMONAL PREPARATIONS, EXCL.", 1, "TABLET", "PRN", "TOPICAL", 7.0, "WEEK 6", 42, "TREATMENT", "2013-08-29", "2013-08-08", "", 42, 21, null], ["CDISCPILOT01", "CM", "01-701-1028", 11, "1", "CENTRUM", "UNCODED", "PROPHYLAXIS OR NON-THERAPEUTIC USE", "UNCODED", 1, "TABLET", "QD", "ORAL", 8.0, "WEEK 8", 56, "TREATMENT", "2013-09-10", "2013-04", "", 54, null, null], ["CDISCPILOT01", "CM", "01-701-1028", 12, "2", "HYDROCORTISONE", "HYDROCORTISONE", "", "SYSTEMIC HORMONAL PREPARATIONS, EXCL.", 1, "TABLET", "PRN", "TOPICAL", 8.0, "WEEK 8", 56, "TREATMENT", "2013-09-10", "2013-08-08", "", 54, 21, null], ["CDISCPILOT01", "CM", "01-701-1028", 13, "1", "CENTRUM", "UNCODED", "PROPHYLAXIS OR NON-THERAPEUTIC USE", "UNCODED", 1, "TABLET", "QD", "ORAL", 9.0, "WEEK 12", 84, "TREATMENT", "2013-10-09", "2013-04", "", 83, null, null], ["CDISCPILOT01", "CM", "01-701-1028", 14, "2", "HYDROCORTISONE", "HYDROCORTISONE", "", "SYSTEMIC HORMONAL PREPARATIONS, EXCL.", 1, "TABLET", "PRN", "TOPICAL", 9.0, "WEEK 12", 84, "TREATMENT", "2013-10-09", "2013-08-08", "", 83, 21, null], ["CDISCPILOT01", "CM", "01-701-1028", 15, "1", "CENTRUM", "UNCODED", "PROPHYLAXIS OR NON-THERAPEUTIC USE", "UNCODED", 1, "TABLET", "QD", "ORAL", 10.0, "WEEK 16", 112, "TREATMENT", "2013-11-06", "2013-04", "", 111, null, null], ["CDISCPILOT01", "CM", "01-701-1028", 16, "2", "HYDROCORTISONE", "HYDROCORTISONE", "", "SYSTEMIC HORMONAL PREPARATIONS, EXCL.", 1, "TABLET", "PRN", "TOPICAL", 10.0, "WEEK 16", 112, "TREATMENT", "2013-11-06", "2013-08-08", "", 111, 21, null], ["CDISCPILOT01", "CM", "01-701-1028", 17, "1", "CENTRUM", "UNCODED", "PROPHYLAXIS OR NON-THERAPEUTIC USE", "UNCODED", 1, "TABLET", "QD", "ORAL", 11.0, "WEEK 20", 140, "TREATMENT", "2013-12-04", "2013-04", "", 139, null, null], ["CDISCPILOT01", "CM", "01-701-1028", 18, "2", "HYDROCORTISONE", "HYDROCORTISONE", "", "SYSTEMIC HORMONAL PREPARATIONS, EXCL.", 1, "TABLET", "PRN", "TOPICAL", 11.0, "WEEK 20", 140, "TREATMENT", "2013-12-04", "2013-08-08", "", 139, 21, null], ["CDISCPILOT01", "CM", "01-701-1028", 19, "1", "CENTRUM", "UNCODED", "PROPHYLAXIS OR NON-THERAPEUTIC USE", "UNCODED", 1, "TABLET", "QD", "ORAL", 12.0, "WEEK 24", 168, "TREATMENT", "2014-01-06", "2013-04", "", 172, null, null], ["CDISCPILOT01", "CM", "01-701-1028", 20, "2", "HYDROCORTISONE", "HYDROCORTISONE", "", "SYSTEMIC HORMONAL PREPARATIONS, EXCL.", 1, "TABLET", "PRN", "TOPICAL", 12.0, "WEEK 24", 168, "TREATMENT", "2014-01-06", "2013-08-08", "", 172, 21, null], ["CDISCPILOT01", "CM", "01-701-1028", 21, "1", "CENTRUM", "UNCODED", "PROPHYLAXIS OR NON-THERAPEUTIC USE", "UNCODED", 1, "TABLET", "QD", "ORAL", 13.0, "WEEK 26", 182, "TREATMENT", "2014-01-14", "2013-04", "", 180, null, null], ["CDISCPILOT01", "CM", "01-701-1028", 22, "2", "HYDROCORTISONE", "HYDROCORTISONE", "", "SYSTEMIC HORMONAL PREPARATIONS, EXCL.", 1, "TABLET", "PRN", "TOPICAL", 13.0, "WEEK 26", 182, "TREATMENT", "2014-01-14", "2013-08-08", "", 180, 21, null], ["CDISCPILOT01", "CM", "01-701-1033", 1, "1", "CALCIUM", "CALCIUM", "PROPHYLAXIS OR NON-THERAPEUTIC USE", "ALIMENTARY TRACT AND METABOLISM", 1, "TABLET", "PRN", "ORAL", 1.0, "SCREENING 1", -7, "SCREENING", "2014-03-10", "2011", "", -8, null, null], ["CDISCPILOT01", "CM", "01-701-1033", 2, "2", "COD-LIVER OIL", "UNCODED", "PROPHYLAXIS OR NON-THERAPEUTIC USE", "UNCODED", 1, "TABLET", "PRN", "ORAL", 1.0, "SCREENING 1", -7, "SCREENING", "2014-03-10", "2011", "", -8, null, null], ["CDISCPILOT01", "CM", "01-701-1033", 3, "4", "ZINC", "UNCODED", "PROPHYLAXIS OR NON-THERAPEUTIC USE", "UNCODED", 1, "TABLET", "PRN", "ORAL", 1.0, "SCREENING 1", -7, "SCREENING", "2014-03-10", "2011", "", -8, null, null], ["CDISCPILOT01", "CM", "01-701-1033", 4, "3", "NITROGLYCERIN", "UNCODED", "", "UNCODED", 0, "mg", "PRN", "SUBLINGUAL", 1.0, "SCREENING 1", -7, "SCREENING", "2014-03-10", "2014-02", "", -8, null, null], ["CDISCPILOT01", "CM", "01-701-1033", 5, "1", "CALCIUM", "CALCIUM", "PROPHYLAXIS OR NON-THERAPEUTIC USE", "ALIMENTARY TRACT AND METABOLISM", 1, "TABLET", "PRN", "ORAL", 2.0, "SCREENING 2", -1, "SCREENING", "2014-03-16", "2011", "", -2, null, null], ["CDISCPILOT01", "CM", "01-701-1033", 6, "2", "COD-LIVER OIL", "UNCODED", "PROPHYLAXIS OR NON-THERAPEUTIC USE", "UNCODED", 1, "TABLET", "PRN", "ORAL", 2.0, "SCREENING 2", -1, "SCREENING", "2014-03-16", "2011", "", -2, null, null], ["CDISCPILOT01", "CM", "01-701-1033", 7, "4", "ZINC", "UNCODED", "PROPHYLAXIS OR NON-THERAPEUTIC USE", "UNCODED", 1, "TABLET", "PRN", "ORAL", 2.0, "SCREENING 2", -1, "SCREENING", "2014-03-16", "2011", "", -2, null, null], ["CDISCPILOT01", "CM", "01-701-1033", 8, "3", "NITROGLYCERIN", "UNCODED", "", "UNCODED", 0, "mg", "PRN", "SUBLINGUAL", 2.0, "SCREENING 2", -1, "SCREENING", "2014-03-16", "2014-02", "", -2, null, null], ["CDISCPILOT01", "CM", "01-701-1033", 9, "1", "CALCIUM", "CALCIUM", "PROPHYLAXIS OR NON-THERAPEUTIC USE", "ALIMENTARY TRACT AND METABOLISM", 1, "TABLET", "PRN", "ORAL", 3.0, "BASELINE", 1, "TREATMENT", "2014-03-18", "2011", "", 1, null, null], ["CDISCPILOT01", "CM", "01-701-1033", 10, "2", "COD-LIVER OIL", "UNCODED", "PROPHYLAXIS OR NON-THERAPEUTIC USE", "UNCODED", 1, "TABLET", "PRN", "ORAL", 3.0, "BASELINE", 1, "TREATMENT", "2014-03-18", "2011", "", 1, null, null], ["CDISCPILOT01", "CM", "01-701-1033", 11, "4", "ZINC", "UNCODED", "PROPHYLAXIS OR NON-THERAPEUTIC USE", "UNCODED", 1, "TABLET", "PRN", "ORAL", 3.0, "BASELINE", 1, "TREATMENT", "2014-03-18", "2011", "", 1, null, null], ["CDISCPILOT01", "CM", "01-701-1033", 12, "3", "NITROGLYCERIN", "UNCODED", "", "UNCODED", 0, "mg", "PRN", "SUBLINGUAL", 3.0, "BASELINE", 1, "TREATMENT", "2014-03-18", "2014-02", "", 1, null, null], ["CDISCPILOT01", "CM", "01-701-1033", 13, "1", "CALCIUM", "CALCIUM", "PROPHYLAXIS OR NON-THERAPEUTIC USE", "ALIMENTARY TRACT AND METABOLISM", 1, "TABLET", "PRN", "ORAL", 4.0, "WEEK 2", 14, "TREATMENT", "2014-04-01", "2011", "", 15, null, null], ["CDISCPILOT01", "CM", "01-701-1033", 14, "2", "COD-LIVER OIL", "UNCODED", "PROPHYLAXIS OR NON-THERAPEUTIC USE", "UNCODED", 1, "TABLET", "PRN", "ORAL", 4.0, "WEEK 2", 14, "TREATMENT", "2014-04-01", "2011", "", 15, null, null], ["CDISCPILOT01", "CM", "01-701-1033", 15, "4", "ZINC", "UNCODED", "PROPHYLAXIS OR NON-THERAPEUTIC USE", "UNCODED", 1, "TABLET", "PRN", "ORAL", 4.0, "WEEK 2", 14, "TREATMENT", "2014-04-01", "2011", "", 15, null, null], ["CDISCPILOT01", "CM", "01-701-1033", 16, "3", "NITROGLYCERIN", "UNCODED", "", "UNCODED", 0, "mg", "PRN", "SUBLINGUAL", 4.0, "WEEK 2", 14, "TREATMENT", "2014-04-01", "2014-02", "", 15, null, null], ["CDISCPILOT01", "CM", "01-701-1033", 17, "1", "CALCIUM", "CALCIUM", "PROPHYLAXIS OR NON-THERAPEUTIC USE", "ALIMENTARY TRACT AND METABOLISM", 1, "TABLET", "PRN", "ORAL", 5.0, "WEEK 4", 28, "TREATMENT", "2014-04-14", "2011", "", 28, null, null], ["CDISCPILOT01", "CM", "01-701-1033", 18, "2", "COD-LIVER OIL", "UNCODED", "PROPHYLAXIS OR NON-THERAPEUTIC USE", "UNCODED", 1, "TABLET", "PRN", "ORAL", 5.0, "WEEK 4", 28, "TREATMENT", "2014-04-14", "2011", "", 28, null, null], ["CDISCPILOT01", "CM", "01-701-1033", 19, "4", "ZINC", "UNCODED", "PROPHYLAXIS OR NON-THERAPEUTIC USE", "UNCODED", 1, "TABLET", "PRN", "ORAL", 5.0, "WEEK 4", 28, "TREATMENT", "2014-04-14", "2011", "", 28, null, null], ["CDISCPILOT01", "CM", "01-701-1033", 20, "3", "NITROGLYCERIN", "UNCODED", "", "UNCODED", 0, "mg", "PRN", "SUBLINGUAL", 5.0, "WEEK 4", 28, "TREATMENT", "2014-04-14", "2014-02", "", 28, null, null], ["CDISCPILOT01", "CM", "01-701-1033", 21, "1", "CALCIUM", "CALCIUM", "PROPHYLAXIS OR NON-THERAPEUTIC USE", "ALIMENTARY TRACT AND METABOLISM", 1, "TABLET", "PRN", "ORAL", 201.0, "RETRIEVAL", 168, "TREATMENT", "2014-09-15", "2011", "", 182, null, null], ["CDISCPILOT01", "CM", "01-701-1033", 22, "2", "COD-LIVER OIL", "UNCODED", "PROPHYLAXIS OR NON-THERAPEUTIC USE", "UNCODED", 1, "TABLET", "PRN", "ORAL", 201.0, "RETRIEVAL", 168, "TREATMENT", "2014-09-15", "2011", "", 182, null, null], ["CDISCPILOT01", "CM", "01-701-1033", 23, "4", "ZINC", "UNCODED", "PROPHYLAXIS OR NON-THERAPEUTIC USE", "UNCODED", 1, "TABLET", "PRN", "ORAL", 201.0, "RETRIEVAL", 168, "TREATMENT", "2014-09-15", "2011", "", 182, null, null], ["CDISCPILOT01", "CM", "01-701-1033", 24, "3", "NITROGLYCERIN", "UNCODED", "", "UNCODED", 0, "mg", "PRN", "SUBLINGUAL", 201.0, "RETRIEVAL", 168, "TREATMENT", "2014-09-15", "2014-02", "", 182, null, null], ["CDISCPILOT01", "CM", "01-701-1034", 1, "2", "ESTROGEN NOS", "UNCODED", "PROPHYLAXIS OR NON-THERAPEUTIC USE", "UNCODED", 3, "mg", "QD", "INTRAMUSCULAR", 1.0, "SCREENING 1", -7, "SCREENING", "2014-06-24", "1960", "", -7, null, null], ["CDISCPILOT01", "CM", "01-701-1034", 2, "5", "LEVOTHROID", "UNCODED", "", "UNCODED", 0, "mg", "QD", "ORAL", 1.0, "SCREENING 1", -7, "SCREENING", "2014-06-24", "1977", "", -7, null, null], ["CDISCPILOT01", "CM", "01-701-1034", 3, "6", "VITAMIN C", "UNCODED", "PROPHYLAXIS OR NON-THERAPEUTIC USE", "UNCODED", 1, "TABLET", "QD", "ORAL", 1.0, "SCREENING 1", -7, "SCREENING", "2014-06-24", "1986", "", -7, null, null], ["CDISCPILOT01", "CM", "01-701-1034", 4, "7", "VITAMIN E", "UNCODED", "PROPHYLAXIS OR NON-THERAPEUTIC USE", "UNCODED", 1, "TABLET", "QD", "ORAL", 1.0, "SCREENING 1", -7, "SCREENING", "2014-06-24", "1986", "", -7, null, null], ["CDISCPILOT01", "CM", "01-701-1034", 5, "3", "EX-LAX", "UNCODED", "", "UNCODED", 1, "TABLET", "QD", "ORAL", 1.0, "SCREENING 1", -7, "SCREENING", "2014-06-24", "2001", "", -7, null, null], ["CDISCPILOT01", "CM", "01-701-1034", 6, "1", "CALCIUM", "CALCIUM", "PROPHYLAXIS OR NON-THERAPEUTIC USE", "ALIMENTARY TRACT AND METABOLISM", 1, "TABLET", "QD", "ORAL", 1.0, "SCREENING 1", -7, "SCREENING", "2014-06-24", "2012", "", -7, null, null], ["CDISCPILOT01", "CM", "01-701-1034", 7, "4", "IRON", "UNCODED", "PROPHYLAXIS OR NON-THERAPEUTIC USE", "UNCODED", 1, "TABLET", "QD", "ORAL", 1.0, "SCREENING 1", -7, "SCREENING", "2014-06-24", "2012", "", -7, null, null], ["CDISCPILOT01", "CM", "01-701-1034", 8, "2", "ESTROGEN NOS", "UNCODED", "PROPHYLAXIS OR NON-THERAPEUTIC USE", "UNCODED", 3, "mg", "QD", "INTRAMUSCULAR", 2.0, "SCREENING 2", -1, "SCREENING", "2014-06-29", "1960", "", -2, null, null], ["CDISCPILOT01", "CM", "01-701-1034", 9, "5", "LEVOTHROID", "UNCODED", "", "UNCODED", 0, "mg", "QD", "ORAL", 2.0, "SCREENING 2", -1, "SCREENING", "2014-06-29", "1977", "", -2, null, null], ["CDISCPILOT01", "CM", "01-701-1034", 10, "6", "VITAMIN C", "UNCODED", "PROPHYLAXIS OR NON-THERAPEUTIC USE", "UNCODED", 1, "TABLET", "QD", "ORAL", 2.0, "SCREENING 2", -1, "SCREENING", "2014-06-29", "1986", "", -2, null, null], ["CDISCPILOT01", "CM", "01-701-1034", 11, "7", "VITAMIN E", "UNCODED", "PROPHYLAXIS OR NON-THERAPEUTIC USE", "UNCODED", 1, "TABLET", "QD", "ORAL", 2.0, "SCREENING 2", -1, "SCREENING", "2014-06-29", "1986", "", -2, null, null], ["CDISCPILOT01", "CM", "01-701-1034", 12, "3", "EX-LAX", "UNCODED", "", "UNCODED", 1, "TABLET", "QD", "ORAL", 2.0, "SCREENING 2", -1, "SCREENING", "2014-06-29", "2001", "", -2, null, null], ["CDISCPILOT01", "CM", "01-701-1034", 13, "1", "CALCIUM", "CALCIUM", "PROPHYLAXIS OR NON-THERAPEUTIC USE", "ALIMENTARY TRACT AND METABOLISM", 1, "TABLET", "QD", "ORAL", 2.0, "SCREENING 2", -1, "SCREENING", "2014-06-29", "2012", "", -2, null, null], ["CDISCPILOT01", "CM", "01-701-1034", 14, "4", "IRON", "UNCODED", "PROPHYLAXIS OR NON-THERAPEUTIC USE", "UNCODED", 1, "TABLET", "QD", "ORAL", 2.0, "SCREENING 2", -1, "SCREENING", "2014-06-29", "2012", "", -2, null, null], ["CDISCPILOT01", "CM", "01-701-1034", 15, "2", "ESTROGEN NOS", "UNCODED", "PROPHYLAXIS OR NON-THERAPEUTIC USE", "UNCODED", 3, "mg", "QD", "INTRAMUSCULAR", 3.0, "BASELINE", 1, "TREATMENT", "2014-07-01", "1960", "", 1, null, null], ["CDISCPILOT01", "CM", "01-701-1034", 16, "5", "LEVOTHROID", "UNCODED", "", "UNCODED", 0, "mg", "QD", "ORAL", 3.0, "BASELINE", 1, "TREATMENT", "2014-07-01", "1977", "", 1, null, null], ["CDISCPILOT01", "CM", "01-701-1034", 17, "6", "VITAMIN C", "UNCODED", "PROPHYLAXIS OR NON-THERAPEUTIC USE", "UNCODED", 1, "TABLET", "QD", "ORAL", 3.0, "BASELINE", 1, "TREATMENT", "2014-07-01", "1986", "", 1, null, null], ["CDISCPILOT01", "CM", "01-701-1034", 18, "7", "VITAMIN E", "UNCODED", "PROPHYLAXIS OR NON-THERAPEUTIC USE", "UNCODED", 1, "TABLET", "QD", "ORAL", 3.0, "BASELINE", 1, "TREATMENT", "2014-07-01", "1986", "", 1, null, null], ["CDISCPILOT01", "CM", "01-701-1034", 19, "3", "EX-LAX", "UNCODED", "", "UNCODED", 1, "TABLET", "QD", "ORAL", 3.0, "BASELINE", 1, "TREATMENT", "2014-07-01", "2001", "", 1, null, null], ["CDISCPILOT01", "CM", "01-701-1034", 20, "1", "CALCIUM", "CALCIUM", "PROPHYLAXIS OR NON-THERAPEUTIC USE", "ALIMENTARY TRACT AND METABOLISM", 1, "TABLET", "QD", "ORAL", 3.0, "BASELINE", 1, "TREATMENT", "2014-07-01", "2012", "", 1, null, null], ["CDISCPILOT01", "CM", "01-701-1034", 21, "4", "IRON", "UNCODED", "PROPHYLAXIS OR NON-THERAPEUTIC USE", "UNCODED", 1, "TABLET", "QD", "ORAL", 3.0, "BASELINE", 1, "TREATMENT", "2014-07-01", "2012", "", 1, null, null], ["CDISCPILOT01", "CM", "01-701-1034", 22, "2", "ESTROGEN NOS", "UNCODED", "PROPHYLAXIS OR NON-THERAPEUTIC USE", "UNCODED", 3, "mg", "QD", "INTRAMUSCULAR", 4.0, "WEEK 2", 14, "TREATMENT", "2014-07-15", "1960", "", 15, null, null], ["CDISCPILOT01", "CM", "01-701-1034", 23, "5", "LEVOTHROID", "UNCODED", "", "UNCODED", 0, "mg", "QD", "ORAL", 4.0, "WEEK 2", 14, "TREATMENT", "2014-07-15", "1977", "", 15, null, null], ["CDISCPILOT01", "CM", "01-701-1034", 24, "6", "VITAMIN C", "UNCODED", "PROPHYLAXIS OR NON-THERAPEUTIC USE", "UNCODED", 1, "TABLET", "QD", "ORAL", 4.0, "WEEK 2", 14, "TREATMENT", "2014-07-15", "1986", "", 15, null, null], ["CDISCPILOT01", "CM", "01-701-1034", 25, "7", "VITAMIN E", "UNCODED", "PROPHYLAXIS OR NON-THERAPEUTIC USE", "UNCODED", 1, "TABLET", "QD", "ORAL", 4.0, "WEEK 2", 14, "TREATMENT", "2014-07-15", "1986", "", 15, null, null], ["CDISCPILOT01", "CM", "01-701-1034", 26, "3", "EX-LAX", "UNCODED", "", "UNCODED", 1, "TABLET", "QD", "ORAL", 4.0, "WEEK 2", 14, "TREATMENT", "2014-07-15", "2001", "", 15, null, null], ["CDISCPILOT01", "CM", "01-701-1034", 27, "1", "CALCIUM", "CALCIUM", "PROPHYLAXIS OR NON-THERAPEUTIC USE", "ALIMENTARY TRACT AND METABOLISM", 1, "TABLET", "QD", "ORAL", 4.0, "WEEK 2", 14, "TREATMENT", "2014-07-15", "2012", "", 15, null, null], ["CDISCPILOT01", "CM", "01-701-1034", 28, "4", "IRON", "UNCODED", "PROPHYLAXIS OR NON-THERAPEUTIC USE", "UNCODED", 1, "TABLET", "QD", "ORAL", 4.0, "WEEK 2", 14, "TREATMENT", "2014-07-15", "2012", "", 15, null, null], ["CDISCPILOT01", "CM", "01-701-1034", 29, "2", "ESTROGEN NOS", "UNCODED", "PROPHYLAXIS OR NON-THERAPEUTIC USE", "UNCODED", 3, "mg", "QD", "INTRAMUSCULAR", 5.0, "WEEK 4", 28, "TREATMENT", "2014-07-29", "1960", "", 29, null, null], ["CDISCPILOT01", "CM", "01-701-1034", 30, "5", "LEVOTHROID", "UNCODED", "", "UNCODED", 0, "mg", "QD", "ORAL", 5.0, "WEEK 4", 28, "TREATMENT", "2014-07-29", "1977", "", 29, null, null], ["CDISCPILOT01", "CM", "01-701-1034", 31, "6", "VITAMIN C", "UNCODED", "PROPHYLAXIS OR NON-THERAPEUTIC USE", "UNCODED", 1, "TABLET", "QD", "ORAL", 5.0, "WEEK 4", 28, "TREATMENT", "2014-07-29", "1986", "", 29, null, null], ["CDISCPILOT01", "CM", "01-701-1034", 32, "7", "VITAMIN E", "UNCODED", "PROPHYLAXIS OR NON-THERAPEUTIC USE", "UNCODED", 1, "TABLET", "QD", "ORAL", 5.0, "WEEK 4", 28, "TREATMENT", "2014-07-29", "1986", "", 29, null, null], ["CDISCPILOT01", "CM", "01-701-1034", 33, "3", "EX-LAX", "UNCODED", "", "UNCODED", 1, "TABLET", "QD", "ORAL", 5.0, "WEEK 4", 28, "TREATMENT", "2014-07-29", "2001", "", 29, null, null], ["CDISCPILOT01", "CM", "01-701-1034", 34, "1", "CALCIUM", "CALCIUM", "PROPHYLAXIS OR NON-THERAPEUTIC USE", "ALIMENTARY TRACT AND METABOLISM", 1, "TABLET", "QD", "ORAL", 5.0, "WEEK 4", 28, "TREATMENT", "2014-07-29", "2012", "", 29, null, null], ["CDISCPILOT01", "CM", "01-701-1034", 35, "4", "IRON", "UNCODED", "PROPHYLAXIS OR NON-THERAPEUTIC USE", "UNCODED", 1, "TABLET", "QD", "ORAL", 5.0, "WEEK 4", 28, "TREATMENT", "2014-07-29", "2012", "", 29, null, null], ["CDISCPILOT01", "CM", "01-701-1034", 36, "2", "ESTROGEN NOS", "UNCODED", "PROPHYLAXIS OR NON-THERAPEUTIC USE", "UNCODED", 3, "mg", "QD", "INTRAMUSCULAR", 6.0, "AMBUL ECG REMOVAL", 30, "TREATMENT", "2014-07-31", "1960", "", 31, null, null], ["CDISCPILOT01", "CM", "01-701-1034", 37, "5", "LEVOTHROID", "UNCODED", "", "UNCODED", 0, "mg", "QD", "ORAL", 6.0, "AMBUL ECG REMOVAL", 30, "TREATMENT", "2014-07-31", "1977", "", 31, null, null], ["CDISCPILOT01", "CM", "01-701-1034", 38, "6", "VITAMIN C", "UNCODED", "PROPHYLAXIS OR NON-THERAPEUTIC USE", "UNCODED", 1, "TABLET", "QD", "ORAL", 6.0, "AMBUL ECG REMOVAL", 30, "TREATMENT", "2014-07-31", "1986", "", 31, null, null], ["CDISCPILOT01", "CM", "01-701-1034", 39, "7", "VITAMIN E", "UNCODED", "PROPHYLAXIS OR NON-THERAPEUTIC USE", "UNCODED", 1, "TABLET", "QD", "ORAL", 6.0, "AMBUL ECG REMOVAL", 30, "TREATMENT", "2014-07-31", "1986", "", 31, null, null], ["CDISCPILOT01", "CM", "01-701-1034", 40, "3", "EX-LAX", "UNCODED", "", "UNCODED", 1, "TABLET", "QD", "ORAL", 6.0, "AMBUL ECG REMOVAL", 30, "TREATMENT", "2014-07-31", "2001", "", 31, null, null], ["CDISCPILOT01", "CM", "01-701-1034", 41, "1", "CALCIUM", "CALCIUM", "PROPHYLAXIS OR NON-THERAPEUTIC USE", "ALIMENTARY TRACT AND METABOLISM", 1, "TABLET", "QD", "ORAL", 6.0, "AMBUL ECG REMOVAL", 30, "TREATMENT", "2014-07-31", "2012", "", 31, null, null], ["CDISCPILOT01", "CM", "01-701-1034", 42, "4", "IRON", "UNCODED", "PROPHYLAXIS OR NON-THERAPEUTIC USE", "UNCODED", 1, "TABLET", "QD", "ORAL", 6.0, "AMBUL ECG REMOVAL", 30, "TREATMENT", "2014-07-31", "2012", "", 31, null, null], ["CDISCPILOT01", "CM", "01-701-1034", 43, "2", "ESTROGEN NOS", "UNCODED", "PROPHYLAXIS OR NON-THERAPEUTIC USE", "UNCODED", 3, "mg", "QD", "INTRAMUSCULAR", 7.0, "WEEK 6", 42, "TREATMENT", "2014-08-11", "1960", "", 42, null, null], ["CDISCPILOT01", "CM", "01-701-1034", 44, "5", "LEVOTHROID", "UNCODED", "", "UNCODED", 0, "mg", "QD", "ORAL", 7.0, "WEEK 6", 42, "TREATMENT", "2014-08-11", "1977", "", 42, null, null], ["CDISCPILOT01", "CM", "01-701-1034", 45, "6", "VITAMIN C", "UNCODED", "PROPHYLAXIS OR NON-THERAPEUTIC USE", "UNCODED", 1, "TABLET", "QD", "ORAL", 7.0, "WEEK 6", 42, "TREATMENT", "2014-08-11", "1986", "", 42, null, null], ["CDISCPILOT01", "CM", "01-701-1034", 46, "7", "VITAMIN E", "UNCODED", "PROPHYLAXIS OR NON-THERAPEUTIC USE", "UNCODED", 1, "TABLET", "QD", "ORAL", 7.0, "WEEK 6", 42, "TREATMENT", "2014-08-11", "1986", "", 42, null, null], ["CDISCPILOT01", "CM", "01-701-1034", 47, "3", "EX-LAX", "UNCODED", "", "UNCODED", 1, "TABLET", "QD", "ORAL", 7.0, "WEEK 6", 42, "TREATMENT", "2014-08-11", "2001", "", 42, null, null], ["CDISCPILOT01", "CM", "01-701-1034", 48, "1", "CALCIUM", "CALCIUM", "PROPHYLAXIS OR NON-THERAPEUTIC USE", "ALIMENTARY TRACT AND METABOLISM", 1, "TABLET", "QD", "ORAL", 7.0, "WEEK 6", 42, "TREATMENT", "2014-08-11", "2012", "", 42, null, null], ["CDISCPILOT01", "CM", "01-701-1034", 49, "4", "IRON", "UNCODED", "PROPHYLAXIS OR NON-THERAPEUTIC USE", "UNCODED", 1, "TABLET", "QD", "ORAL", 7.0, "WEEK 6", 42, "TREATMENT", "2014-08-11", "2012", "", 42, null, null], ["CDISCPILOT01", "CM", "01-701-1034", 50, "2", "ESTROGEN NOS", "UNCODED", "PROPHYLAXIS OR NON-THERAPEUTIC USE", "UNCODED", 3, "mg", "QD", "INTRAMUSCULAR", 8.0, "WEEK 8", 56, "TREATMENT", "2014-08-26", "1960", "", 57, null, null], ["CDISCPILOT01", "CM", "01-701-1034", 51, "5", "LEVOTHROID", "UNCODED", "", "UNCODED", 0, "mg", "QD", "ORAL", 8.0, "WEEK 8", 56, "TREATMENT", "2014-08-26", "1977", "", 57, null, null], ["CDISCPILOT01", "CM", "01-701-1034", 52, "6", "VITAMIN C", "UNCODED", "PROPHYLAXIS OR NON-THERAPEUTIC USE", "UNCODED", 1, "TABLET", "QD", "ORAL", 8.0, "WEEK 8", 56, "TREATMENT", "2014-08-26", "1986", "", 57, null, null], ["CDISCPILOT01", "CM", "01-701-1034", 53, "7", "VITAMIN E", "UNCODED", "PROPHYLAXIS OR NON-THERAPEUTIC USE", "UNCODED", 1, "TABLET", "QD", "ORAL", 8.0, "WEEK 8", 56, "TREATMENT", "2014-08-26", "1986", "", 57, null, null], ["CDISCPILOT01", "CM", "01-701-1034", 54, "3", "EX-LAX", "UNCODED", "", "UNCODED", 1, "TABLET", "QD", "ORAL", 8.0, "WEEK 8", 56, "TREATMENT", "2014-08-26", "2001", "", 57, null, null], ["CDISCPILOT01", "CM", "01-701-1034", 55, "1", "CALCIUM", "CALCIUM", "PROPHYLAXIS OR NON-THERAPEUTIC USE", "ALIMENTARY TRACT AND METABOLISM", 1, "TABLET", "QD", "ORAL", 8.0, "WEEK 8", 56, "TREATMENT", "2014-08-26", "2012", "", 57, null, null], ["CDISCPILOT01", "CM", "01-701-1034", 56, "4", "IRON", "UNCODED", "PROPHYLAXIS OR NON-THERAPEUTIC USE", "UNCODED", 1, "TABLET", "QD", "ORAL", 8.0, "WEEK 8", 56, "TREATMENT", "2014-08-26", "2012", "", 57, null, null], ["CDISCPILOT01", "CM", "01-701-1034", 57, "2", "ESTROGEN NOS", "UNCODED", "PROPHYLAXIS OR NON-THERAPEUTIC USE", "UNCODED", 3, "mg", "QD", "INTRAMUSCULAR", 9.0, "WEEK 12", 84, "TREATMENT", "2014-09-25", "1960", "", 87, null, null], ["CDISCPILOT01", "CM", "01-701-1034", 58, "5", "LEVOTHROID", "UNCODED", "", "UNCODED", 0, "mg", "QD", "ORAL", 9.0, "WEEK 12", 84, "TREATMENT", "2014-09-25", "1977", "", 87, null, null], ["CDISCPILOT01", "CM", "01-701-1034", 59, "6", "VITAMIN C", "UNCODED", "PROPHYLAXIS OR NON-THERAPEUTIC USE", "UNCODED", 1, "TABLET", "QD", "ORAL", 9.0, "WEEK 12", 84, "TREATMENT", "2014-09-25", "1986", "", 87, null, null], ["CDISCPILOT01", "CM", "01-701-1034", 60, "7", "VITAMIN E", "UNCODED", "PROPHYLAXIS OR NON-THERAPEUTIC USE", "UNCODED", 1, "TABLET", "QD", "ORAL", 9.0, "WEEK 12", 84, "TREATMENT", "2014-09-25", "1986", "", 87, null, null], ["CDISCPILOT01", "CM", "01-701-1034", 61, "3", "EX-LAX", "UNCODED", "", "UNCODED", 1, "TABLET", "QD", "ORAL", 9.0, "WEEK 12", 84, "TREATMENT", "2014-09-25", "2001", "", 87, null, null], ["CDISCPILOT01", "CM", "01-701-1034", 62, "1", "CALCIUM", "CALCIUM", "PROPHYLAXIS OR NON-THERAPEUTIC USE", "ALIMENTARY TRACT AND METABOLISM", 1, "TABLET", "QD", "ORAL", 9.0, "WEEK 12", 84, "TREATMENT", "2014-09-25", "2012", "", 87, null, null], ["CDISCPILOT01", "CM", "01-701-1034", 63, "4", "IRON", "UNCODED", "PROPHYLAXIS OR NON-THERAPEUTIC USE", "UNCODED", 1, "TABLET", "QD", "ORAL", 9.0, "WEEK 12", 84, "TREATMENT", "2014-09-25", "2012", "", 87, null, null], ["CDISCPILOT01", "CM", "01-701-1034", 64, "8", "HYDROCORTISONE", "HYDROCORTISONE", "", "SYSTEMIC HORMONAL PREPARATIONS, EXCL.", 1, "TABLET", "BID", "TOPICAL", 9.0, "WEEK 12", 84, "TREATMENT", "2014-09-25", "2014-08-27", "", 87, 58, null], ["CDISCPILOT01", "CM", "01-701-1034", 65, "2", "ESTROGEN NOS", "UNCODED", "PROPHYLAXIS OR NON-THERAPEUTIC USE", "UNCODED", 3, "mg", "QD", "INTRAMUSCULAR", 10.0, "WEEK 16", 112, "TREATMENT", "2014-10-21", "1960", "", 113, null, null], ["CDISCPILOT01", "CM", "01-701-1034", 66, "5", "LEVOTHROID", "UNCODED", "", "UNCODED", 0, "mg", "QD", "ORAL", 10.0, "WEEK 16", 112, "TREATMENT", "2014-10-21", "1977", "", 113, null, null], ["CDISCPILOT01", "CM", "01-701-1034", 67, "6", "VITAMIN C", "UNCODED", "PROPHYLAXIS OR NON-THERAPEUTIC USE", "UNCODED", 1, "TABLET", "QD", "ORAL", 10.0, "WEEK 16", 112, "TREATMENT", "2014-10-21", "1986", "", 113, null, null], ["CDISCPILOT01", "CM", "01-701-1034", 68, "7", "VITAMIN E", "UNCODED", "PROPHYLAXIS OR NON-THERAPEUTIC USE", "UNCODED", 1, "TABLET", "QD", "ORAL", 10.0, "WEEK 16", 112, "TREATMENT", "2014-10-21", "1986", "", 113, null, null], ["CDISCPILOT01", "CM", "01-701-1034", 69, "3", "EX-LAX", "UNCODED", "", "UNCODED", 1, "TABLET", "QD", "ORAL", 10.0, "WEEK 16", 112, "TREATMENT", "2014-10-21", "2001", "", 113, null, null], ["CDISCPILOT01", "CM", "01-701-1034", 70, "1", "CALCIUM", "CALCIUM", "PROPHYLAXIS OR NON-THERAPEUTIC USE", "ALIMENTARY TRACT AND METABOLISM", 1, "TABLET", "QD", "ORAL", 10.0, "WEEK 16", 112, "TREATMENT", "2014-10-21", "2012", "", 113, null, null], ["CDISCPILOT01", "CM", "01-701-1034", 71, "4", "IRON", "UNCODED", "PROPHYLAXIS OR NON-THERAPEUTIC USE", "UNCODED", 1, "TABLET", "QD", "ORAL", 10.0, "WEEK 16", 112, "TREATMENT", "2014-10-21", "2012", "", 113, null, null], ["CDISCPILOT01", "CM", "01-701-1034", 72, "8", "HYDROCORTISONE", "HYDROCORTISONE", "", "SYSTEMIC HORMONAL PREPARATIONS, EXCL.", 1, "TABLET", "BID", "TOPICAL", 10.0, "WEEK 16", 112, "TREATMENT", "2014-10-21", "2014-08-27", "", 113, 58, null], ["CDISCPILOT01", "CM", "01-701-1034", 73, "2", "ESTROGEN NOS", "UNCODED", "PROPHYLAXIS OR NON-THERAPEUTIC USE", "UNCODED", 3, "mg", "QD", "INTRAMUSCULAR", 11.0, "WEEK 20", 140, "TREATMENT", "2014-11-18", "1960", "", 141, null, null], ["CDISCPILOT01", "CM", "01-701-1034", 74, "5", "LEVOTHROID", "UNCODED", "", "UNCODED", 0, "mg", "QD", "ORAL", 11.0, "WEEK 20", 140, "TREATMENT", "2014-11-18", "1977", "", 141, null, null], ["CDISCPILOT01", "CM", "01-701-1034", 75, "6", "VITAMIN C", "UNCODED", "PROPHYLAXIS OR NON-THERAPEUTIC USE", "UNCODED", 1, "TABLET", "QD", "ORAL", 11.0, "WEEK 20", 140, "TREATMENT", "2014-11-18", "1986", "", 141, null, null], ["CDISCPILOT01", "CM", "01-701-1034", 76, "7", "VITAMIN E", "UNCODED", "PROPHYLAXIS OR NON-THERAPEUTIC USE", "UNCODED", 1, "TABLET", "QD", "ORAL", 11.0, "WEEK 20", 140, "TREATMENT", "2014-11-18", "1986", "", 141, null, null], ["CDISCPILOT01", "CM", "01-701-1034", 77, "3", "EX-LAX", "UNCODED", "", "UNCODED", 1, "TABLET", "QD", "ORAL", 11.0, "WEEK 20", 140, "TREATMENT", "2014-11-18", "2001", "", 141, null, null], ["CDISCPILOT01", "CM", "01-701-1034", 78, "1", "CALCIUM", "CALCIUM", "PROPHYLAXIS OR NON-THERAPEUTIC USE", "ALIMENTARY TRACT AND METABOLISM", 1, "TABLET", "QD", "ORAL", 11.0, "WEEK 20", 140, "TREATMENT", "2014-11-18", "2012", "", 141, null, null], ["CDISCPILOT01", "CM", "01-701-1034", 79, "4", "IRON", "UNCODED", "PROPHYLAXIS OR NON-THERAPEUTIC USE", "UNCODED", 1, "TABLET", "QD", "ORAL", 11.0, "WEEK 20", 140, "TREATMENT", "2014-11-18", "2012", "", 141, null, null], ["CDISCPILOT01", "CM", "01-701-1034", 80, "8", "HYDROCORTISONE", "HYDROCORTISONE", "", "SYSTEMIC HORMONAL PREPARATIONS, EXCL.", 1, "TABLET", "BID", "TOPICAL", 11.0, "WEEK 20", 140, "TREATMENT", "2014-11-18", "2014-08-27", "", 141, 58, null], ["CDISCPILOT01", "CM", "01-701-1034", 81, "2", "ESTROGEN NOS", "UNCODED", "PROPHYLAXIS OR NON-THERAPEUTIC USE", "UNCODED", 3, "mg", "QD", "INTRAMUSCULAR", 12.0, "WEEK 24", 168, "TREATMENT", "2014-12-17", "1960", "", 170, null, null], ["CDISCPILOT01", "CM", "01-701-1034", 82, "5", "LEVOTHROID", "UNCODED", "", "UNCODED", 0, "mg", "QD", "ORAL", 12.0, "WEEK 24", 168, "TREATMENT", "2014-12-17", "1977", "", 170, null, null], ["CDISCPILOT01", "CM", "01-701-1034", 83, "6", "VITAMIN C", "UNCODED", "PROPHYLAXIS OR NON-THERAPEUTIC USE", "UNCODED", 1, "TABLET", "QD", "ORAL", 12.0, "WEEK 24", 168, "TREATMENT", "2014-12-17", "1986", "", 170, null, null], ["CDISCPILOT01", "CM", "01-701-1034", 84, "7", "VITAMIN E", "UNCODED", "PROPHYLAXIS OR NON-THERAPEUTIC USE", "UNCODED", 1, "TABLET", "QD", "ORAL", 12.0, "WEEK 24", 168, "TREATMENT", "2014-12-17", "1986", "", 170, null, null], ["CDISCPILOT01", "CM", "01-701-1034", 85, "3", "EX-LAX", "UNCODED", "", "UNCODED", 1, "TABLET", "QD", "ORAL", 12.0, "WEEK 24", 168, "TREATMENT", "2014-12-17", "2001", "", 170, null, null], ["CDISCPILOT01", "CM", "01-701-1034", 86, "1", "CALCIUM", "CALCIUM", "PROPHYLAXIS OR NON-THERAPEUTIC USE", "ALIMENTARY TRACT AND METABOLISM", 1, "TABLET", "QD", "ORAL", 12.0, "WEEK 24", 168, "TREATMENT", "2014-12-17", "2012", "", 170, null, null], ["CDISCPILOT01", "CM", "01-701-1034", 87, "4", "IRON", "UNCODED", "PROPHYLAXIS OR NON-THERAPEUTIC USE", "UNCODED", 1, "TABLET", "QD", "ORAL", 12.0, "WEEK 24", 168, "TREATMENT", "2014-12-17", "2012", "", 170, null, null], ["CDISCPILOT01", "CM", "01-701-1034", 88, "8", "HYDROCORTISONE", "HYDROCORTISONE", "", "SYSTEMIC HORMONAL PREPARATIONS, EXCL.", 1, "TABLET", "BID", "TOPICAL", 12.0, "WEEK 24", 168, "TREATMENT", "2014-12-17", "2014-08-27", "", 170, 58, null], ["CDISCPILOT01", "CM", "01-701-1034", 89, "2", "ESTROGEN NOS", "UNCODED", "PROPHYLAXIS OR NON-THERAPEUTIC USE", "UNCODED", 3, "mg", "QD", "INTRAMUSCULAR", 13.0, "WEEK 26", 182, "TREATMENT", "2014-12-30", "1960", "", 183, null, null], ["CDISCPILOT01", "CM", "01-701-1034", 90, "5", "LEVOTHROID", "UNCODED", "", "UNCODED", 0, "mg", "QD", "ORAL", 13.0, "WEEK 26", 182, "TREATMENT", "2014-12-30", "1977", "", 183, null, null], ["CDISCPILOT01", "CM", "01-701-1034", 91, "6", "VITAMIN C", "UNCODED", "PROPHYLAXIS OR NON-THERAPEUTIC USE", "UNCODED", 1, "TABLET", "QD", "ORAL", 13.0, "WEEK 26", 182, "TREATMENT", "2014-12-30", "1986", "", 183, null, null], ["CDISCPILOT01", "CM", "01-701-1034", 92, "7", "VITAMIN E", "UNCODED", "PROPHYLAXIS OR NON-THERAPEUTIC USE", "UNCODED", 1, "TABLET", "QD", "ORAL", 13.0, "WEEK 26", 182, "TREATMENT", "2014-12-30", "1986", "", 183, null, null], ["CDISCPILOT01", "CM", "01-701-1034", 93, "3", "EX-LAX", "UNCODED", "", "UNCODED", 1, "TABLET", "QD", "ORAL", 13.0, "WEEK 26", 182, "TREATMENT", "2014-12-30", "2001", "", 183, null, null], ["CDISCPILOT01", "CM", "01-701-1034", 94, "1", "CALCIUM", "CALCIUM", "PROPHYLAXIS OR NON-THERAPEUTIC USE", "ALIMENTARY TRACT AND METABOLISM", 1, "TABLET", "QD", "ORAL", 13.0, "WEEK 26", 182, "TREATMENT", "2014-12-30", "2012", "", 183, null, null], ["CDISCPILOT01", "CM", "01-701-1034", 95, "4", "IRON", "UNCODED", "PROPHYLAXIS OR NON-THERAPEUTIC USE", "UNCODED", 1, "TABLET", "QD", "ORAL", 13.0, "WEEK 26", 182, "TREATMENT", "2014-12-30", "2012", "", 183, null, null], ["CDISCPILOT01", "CM", "01-701-1034", 96, "8", "HYDROCORTISONE", "HYDROCORTISONE", "", "SYSTEMIC HORMONAL PREPARATIONS, EXCL.", 1, "TABLET", "BID", "TOPICAL", 13.0, "WEEK 26", 182, "TREATMENT", "2014-12-30", "2014-08-27", "", 183, 58, null], ["CDISCPILOT01", "CM", "01-701-1047", 1, "2", "CENTRUM", "UNCODED", "PROPHYLAXIS OR NON-THERAPEUTIC USE", "UNCODED", 1, "TABLET", "QD", "ORAL", 1.0, "SCREENING 1", -7, "SCREENING", "2013-01-22", "2002", "", -21, null, null], ["CDISCPILOT01", "CM", "01-701-1047", 2, "1", "ALEVE", "NAPROXEN SODIUM", "", "RESPIRATORY SYSTEM", 250, "mg", "PRN", "ORAL", 1.0, "SCREENING 1", -7, "SCREENING", "2013-01-22", "2009", "", -21, null, null], ["CDISCPILOT01", "CM", "01-701-1047", 3, "4", "PSORCON", "UNCODED", "", "UNCODED", 0, "mg", "QID", "TOPICAL", 1.0, "SCREENING 1", -7, "SCREENING", "2013-01-22", "2009", "", -21, null, null], ["CDISCPILOT01", "CM", "01-701-1047", 4, "5", "SYNTHROID", "UNCODED", "", "UNCODED", 0, "mg", "QD", "ORAL", 1.0, "SCREENING 1", -7, "SCREENING", "2013-01-22", "2009", "", -21, null, null], ["CDISCPILOT01", "CM", "01-701-1047", 5, "3", "PAPAYA", "UNCODED", "", "UNCODED", 2, "TABLET", "PRN", "ORAL", 1.0, "SCREENING 1", -7, "SCREENING", "2013-01-22", "2012-10", "", -21, null, null], ["CDISCPILOT01", "CM", "01-701-1047", 6, "2", "CENTRUM", "UNCODED", "PROPHYLAXIS OR NON-THERAPEUTIC USE", "UNCODED", 1, "TABLET", "QD", "ORAL", 2.0, "SCREENING 2", -1, "SCREENING", "2013-02-10", "2002", "", -2, null, null], ["CDISCPILOT01", "CM", "01-701-1047", 7, "1", "ALEVE", "NAPROXEN SODIUM", "", "RESPIRATORY SYSTEM", 250, "mg", "PRN", "ORAL", 2.0, "SCREENING 2", -1, "SCREENING", "2013-02-10", "2009", "", -2, null, null], ["CDISCPILOT01", "CM", "01-701-1047", 8, "4", "PSORCON", "UNCODED", "", "UNCODED", 0, "mg", "QID", "TOPICAL", 2.0, "SCREENING 2", -1, "SCREENING", "2013-02-10", "2009", "", -2, null, null], ["CDISCPILOT01", "CM", "01-701-1047", 9, "5", "SYNTHROID", "UNCODED", "", "UNCODED", 0, "mg", "QD", "ORAL", 2.0, "SCREENING 2", -1, "SCREENING", "2013-02-10", "2009", "", -2, null, null], ["CDISCPILOT01", "CM", "01-701-1047", 10, "3", "PAPAYA", "UNCODED", "", "UNCODED", 2, "TABLET", "PRN", "ORAL", 2.0, "SCREENING 2", -1, "SCREENING", "2013-02-10", "2012-10", "", -2, null, null], ["CDISCPILOT01", "CM", "01-701-1047", 11, "6", "FELDENE", "UNCODED", "", "UNCODED", 10, "mg", "QD", "ORAL", 2.0, "SCREENING 2", -1, "SCREENING", "2013-02-10", "2013-02-01", "2013-02-01", -2, -11, -11], ["CDISCPILOT01", "CM", "01-701-1047", 12, "2", "CENTRUM", "UNCODED", "PROPHYLAXIS OR NON-THERAPEUTIC USE", "UNCODED", 1, "TABLET", "QD", "ORAL", 3.0, "BASELINE", 1, "TREATMENT", "2013-02-12", "2002", "", 1, null, null], ["CDISCPILOT01", "CM", "01-701-1047", 13, "1", "ALEVE", "NAPROXEN SODIUM", "", "RESPIRATORY SYSTEM", 250, "mg", "PRN", "ORAL", 3.0, "BASELINE", 1, "TREATMENT", "2013-02-12", "2009", "", 1, null, null], ["CDISCPILOT01", "CM", "01-701-1047", 14, "4", "PSORCON", "UNCODED", "", "UNCODED", 0, "mg", "QID", "TOPICAL", 3.0, "BASELINE", 1, "TREATMENT", "2013-02-12", "2009", "", 1, null, null], ["CDISCPILOT01", "CM", "01-701-1047", 15, "5", "SYNTHROID", "UNCODED", "", "UNCODED", 0, "mg", "QD", "ORAL", 3.0, "BASELINE", 1, "TREATMENT", "2013-02-12", "2009", "", 1, null, null], ["CDISCPILOT01", "CM", "01-701-1047", 16, "3", "PAPAYA", "UNCODED", "", "UNCODED", 2, "TABLET", "PRN", "ORAL", 3.0, "BASELINE", 1, "TREATMENT", "2013-02-12", "2012-10", "", 1, null, null], ["CDISCPILOT01", "CM", "01-701-1047", 17, "2", "CENTRUM", "UNCODED", "PROPHYLAXIS OR NON-THERAPEUTIC USE", "UNCODED", 1, "TABLET", "QD", "ORAL", 4.0, "WEEK 2", 14, "TREATMENT", "2013-02-25", "2002", "", 14, null, null], ["CDISCPILOT01", "CM", "01-701-1047", 18, "1", "ALEVE", "NAPROXEN SODIUM", "", "RESPIRATORY SYSTEM", 250, "mg", "PRN", "ORAL", 4.0, "WEEK 2", 14, "TREATMENT", "2013-02-25", "2009", "", 14, null, null], ["CDISCPILOT01", "CM", "01-701-1047", 19, "4", "PSORCON", "UNCODED", "", "UNCODED", 0, "mg", "QID", "TOPICAL", 4.0, "WEEK 2", 14, "TREATMENT", "2013-02-25", "2009", "", 14, null, null], ["CDISCPILOT01", "CM", "01-701-1047", 20, "5", "SYNTHROID", "UNCODED", "", "UNCODED", 0, "mg", "QD", "ORAL", 4.0, "WEEK 2", 14, "TREATMENT", "2013-02-25", "2009", "", 14, null, null], ["CDISCPILOT01", "CM", "01-701-1047", 21, "3", "PAPAYA", "UNCODED", "", "UNCODED", 2, "TABLET", "PRN", "ORAL", 4.0, "WEEK 2", 14, "TREATMENT", "2013-02-25", "2012-10", "", 14, null, null], ["CDISCPILOT01", "CM", "01-701-1047", 22, "2", "CENTRUM", "UNCODED", "PROPHYLAXIS OR NON-THERAPEUTIC USE", "UNCODED", 1, "TABLET", "QD", "ORAL", 5.0, "WEEK 4", 28, "TREATMENT", "2013-03-10", "2002", "", 27, null, null], ["CDISCPILOT01", "CM", "01-701-1047", 23, "1", "ALEVE", "NAPROXEN SODIUM", "", "RESPIRATORY SYSTEM", 250, "mg", "PRN", "ORAL", 5.0, "WEEK 4", 28, "TREATMENT", "2013-03-10", "2009", "", 27, null, null], ["CDISCPILOT01", "CM", "01-701-1047", 24, "4", "PSORCON", "UNCODED", "", "UNCODED", 0, "mg", "QID", "TOPICAL", 5.0, "WEEK 4", 28, "TREATMENT", "2013-03-10", "2009", "", 27, null, null], ["CDISCPILOT01", "CM", "01-701-1047", 25, "5", "SYNTHROID", "UNCODED", "", "UNCODED", 0, "mg", "QD", "ORAL", 5.0, "WEEK 4", 28, "TREATMENT", "2013-03-10", "2009", "", 27, null, null], ["CDISCPILOT01", "CM", "01-701-1047", 26, "3", "PAPAYA", "UNCODED", "", "UNCODED", 2, "TABLET", "PRN", "ORAL", 5.0, "WEEK 4", 28, "TREATMENT", "2013-03-10", "2012-10", "", 27, null, null], ["CDISCPILOT01", "CM", "01-701-1047", 27, "7", "ROBITUSSIN-DM", "UNCODED", "", "UNCODED", 2, "TABLET", "QID", "ORAL", 5.0, "WEEK 4", 28, "TREATMENT", "2013-03-10", "2013-03-07", "", 27, 24, null], ["CDISCPILOT01", "CM", "01-701-1047", 28, "8", "SUDAFED", "UNCODED", "", "UNCODED", 2, "TABLET", "QID", "ORAL", 5.0, "WEEK 4", 28, "TREATMENT", "2013-03-10", "2013-03-07", "", 27, 24, null], ["CDISCPILOT01", "CM", "01-701-1047", 29, "2", "CENTRUM", "UNCODED", "PROPHYLAXIS OR NON-THERAPEUTIC USE", "UNCODED", 1, "TABLET", "QD", "ORAL", 6.0, "AMBUL ECG REMOVAL", 30, "TREATMENT", "2013-03-29", "2002", "", 46, null, null], ["CDISCPILOT01", "CM", "01-701-1047", 30, "1", "ALEVE", "NAPROXEN SODIUM", "", "RESPIRATORY SYSTEM", 250, "mg", "PRN", "ORAL", 6.0, "AMBUL ECG REMOVAL", 30, "TREATMENT", "2013-03-29", "2009", "", 46, null, null], ["CDISCPILOT01", "CM", "01-701-1047", 31, "4", "PSORCON", "UNCODED", "", "UNCODED", 0, "mg", "QID", "TOPICAL", 6.0, "AMBUL ECG REMOVAL", 30, "TREATMENT", "2013-03-29", "2009", "", 46, null, null], ["CDISCPILOT01", "CM", "01-701-1047", 32, "5", "SYNTHROID", "UNCODED", "", "UNCODED", 0, "mg", "QD", "ORAL", 6.0, "AMBUL ECG REMOVAL", 30, "TREATMENT", "2013-03-29", "2009", "", 46, null, null], ["CDISCPILOT01", "CM", "01-701-1047", 33, "3", "PAPAYA", "UNCODED", "", "UNCODED", 2, "TABLET", "PRN", "ORAL", 6.0, "AMBUL ECG REMOVAL", 30, "TREATMENT", "2013-03-29", "2012-10", "", 46, null, null], ["CDISCPILOT01", "CM", "01-701-1047", 34, "7", "ROBITUSSIN-DM", "UNCODED", "", "UNCODED", 2, "TABLET", "QID", "ORAL", 6.0, "AMBUL ECG REMOVAL", 30, "TREATMENT", "2013-03-29", "2013-03-07", "", 46, 24, null], ["CDISCPILOT01", "CM", "01-701-1047", 35, "8", "SUDAFED", "UNCODED", "", "UNCODED", 2, "TABLET", "QID", "ORAL", 6.0, "AMBUL ECG REMOVAL", 30, "TREATMENT", "2013-03-29", "2013-03-07", "", 46, 24, null], ["CDISCPILOT01", "CM", "01-701-1047", 36, "2", "CENTRUM", "UNCODED", "PROPHYLAXIS OR NON-THERAPEUTIC USE", "UNCODED", 1, "TABLET", "QD", "ORAL", 201.0, "RETRIEVAL", 168, "TREATMENT", "2013-07-28", "2002", "", 167, null, null], ["CDISCPILOT01", "CM", "01-701-1047", 37, "1", "ALEVE", "NAPROXEN SODIUM", "", "RESPIRATORY SYSTEM", 250, "mg", "PRN", "ORAL", 201.0, "RETRIEVAL", 168, "TREATMENT", "2013-07-28", "2009", "", 167, null, null], ["CDISCPILOT01", "CM", "01-701-1047", 38, "4", "PSORCON", "UNCODED", "", "UNCODED", 0, "mg", "QID", "TOPICAL", 201.0, "RETRIEVAL", 168, "TREATMENT", "2013-07-28", "2009", "", 167, null, null], ["CDISCPILOT01", "CM", "01-701-1047", 39, "5", "SYNTHROID", "UNCODED", "", "UNCODED", 0, "mg", "QD", "ORAL", 201.0, "RETRIEVAL", 168, "TREATMENT", "2013-07-28", "2009", "", 167, null, null], ["CDISCPILOT01", "CM", "01-701-1047", 40, "3", "PAPAYA", "UNCODED", "", "UNCODED", 2, "TABLET", "PRN", "ORAL", 201.0, "RETRIEVAL", 168, "TREATMENT", "2013-07-28", "2012-10", "", 167, null, null], ["CDISCPILOT01", "CM", "01-701-1047", 41, "7", "ROBITUSSIN-DM", "UNCODED", "", "UNCODED", 2, "TABLET", "QID", "ORAL", 201.0, "RETRIEVAL", 168, "TREATMENT", "2013-07-28", "2013-03-07", "", 167, 24, null], ["CDISCPILOT01", "CM", "01-701-1047", 42, "8", "SUDAFED", "UNCODED", "", "UNCODED", 2, "TABLET", "QID", "ORAL", 201.0, "RETRIEVAL", 168, "TREATMENT", "2013-07-28", "2013-03-07", "", 167, 24, null], ["CDISCPILOT01", "CM", "01-701-1097", 1, "1", "CENTRUM", "UNCODED", "PROPHYLAXIS OR NON-THERAPEUTIC USE", "UNCODED", 1, "TABLET", "QD", "ORAL", 1.0, "SCREENING 1", -7, "SCREENING", "2013-12-23", "2013-10", "", -9, null, null], ["CDISCPILOT01", "CM", "01-701-1097", 2, "1", "CENTRUM", "UNCODED", "PROPHYLAXIS OR NON-THERAPEUTIC USE", "UNCODED", 1, "TABLET", "QD", "ORAL", 2.0, "SCREENING 2", -1, "SCREENING", "2013-12-30", "2013-10", "", -2, null, null], ["CDISCPILOT01", "CM", "01-701-1097", 3, "1", "CENTRUM", "UNCODED", "PROPHYLAXIS OR NON-THERAPEUTIC USE", "UNCODED", 1, "TABLET", "QD", "ORAL", 3.0, "BASELINE", 1, "TREATMENT", "2014-01-01", "2013-10", "", 1, null, null], ["CDISCPILOT01", "CM", "01-701-1097", 4, "1", "CENTRUM", "UNCODED", "PROPHYLAXIS OR NON-THERAPEUTIC USE", "UNCODED", 1, "TABLET", "QD", "ORAL", 4.0, "WEEK 2", 14, "TREATMENT", "2014-01-15", "2013-10", "", 15, null, null], ["CDISCPILOT01", "CM", "01-701-1097", 5, "1", "CENTRUM", "UNCODED", "PROPHYLAXIS OR NON-THERAPEUTIC USE", "UNCODED", 1, "TABLET", "QD", "ORAL", 5.0, "WEEK 4", 28, "TREATMENT", "2014-01-29", "2013-10", "", 29, null, null], ["CDISCPILOT01", "CM", "01-701-1097", 6, "1", "CENTRUM", "UNCODED", "PROPHYLAXIS OR NON-THERAPEUTIC USE", "UNCODED", 1, "TABLET", "QD", "ORAL", 6.0, "AMBUL ECG REMOVAL", 30, "TREATMENT", "2014-02-04", "2013-10", "", 35, null, null], ["CDISCPILOT01", "CM", "01-701-1097", 7, "1", "CENTRUM", "UNCODED", "PROPHYLAXIS OR NON-THERAPEUTIC USE", "UNCODED", 1, "TABLET", "QD", "ORAL", 7.0, "WEEK 6", 42, "TREATMENT", "2014-02-11", "2013-10", "", 42, null, null], ["CDISCPILOT01", "CM", "01-701-1097", 8, "1", "CENTRUM", "UNCODED", "PROPHYLAXIS OR NON-THERAPEUTIC USE", "UNCODED", 1, "TABLET", "QD", "ORAL", 8.0, "WEEK 8", 56, "TREATMENT", "2014-02-26", "2013-10", "", 57, null, null], ["CDISCPILOT01", "CM", "01-701-1097", 9, "2", "HYDROCORTISONE", "HYDROCORTISONE", "", "SYSTEMIC HORMONAL PREPARATIONS, EXCL.", 1, "TABLET", "QD", "TOPICAL", 8.0, "WEEK 8", 56, "TREATMENT", "2014-02-26", "2014-02-20", "2014-02-25", 57, 51, 56], ["CDISCPILOT01", "CM", "01-701-1097", 10, "1", "CENTRUM", "UNCODED", "PROPHYLAXIS OR NON-THERAPEUTIC USE", "UNCODED", 1, "TABLET", "QD", "ORAL", 9.0, "WEEK 12", 84, "TREATMENT", "2014-03-26", "2013-10", "", 85, null, null], ["CDISCPILOT01", "CM", "01-701-1097", 11, "3", "HYDROCORTISONE", "HYDROCORTISONE", "", "SYSTEMIC HORMONAL PREPARATIONS, EXCL.", 1, "TABLET", "QD", "TOPICAL", 9.0, "WEEK 12", 84, "TREATMENT", "2014-03-26", "2014-03-21", "2014-03-23", 85, 80, 82], ["CDISCPILOT01", "CM", "01-701-1097", 12, "1", "CENTRUM", "UNCODED", "PROPHYLAXIS OR NON-THERAPEUTIC USE", "UNCODED", 1, "TABLET", "QD", "ORAL", 10.0, "WEEK 16", 112, "TREATMENT", "2014-04-23", "2013-10", "", 113, null, null], ["CDISCPILOT01", "CM", "01-701-1097", 13, "4", "HYDROCORTISONE", "HYDROCORTISONE", "", "SYSTEMIC HORMONAL PREPARATIONS, EXCL.", 1, "TABLET", "QD", "TOPICAL", 10.0, "WEEK 16", 112, "TREATMENT", "2014-04-23", "2014-04-18", "2014-04-22", 113, 108, 112], ["CDISCPILOT01", "CM", "01-701-1097", 14, "1", "CENTRUM", "UNCODED", "PROPHYLAXIS OR NON-THERAPEUTIC USE", "UNCODED", 1, "TABLET", "QD", "ORAL", 11.0, "WEEK 20", 140, "TREATMENT", "2014-05-21", "2013-10", "", 141, null, null], ["CDISCPILOT01", "CM", "01-701-1097", 15, "1", "CENTRUM", "UNCODED", "PROPHYLAXIS OR NON-THERAPEUTIC USE", "UNCODED", 1, "TABLET", "QD", "ORAL", 12.0, "WEEK 24", 168, "TREATMENT", "2014-06-18", "2013-10", "", 169, null, null], ["CDISCPILOT01", "CM", "01-701-1097", 16, "5", "HYDROCORTISONE", "HYDROCORTISONE", "", "SYSTEMIC HORMONAL PREPARATIONS, EXCL.", 1, "TABLET", "PRN", "TOPICAL", 12.0, "WEEK 24", 168, "TREATMENT", "2014-06-18", "2014-05-23", "", 169, 143, null], ["CDISCPILOT01", "CM", "01-701-1097", 17, "1", "CENTRUM", "UNCODED", "PROPHYLAXIS OR NON-THERAPEUTIC USE", "UNCODED", 1, "TABLET", "QD", "ORAL", 13.0, "WEEK 26", 182, "TREATMENT", "2014-07-09", "2013-10", "", 190, null, null], ["CDISCPILOT01", "CM", "01-701-1097", 18, "5", "HYDROCORTISONE", "HYDROCORTISONE", "", "SYSTEMIC HORMONAL PREPARATIONS, EXCL.", 1, "TABLET", "PRN", "TOPICAL", 13.0, "WEEK 26", 182, "TREATMENT", "2014-07-09", "2014-05-23", "", 190, 143, null], ["CDISCPILOT01", "CM", "01-701-1111", 1, "6", "SYNTHROID", "UNCODED", "", "UNCODED", 0, "mg", "QD", "ORAL", 1.0, "SCREENING 1", -7, "SCREENING", "2012-08-25", "1983", "", -13, null, null], ["CDISCPILOT01", "CM", "01-701-1111", 2, "4", "PREMARIN", "ESTROGENS CONJUGATED", "", "GENITO URINARY SYSTEM AND SEX HORMONES", 0, "mg", "", "ORAL", 1.0, "SCREENING 1", -7, "SCREENING", "2012-08-25", "1996", "", -13, null, null], ["CDISCPILOT01", "CM", "01-701-1111", 3, "5", "PROVERA", "UNCODED", "", "UNCODED", 2, "mg", "", "ORAL", 1.0, "SCREENING 1", -7, "SCREENING", "2012-08-25", "1996", "", -13, null, null], ["CDISCPILOT01", "CM", "01-701-1111", 4, "2", "LISINOPRIL", "UNCODED", "", "UNCODED", 2, "mg", "QD", "ORAL", 1.0, "SCREENING 1", -7, "SCREENING", "2012-08-25", "2006", "", -13, null, null], ["CDISCPILOT01", "CM", "01-701-1111", 5, "3", "MOTRIN", "UNCODED", "", "UNCODED", 1, "TABLET", "PRN", "ORAL", 1.0, "SCREENING 1", -7, "SCREENING", "2012-08-25", "2009", "", -13, null, null], ["CDISCPILOT01", "CM", "01-701-1111", 6, "1", "KEFLEX", "UNCODED", "", "UNCODED", 500, "mg", "QID", "ORAL", 1.0, "SCREENING 1", -7, "SCREENING", "2012-08-25", "2012-07-08", "", -13, -61, null], ["CDISCPILOT01", "CM", "01-701-1111", 7, "6", "SYNTHROID", "UNCODED", "", "UNCODED", 0, "mg", "QD", "ORAL", 2.0, "SCREENING 2", -1, "SCREENING", "2012-09-05", "1983", "", -2, null, null], ["CDISCPILOT01", "CM", "01-701-1111", 8, "4", "PREMARIN", "ESTROGENS CONJUGATED", "", "GENITO URINARY SYSTEM AND SEX HORMONES", 0, "mg", "", "ORAL", 2.0, "SCREENING 2", -1, "SCREENING", "2012-09-05", "1996", "", -2, null, null], ["CDISCPILOT01", "CM", "01-701-1111", 9, "5", "PROVERA", "UNCODED", "", "UNCODED", 2, "mg", "", "ORAL", 2.0, "SCREENING 2", -1, "SCREENING", "2012-09-05", "1996", "", -2, null, null], ["CDISCPILOT01", "CM", "01-701-1111", 10, "2", "LISINOPRIL", "UNCODED", "", "UNCODED", 2, "mg", "QD", "ORAL", 2.0, "SCREENING 2", -1, "SCREENING", "2012-09-05", "2006", "", -2, null, null], ["CDISCPILOT01", "CM", "01-701-1111", 11, "3", "MOTRIN", "UNCODED", "", "UNCODED", 1, "TABLET", "PRN", "ORAL", 2.0, "SCREENING 2", -1, "SCREENING", "2012-09-05", "2009", "", -2, null, null], ["CDISCPILOT01", "CM", "01-701-1111", 12, "1", "KEFLEX", "UNCODED", "", "UNCODED", 500, "mg", "QID", "ORAL", 2.0, "SCREENING 2", -1, "SCREENING", "2012-09-05", "2012-07-08", "", -2, -61, null], ["CDISCPILOT01", "CM", "01-701-1111", 13, "7", "HYDROCORTISONE, TOPICAL", "UNCODED", "", "UNCODED", 1, "TABLET", "PRN", "TOPICAL", 2.0, "SCREENING 2", -1, "SCREENING", "2012-09-05", "2012-09-02", "2012-09-04", -2, -5, -3], ["CDISCPILOT01", "CM", "01-701-1111", 14, "6", "SYNTHROID", "UNCODED", "", "UNCODED", 0, "mg", "QD", "ORAL", 3.0, "BASELINE", 1, "TREATMENT", "2012-09-07", "1983", "", 1, null, null], ["CDISCPILOT01", "CM", "01-701-1111", 15, "4", "PREMARIN", "ESTROGENS CONJUGATED", "", "GENITO URINARY SYSTEM AND SEX HORMONES", 0, "mg", "", "ORAL", 3.0, "BASELINE", 1, "TREATMENT", "2012-09-07", "1996", "", 1, null, null], ["CDISCPILOT01", "CM", "01-701-1111", 16, "5", "PROVERA", "UNCODED", "", "UNCODED", 2, "mg", "", "ORAL", 3.0, "BASELINE", 1, "TREATMENT", "2012-09-07", "1996", "", 1, null, null], ["CDISCPILOT01", "CM", "01-701-1111", 17, "2", "LISINOPRIL", "UNCODED", "", "UNCODED", 2, "mg", "QD", "ORAL", 3.0, "BASELINE", 1, "TREATMENT", "2012-09-07", "2006", "", 1, null, null], ["CDISCPILOT01", "CM", "01-701-1111", 18, "3", "MOTRIN", "UNCODED", "", "UNCODED", 1, "TABLET", "PRN", "ORAL", 3.0, "BASELINE", 1, "TREATMENT", "2012-09-07", "2009", "", 1, null, null], ["CDISCPILOT01", "CM", "01-701-1111", 19, "1", "KEFLEX", "UNCODED", "", "UNCODED", 500, "mg", "QID", "ORAL", 3.0, "BASELINE", 1, "TREATMENT", "2012-09-07", "2012-07-08", "", 1, -61, null], ["CDISCPILOT01", "CM", "01-701-1111", 20, "6", "SYNTHROID", "UNCODED", "", "UNCODED", 0, "mg", "QD", "ORAL", 4.0, "WEEK 2", 14, "TREATMENT", "2012-09-17", "1983", "", 11, null, null], ["CDISCPILOT01", "CM", "01-701-1111", 21, "4", "PREMARIN", "ESTROGENS CONJUGATED", "", "GENITO URINARY SYSTEM AND SEX HORMONES", 0, "mg", "", "ORAL", 4.0, "WEEK 2", 14, "TREATMENT", "2012-09-17", "1996", "", 11, null, null], ["CDISCPILOT01", "CM", "01-701-1111", 22, "5", "PROVERA", "UNCODED", "", "UNCODED", 2, "mg", "", "ORAL", 4.0, "WEEK 2", 14, "TREATMENT", "2012-09-17", "1996", "", 11, null, null], ["CDISCPILOT01", "CM", "01-701-1111", 23, "2", "LISINOPRIL", "UNCODED", "", "UNCODED", 2, "mg", "QD", "ORAL", 4.0, "WEEK 2", 14, "TREATMENT", "2012-09-17", "2006", "", 11, null, null], ["CDISCPILOT01", "CM", "01-701-1111", 24, "3", "MOTRIN", "UNCODED", "", "UNCODED", 1, "TABLET", "PRN", "ORAL", 4.0, "WEEK 2", 14, "TREATMENT", "2012-09-17", "2009", "", 11, null, null], ["CDISCPILOT01", "CM", "01-701-1111", 25, "1", "KEFLEX", "UNCODED", "", "UNCODED", 500, "mg", "QID", "ORAL", 4.0, "WEEK 2", 14, "TREATMENT", "2012-09-17", "2012-07-08", "", 11, -61, null], ["CDISCPILOT01", "CM", "01-701-1111", 26, "6", "SYNTHROID", "UNCODED", "", "UNCODED", 0, "mg", "QD", "ORAL", 101.0, "AE FOLLOW-UP", null, "SCREENING", "2012-09-29", "1983", "", 23, null, null], ["CDISCPILOT01", "CM", "01-701-1111", 27, "4", "PREMARIN", "ESTROGENS CONJUGATED", "", "GENITO URINARY SYSTEM AND SEX HORMONES", 0, "mg", "", "ORAL", 101.0, "AE FOLLOW-UP", null, "SCREENING", "2012-09-29", "1996", "", 23, null, null], ["CDISCPILOT01", "CM", "01-701-1111", 28, "5", "PROVERA", "UNCODED", "", "UNCODED", 2, "mg", "", "ORAL", 101.0, "AE FOLLOW-UP", null, "SCREENING", "2012-09-29", "1996", "", 23, null, null], ["CDISCPILOT01", "CM", "01-701-1111", 29, "2", "LISINOPRIL", "UNCODED", "", "UNCODED", 2, "mg", "QD", "ORAL", 101.0, "AE FOLLOW-UP", null, "SCREENING", "2012-09-29", "2006", "", 23, null, null], ["CDISCPILOT01", "CM", "01-701-1111", 30, "3", "MOTRIN", "UNCODED", "", "UNCODED", 1, "TABLET", "PRN", "ORAL", 101.0, "AE FOLLOW-UP", null, "SCREENING", "2012-09-29", "2009", "", 23, null, null], ["CDISCPILOT01", "CM", "01-701-1111", 31, "1", "KEFLEX", "UNCODED", "", "UNCODED", 500, "mg", "QID", "ORAL", 101.0, "AE FOLLOW-UP", null, "SCREENING", "2012-09-29", "2012-07-08", "", 23, -61, null], ["CDISCPILOT01", "CM", "01-701-1111", 32, "6", "SYNTHROID", "UNCODED", "", "UNCODED", 0, "mg", "QD", "ORAL", 201.0, "RETRIEVAL", 168, "TREATMENT", "2013-02-22", "1983", "", 169, null, null], ["CDISCPILOT01", "CM", "01-701-1111", 33, "4", "PREMARIN", "ESTROGENS CONJUGATED", "", "GENITO URINARY SYSTEM AND SEX HORMONES", 0, "mg", "", "ORAL", 201.0, "RETRIEVAL", 168, "TREATMENT", "2013-02-22", "1996", "", 169, null, null], ["CDISCPILOT01", "CM", "01-701-1111", 34, "5", "PROVERA", "UNCODED", "", "UNCODED", 2, "mg", "", "ORAL", 201.0, "RETRIEVAL", 168, "TREATMENT", "2013-02-22", "1996", "", 169, null, null], ["CDISCPILOT01", "CM", "01-701-1111", 35, "2", "LISINOPRIL", "UNCODED", "", "UNCODED", 2, "mg", "QD", "ORAL", 201.0, "RETRIEVAL", 168, "TREATMENT", "2013-02-22", "2006", "", 169, null, null], ["CDISCPILOT01", "CM", "01-701-1111", 36, "3", "MOTRIN", "UNCODED", "", "UNCODED", 1, "TABLET", "PRN", "ORAL", 201.0, "RETRIEVAL", 168, "TREATMENT", "2013-02-22", "2009", "", 169, null, null], ["CDISCPILOT01", "CM", "01-701-1111", 37, "1", "KEFLEX", "UNCODED", "", "UNCODED", 500, "mg", "QID", "ORAL", 201.0, "RETRIEVAL", 168, "TREATMENT", "2013-02-22", "2012-07-08", "", 169, -61, null], ["CDISCPILOT01", "CM", "01-701-1115", 1, "1", "ASPIRIN", "ACETYLSALICYLIC ACID", "", "NERVOUS SYSTEM", 1, "TABLET", "QD", "ORAL", 1.0, "SCREENING 1", -7, "SCREENING", "2012-11-23", "2011", "", -7, null, null], ["CDISCPILOT01", "CM", "01-701-1115", 2, "2", "METAMUCIL", "UNCODED", "", "UNCODED", 1, "TABLET", "PRN", "ORAL", 1.0, "SCREENING 1", -7, "SCREENING", "2012-11-23", "2012-08", "", -7, null, null], ["CDISCPILOT01", "CM", "01-701-1115", 3, "1", "ASPIRIN", "ACETYLSALICYLIC ACID", "", "NERVOUS SYSTEM", 1, "TABLET", "QD", "ORAL", 2.0, "SCREENING 2", -1, "SCREENING", "2012-11-28", "2011", "", -2, null, null], ["CDISCPILOT01", "CM", "01-701-1115", 4, "2", "METAMUCIL", "UNCODED", "", "UNCODED", 1, "TABLET", "PRN", "ORAL", 2.0, "SCREENING 2", -1, "SCREENING", "2012-11-28", "2012-08", "", -2, null, null], ["CDISCPILOT01", "CM", "01-701-1115", 5, "1", "ASPIRIN", "ACETYLSALICYLIC ACID", "", "NERVOUS SYSTEM", 1, "TABLET", "QD", "ORAL", 3.0, "BASELINE", 1, "TREATMENT", "2012-11-30", "2011", "", 1, null, null], ["CDISCPILOT01", "CM", "01-701-1115", 6, "2", "METAMUCIL", "UNCODED", "", "UNCODED", 1, "TABLET", "PRN", "ORAL", 3.0, "BASELINE", 1, "TREATMENT", "2012-11-30", "2012-08", "", 1, null, null], ["CDISCPILOT01", "CM", "01-701-1115", 7, "1", "ASPIRIN", "ACETYLSALICYLIC ACID", "", "NERVOUS SYSTEM", 1, "TABLET", "QD", "ORAL", 4.0, "WEEK 2", 14, "TREATMENT", "2012-12-13", "2011", "", 14, null, null], ["CDISCPILOT01", "CM", "01-701-1115", 8, "2", "METAMUCIL", "UNCODED", "", "UNCODED", 1, "TABLET", "PRN", "ORAL", 4.0, "WEEK 2", 14, "TREATMENT", "2012-12-13", "2012-08", "", 14, null, null], ["CDISCPILOT01", "CM", "01-701-1115", 9, "1", "ASPIRIN", "ACETYLSALICYLIC ACID", "", "NERVOUS SYSTEM", 1, "TABLET", "QD", "ORAL", 5.0, "WEEK 4", 28, "TREATMENT", "2012-12-26", "2011", "", 27, null, null], ["CDISCPILOT01", "CM", "01-701-1115", 10, "2", "METAMUCIL", "UNCODED", "", "UNCODED", 1, "TABLET", "PRN", "ORAL", 5.0, "WEEK 4", 28, "TREATMENT", "2012-12-26", "2012-08", "", 27, null, null], ["CDISCPILOT01", "CM", "01-701-1115", 11, "1", "ASPIRIN", "ACETYLSALICYLIC ACID", "", "NERVOUS SYSTEM", 1, "TABLET", "QD", "ORAL", 6.0, "AMBUL ECG REMOVAL", 30, "TREATMENT", "2012-12-28", "2011", "", 29, null, null], ["CDISCPILOT01", "CM", "01-701-1115", 12, "2", "METAMUCIL", "UNCODED", "", "UNCODED", 1, "TABLET", "PRN", "ORAL", 6.0, "AMBUL ECG REMOVAL", 30, "TREATMENT", "2012-12-28", "2012-08", "", 29, null, null], ["CDISCPILOT01", "CM", "01-701-1115", 13, "1", "ASPIRIN", "ACETYLSALICYLIC ACID", "", "NERVOUS SYSTEM", 1, "TABLET", "QD", "ORAL", 7.0, "WEEK 6", 42, "TREATMENT", "2013-01-10", "2011", "", 42, null, null], ["CDISCPILOT01", "CM", "01-701-1115", 14, "2", "METAMUCIL", "UNCODED", "", "UNCODED", 1, "TABLET", "PRN", "ORAL", 7.0, "WEEK 6", 42, "TREATMENT", "2013-01-10", "2012-08", "", 42, null, null], ["CDISCPILOT01", "CM", "01-701-1115", 15, "1", "ASPIRIN", "ACETYLSALICYLIC ACID", "", "NERVOUS SYSTEM", 1, "TABLET", "QD", "ORAL", 8.0, "WEEK 8", 56, "TREATMENT", "2013-01-23", "2011", "", 55, null, null], ["CDISCPILOT01", "CM", "01-701-1115", 16, "2", "METAMUCIL", "UNCODED", "", "UNCODED", 1, "TABLET", "PRN", "ORAL", 8.0, "WEEK 8", 56, "TREATMENT", "2013-01-23", "2012-08", "", 55, null, null], ["CDISCPILOT01", "CM", "01-701-1115", 17, "3", "HYDROCORTISONE, TOPICAL", "UNCODED", "", "UNCODED", 1, "TABLET", "PRN", "TOPICAL", 8.0, "WEEK 8", 56, "TREATMENT", "2013-01-23", "2013-01-11", "", 55, 43, null], ["CDISCPILOT01", "CM", "01-701-1115", 18, "1", "ASPIRIN", "ACETYLSALICYLIC ACID", "", "NERVOUS SYSTEM", 1, "TABLET", "QD", "ORAL", 101.0, "AE FOLLOW-UP", null, "SCREENING", "2013-02-14", "2011", "", 77, null, null], ["CDISCPILOT01", "CM", "01-701-1115", 19, "2", "METAMUCIL", "UNCODED", "", "UNCODED", 1, "TABLET", "PRN", "ORAL", 101.0, "AE FOLLOW-UP", null, "SCREENING", "2013-02-14", "2012-08", "", 77, null, null], ["CDISCPILOT01", "CM", "01-701-1115", 20, "3", "HYDROCORTISONE, TOPICAL", "UNCODED", "", "UNCODED", 1, "TABLET", "PRN", "TOPICAL", 101.0, "AE FOLLOW-UP", null, "SCREENING", "2013-02-14", "2013-01-11", "", 77, 43, null], ["CDISCPILOT01", "CM", "01-701-1115", 21, "1", "ASPIRIN", "ACETYLSALICYLIC ACID", "", "NERVOUS SYSTEM", 1, "TABLET", "QD", "ORAL", 201.0, "RETRIEVAL", 168, "TREATMENT", "2013-05-20", "2011", "", 172, null, null], ["CDISCPILOT01", "CM", "01-701-1115", 22, "2", "METAMUCIL", "UNCODED", "", "UNCODED", 1, "TABLET", "PRN", "ORAL", 201.0, "RETRIEVAL", 168, "TREATMENT", "2013-05-20", "2012-08", "", 172, null, null], ["CDISCPILOT01", "CM", "01-701-1115", 23, "3", "HYDROCORTISONE, TOPICAL", "UNCODED", "", "UNCODED", 1, "TABLET", "PRN", "TOPICAL", 201.0, "RETRIEVAL", 168, "TREATMENT", "2013-05-20", "2013-01-11", "", 172, 43, null], ["CDISCPILOT01", "CM", "01-701-1115", 24, "6", "HYTRIN", "UNCODED", "", "UNCODED", 2, "TABLET", "QD", "ORAL", 201.0, "RETRIEVAL", 168, "TREATMENT", "2013-05-20", "2013-04-19", "2013-05-14", 172, 141, 166], ["CDISCPILOT01", "CM", "01-701-1115", 25, "4", "ASPIRIN", "ACETYLSALICYLIC ACID", "PROPHYLAXIS OR NON-THERAPEUTIC USE", "NERVOUS SYSTEM", 80, "mg", "QD", "ORAL", 201.0, "RETRIEVAL", 168, "TREATMENT", "2013-05-20", "2013-04-29", "", 172, 151, null], ["CDISCPILOT01", "CM", "01-701-1115", 26, "5", "FEOSOL", "UNCODED", "PROPHYLAXIS OR NON-THERAPEUTIC USE", "UNCODED", 325, "mg", "BID", "ORAL", 201.0, "RETRIEVAL", 168, "TREATMENT", "2013-05-20", "2013-04-29", "", 172, 151, null], ["CDISCPILOT01", "CM", "01-701-1115", 27, "7", "PRAVACHOL", "UNCODED", "", "UNCODED", 20, "mg", "QD", "ORAL", 201.0, "RETRIEVAL", 168, "TREATMENT", "2013-05-20", "2013-05-08", "", 172, 160, null], ["CDISCPILOT01", "CM", "01-701-1118", 1, "1", "ASPIRIN", "ACETYLSALICYLIC ACID", "PROPHYLAXIS OR NON-THERAPEUTIC USE", "NERVOUS SYSTEM", 325, "mg", "PRN", "ORAL", 1.0, "SCREENING 1", -7, "SCREENING", "2014-02-27", "2000-12-10", "", -13, -4840, null], ["CDISCPILOT01", "CM", "01-701-1118", 2, "2", "MULTIVITAMIN", "UNCODED", "PROPHYLAXIS OR NON-THERAPEUTIC USE", "UNCODED", 1, "TABLET", "QD", "ORAL", 1.0, "SCREENING 1", -7, "SCREENING", "2014-02-27", "2012-01-21", "", -13, -781, null], ["CDISCPILOT01", "CM", "01-701-1118", 3, "1", "ASPIRIN", "ACETYLSALICYLIC ACID", "PROPHYLAXIS OR NON-THERAPEUTIC USE", "NERVOUS SYSTEM", 325, "mg", "PRN", "ORAL", 2.0, "SCREENING 2", -1, "SCREENING", "2014-03-10", "2000-12-10", "", -2, -4840, null], ["CDISCPILOT01", "CM", "01-701-1118", 4, "2", "MULTIVITAMIN", "UNCODED", "PROPHYLAXIS OR NON-THERAPEUTIC USE", "UNCODED", 1, "TABLET", "QD", "ORAL", 2.0, "SCREENING 2", -1, "SCREENING", "2014-03-10", "2012-01-21", "", -2, -781, null], ["CDISCPILOT01", "CM", "01-701-1118", 5, "1", "ASPIRIN", "ACETYLSALICYLIC ACID", "PROPHYLAXIS OR NON-THERAPEUTIC USE", "NERVOUS SYSTEM", 325, "mg", "PRN", "ORAL", 3.0, "BASELINE", 1, "TREATMENT", "2014-03-12", "2000-12-10", "", 1, -4840, null], ["CDISCPILOT01", "CM", "01-701-1118", 6, "2", "MULTIVITAMIN", "UNCODED", "PROPHYLAXIS OR NON-THERAPEUTIC USE", "UNCODED", 1, "TABLET", "QD", "ORAL", 3.0, "BASELINE", 1, "TREATMENT", "2014-03-12", "2012-01-21", "", 1, -781, null], ["CDISCPILOT01", "CM", "01-701-1118", 7, "1", "ASPIRIN", "ACETYLSALICYLIC ACID", "PROPHYLAXIS OR NON-THERAPEUTIC USE", "NERVOUS SYSTEM", 325, "mg", "PRN", "ORAL", 4.0, "WEEK 2", 14, "TREATMENT", "2014-03-26", "2000-12-10", "", 15, -4840, null], ["CDISCPILOT01", "CM", "01-701-1118", 8, "2", "MULTIVITAMIN", "UNCODED", "PROPHYLAXIS OR NON-THERAPEUTIC USE", "UNCODED", 1, "TABLET", "QD", "ORAL", 4.0, "WEEK 2", 14, "TREATMENT", "2014-03-26", "2012-01-21", "", 15, -781, null], ["CDISCPILOT01", "CM", "01-701-1118", 9, "1", "ASPIRIN", "ACETYLSALICYLIC ACID", "PROPHYLAXIS OR NON-THERAPEUTIC USE", "NERVOUS SYSTEM", 325, "mg", "PRN", "ORAL", 5.0, "WEEK 4", 28, "TREATMENT", "2014-04-09", "2000-12-10", "", 29, -4840, null], ["CDISCPILOT01", "CM", "01-701-1118", 10, "2", "MULTIVITAMIN", "UNCODED", "PROPHYLAXIS OR NON-THERAPEUTIC USE", "UNCODED", 1, "TABLET", "QD", "ORAL", 5.0, "WEEK 4", 28, "TREATMENT", "2014-04-09", "2012-01-21", "", 29, -781, null], ["CDISCPILOT01", "CM", "01-701-1118", 11, "1", "ASPIRIN", "ACETYLSALICYLIC ACID", "PROPHYLAXIS OR NON-THERAPEUTIC USE", "NERVOUS SYSTEM", 325, "mg", "PRN", "ORAL", 6.0, "AMBUL ECG REMOVAL", 30, "TREATMENT", "2014-04-11", "2000-12-10", "", 31, -4840, null], ["CDISCPILOT01", "CM", "01-701-1118", 12, "2", "MULTIVITAMIN", "UNCODED", "PROPHYLAXIS OR NON-THERAPEUTIC USE", "UNCODED", 1, "TABLET", "QD", "ORAL", 6.0, "AMBUL ECG REMOVAL", 30, "TREATMENT", "2014-04-11", "2012-01-21", "", 31, -781, null], ["CDISCPILOT01", "CM", "01-701-1118", 13, "1", "ASPIRIN", "ACETYLSALICYLIC ACID", "PROPHYLAXIS OR NON-THERAPEUTIC USE", "NERVOUS SYSTEM", 325, "mg", "PRN", "ORAL", 7.0, "WEEK 6", 42, "TREATMENT", "2014-04-23", "2000-12-10", "", 43, -4840, null], ["CDISCPILOT01", "CM", "01-701-1118", 14, "2", "MULTIVITAMIN", "UNCODED", "PROPHYLAXIS OR NON-THERAPEUTIC USE", "UNCODED", 1, "TABLET", "QD", "ORAL", 7.0, "WEEK 6", 42, "TREATMENT", "2014-04-23", "2012-01-21", "", 43, -781, null], ["CDISCPILOT01", "CM", "01-701-1118", 15, "1", "ASPIRIN", "ACETYLSALICYLIC ACID", "PROPHYLAXIS OR NON-THERAPEUTIC USE", "NERVOUS SYSTEM", 325, "mg", "PRN", "ORAL", 8.0, "WEEK 8", 56, "TREATMENT", "2014-05-08", "2000-12-10", "", 58, -4840, null], ["CDISCPILOT01", "CM", "01-701-1118", 16, "2", "MULTIVITAMIN", "UNCODED", "PROPHYLAXIS OR NON-THERAPEUTIC USE", "UNCODED", 1, "TABLET", "QD", "ORAL", 8.0, "WEEK 8", 56, "TREATMENT", "2014-05-08", "2012-01-21", "", 58, -781, null], ["CDISCPILOT01", "CM", "01-701-1118", 17, "1", "ASPIRIN", "ACETYLSALICYLIC ACID", "PROPHYLAXIS OR NON-THERAPEUTIC USE", "NERVOUS SYSTEM", 325, "mg", "PRN", "ORAL", 9.0, "WEEK 12", 84, "TREATMENT", "2014-06-05", "2000-12-10", "", 86, -4840, null], ["CDISCPILOT01", "CM", "01-701-1118", 18, "2", "MULTIVITAMIN", "UNCODED", "PROPHYLAXIS OR NON-THERAPEUTIC USE", "UNCODED", 1, "TABLET", "QD", "ORAL", 9.0, "WEEK 12", 84, "TREATMENT", "2014-06-05", "2012-01-21", "", 86, -781, null], ["CDISCPILOT01", "CM", "01-701-1118", 19, "1", "ASPIRIN", "ACETYLSALICYLIC ACID", "PROPHYLAXIS OR NON-THERAPEUTIC USE", "NERVOUS SYSTEM", 325, "mg", "PRN", "ORAL", 10.0, "WEEK 16", 112, "TREATMENT", "2014-07-02", "2000-12-10", "", 113, -4840, null], ["CDISCPILOT01", "CM", "01-701-1118", 20, "2", "MULTIVITAMIN", "UNCODED", "PROPHYLAXIS OR NON-THERAPEUTIC USE", "UNCODED", 1, "TABLET", "QD", "ORAL", 10.0, "WEEK 16", 112, "TREATMENT", "2014-07-02", "2012-01-21", "", 113, -781, null], ["CDISCPILOT01", "CM", "01-701-1118", 21, "1", "ASPIRIN", "ACETYLSALICYLIC ACID", "PROPHYLAXIS OR NON-THERAPEUTIC USE", "NERVOUS SYSTEM", 325, "mg", "PRN", "ORAL", 11.0, "WEEK 20", 140, "TREATMENT", "2014-07-30", "2000-12-10", "", 141, -4840, null], ["CDISCPILOT01", "CM", "01-701-1118", 22, "2", "MULTIVITAMIN", "UNCODED", "PROPHYLAXIS OR NON-THERAPEUTIC USE", "UNCODED", 1, "TABLET", "QD", "ORAL", 11.0, "WEEK 20", 140, "TREATMENT", "2014-07-30", "2012-01-21", "", 141, -781, null], ["CDISCPILOT01", "CM", "01-701-1118", 23, "1", "ASPIRIN", "ACETYLSALICYLIC ACID", "PROPHYLAXIS OR NON-THERAPEUTIC USE", "NERVOUS SYSTEM", 325, "mg", "PRN", "ORAL", 12.0, "WEEK 24", 168, "TREATMENT", "2014-08-27", "2000-12-10", "", 169, -4840, null], ["CDISCPILOT01", "CM", "01-701-1118", 24, "2", "MULTIVITAMIN", "UNCODED", "PROPHYLAXIS OR NON-THERAPEUTIC USE", "UNCODED", 1, "TABLET", "QD", "ORAL", 12.0, "WEEK 24", 168, "TREATMENT", "2014-08-27", "2012-01-21", "", 169, -781, null], ["CDISCPILOT01", "CM", "01-701-1118", 25, "1", "ASPIRIN", "ACETYLSALICYLIC ACID", "PROPHYLAXIS OR NON-THERAPEUTIC USE", "NERVOUS SYSTEM", 325, "mg", "PRN", "ORAL", 13.0, "WEEK 26", 182, "TREATMENT", "2014-09-09", "2000-12-10", "", 182, -4840, null], ["CDISCPILOT01", "CM", "01-701-1118", 26, "2", "MULTIVITAMIN", "UNCODED", "PROPHYLAXIS OR NON-THERAPEUTIC USE", "UNCODED", 1, "TABLET", "QD", "ORAL", 13.0, "WEEK 26", 182, "TREATMENT", "2014-09-09", "2012-01-21", "", 182, -781, null], ["CDISCPILOT01", "CM", "01-701-1130", 1, "1", "CALCIUM", "CALCIUM", "PROPHYLAXIS OR NON-THERAPEUTIC USE", "ALIMENTARY TRACT AND METABOLISM", 1, "TABLET", "QD", "ORAL", 1.0, "SCREENING 1", -7, "SCREENING", "2014-02-09", "2002", "", -6, null, null], ["CDISCPILOT01", "CM", "01-701-1130", 2, "3", "MULTIVITAMINS", "UNCODED", "PROPHYLAXIS OR NON-THERAPEUTIC USE", "UNCODED", 4, "mg", "QD", "ORAL", 1.0, "SCREENING 1", -7, "SCREENING", "2014-02-09", "2002", "", -6, null, null], ["CDISCPILOT01", "CM", "01-701-1130", 3, "4", "POTASSIUM", "UNCODED", "PROPHYLAXIS OR NON-THERAPEUTIC USE", "UNCODED", 1, "TABLET", "QD", "ORAL", 1.0, "SCREENING 1", -7, "SCREENING", "2014-02-09", "2002", "", -6, null, null], ["CDISCPILOT01", "CM", "01-701-1130", 4, "2", "EUCERIN CREME", "UNCODED", "", "UNCODED", 1, "TABLET", "TID", "TOPICAL", 1.0, "SCREENING 1", -7, "SCREENING", "2014-02-09", "2013-09", "", -6, null, null], ["CDISCPILOT01", "CM", "01-701-1130", 5, "1", "CALCIUM", "CALCIUM", "PROPHYLAXIS OR NON-THERAPEUTIC USE", "ALIMENTARY TRACT AND METABOLISM", 1, "TABLET", "QD", "ORAL", 2.0, "SCREENING 2", -1, "SCREENING", "2014-02-13", "2002", "", -2, null, null], ["CDISCPILOT01", "CM", "01-701-1130", 6, "3", "MULTIVITAMINS", "UNCODED", "PROPHYLAXIS OR NON-THERAPEUTIC USE", "UNCODED", 4, "mg", "QD", "ORAL", 2.0, "SCREENING 2", -1, "SCREENING", "2014-02-13", "2002", "", -2, null, null], ["CDISCPILOT01", "CM", "01-701-1130", 7, "4", "POTASSIUM", "UNCODED", "PROPHYLAXIS OR NON-THERAPEUTIC USE", "UNCODED", 1, "TABLET", "QD", "ORAL", 2.0, "SCREENING 2", -1, "SCREENING", "2014-02-13", "2002", "", -2, null, null], ["CDISCPILOT01", "CM", "01-701-1130", 8, "2", "EUCERIN CREME", "UNCODED", "", "UNCODED", 1, "TABLET", "TID", "TOPICAL", 2.0, "SCREENING 2", -1, "SCREENING", "2014-02-13", "2013-09", "", -2, null, null], ["CDISCPILOT01", "CM", "01-701-1130", 9, "1", "CALCIUM", "CALCIUM", "PROPHYLAXIS OR NON-THERAPEUTIC USE", "ALIMENTARY TRACT AND METABOLISM", 1, "TABLET", "QD", "ORAL", 3.0, "BASELINE", 1, "TREATMENT", "2014-02-15", "2002", "", 1, null, null], ["CDISCPILOT01", "CM", "01-701-1130", 10, "3", "MULTIVITAMINS", "UNCODED", "PROPHYLAXIS OR NON-THERAPEUTIC USE", "UNCODED", 4, "mg", "QD", "ORAL", 3.0, "BASELINE", 1, "TREATMENT", "2014-02-15", "2002", "", 1, null, null], ["CDISCPILOT01", "CM", "01-701-1130", 11, "4", "POTASSIUM", "UNCODED", "PROPHYLAXIS OR NON-THERAPEUTIC USE", "UNCODED", 1, "TABLET", "QD", "ORAL", 3.0, "BASELINE", 1, "TREATMENT", "2014-02-15", "2002", "", 1, null, null], ["CDISCPILOT01", "CM", "01-701-1130", 12, "2", "EUCERIN CREME", "UNCODED", "", "UNCODED", 1, "TABLET", "TID", "TOPICAL", 3.0, "BASELINE", 1, "TREATMENT", "2014-02-15", "2013-09", "", 1, null, null], ["CDISCPILOT01", "CM", "01-701-1130", 13, "1", "CALCIUM", "CALCIUM", "PROPHYLAXIS OR NON-THERAPEUTIC USE", "ALIMENTARY TRACT AND METABOLISM", 1, "TABLET", "QD", "ORAL", 4.0, "WEEK 2", 14, "TREATMENT", "2014-03-01", "2002", "", 15, null, null], ["CDISCPILOT01", "CM", "01-701-1130", 14, "3", "MULTIVITAMINS", "UNCODED", "PROPHYLAXIS OR NON-THERAPEUTIC USE", "UNCODED", 4, "mg", "QD", "ORAL", 4.0, "WEEK 2", 14, "TREATMENT", "2014-03-01", "2002", "", 15, null, null], ["CDISCPILOT01", "CM", "01-701-1130", 15, "4", "POTASSIUM", "UNCODED", "PROPHYLAXIS OR NON-THERAPEUTIC USE", "UNCODED", 1, "TABLET", "QD", "ORAL", 4.0, "WEEK 2", 14, "TREATMENT", "2014-03-01", "2002", "", 15, null, null], ["CDISCPILOT01", "CM", "01-701-1130", 16, "2", "EUCERIN CREME", "UNCODED", "", "UNCODED", 1, "TABLET", "TID", "TOPICAL", 4.0, "WEEK 2", 14, "TREATMENT", "2014-03-01", "2013-09", "", 15, null, null], ["CDISCPILOT01", "CM", "01-701-1130", 17, "1", "CALCIUM", "CALCIUM", "PROPHYLAXIS OR NON-THERAPEUTIC USE", "ALIMENTARY TRACT AND METABOLISM", 1, "TABLET", "QD", "ORAL", 5.0, "WEEK 4", 28, "TREATMENT", "2014-03-15", "2002", "", 29, null, null], ["CDISCPILOT01", "CM", "01-701-1130", 18, "3", "MULTIVITAMINS", "UNCODED", "PROPHYLAXIS OR NON-THERAPEUTIC USE", "UNCODED", 4, "mg", "QD", "ORAL", 5.0, "WEEK 4", 28, "TREATMENT", "2014-03-15", "2002", "", 29, null, null], ["CDISCPILOT01", "CM", "01-701-1130", 19, "4", "POTASSIUM", "UNCODED", "PROPHYLAXIS OR NON-THERAPEUTIC USE", "UNCODED", 1, "TABLET", "QD", "ORAL", 5.0, "WEEK 4", 28, "TREATMENT", "2014-03-15", "2002", "", 29, null, null], ["CDISCPILOT01", "CM", "01-701-1130", 20, "2", "EUCERIN CREME", "UNCODED", "", "UNCODED", 1, "TABLET", "TID", "TOPICAL", 5.0, "WEEK 4", 28, "TREATMENT", "2014-03-15", "2013-09", "", 29, null, null], ["CDISCPILOT01", "CM", "01-701-1130", 21, "5", "SULFAMETHOXAZOLE", "UNCODED", "", "UNCODED", 1, "TABLET", "BID", "ORAL", 5.0, "WEEK 4", 28, "TREATMENT", "2014-03-15", "2014-03-10", "2014-03-16", 29, 24, 30], ["CDISCPILOT01", "CM", "01-701-1130", 22, "1", "CALCIUM", "CALCIUM", "PROPHYLAXIS OR NON-THERAPEUTIC USE", "ALIMENTARY TRACT AND METABOLISM", 1, "TABLET", "QD", "ORAL", 6.0, "AMBUL ECG REMOVAL", 30, "TREATMENT", "2014-03-17", "2002", "", 31, null, null], ["CDISCPILOT01", "CM", "01-701-1130", 23, "3", "MULTIVITAMINS", "UNCODED", "PROPHYLAXIS OR NON-THERAPEUTIC USE", "UNCODED", 4, "mg", "QD", "ORAL", 6.0, "AMBUL ECG REMOVAL", 30, "TREATMENT", "2014-03-17", "2002", "", 31, null, null], ["CDISCPILOT01", "CM", "01-701-1130", 24, "4", "POTASSIUM", "UNCODED", "PROPHYLAXIS OR NON-THERAPEUTIC USE", "UNCODED", 1, "TABLET", "QD", "ORAL", 6.0, "AMBUL ECG REMOVAL", 30, "TREATMENT", "2014-03-17", "2002", "", 31, null, null], ["CDISCPILOT01", "CM", "01-701-1130", 25, "2", "EUCERIN CREME", "UNCODED", "", "UNCODED", 1, "TABLET", "TID", "TOPICAL", 6.0, "AMBUL ECG REMOVAL", 30, "TREATMENT", "2014-03-17", "2013-09", "", 31, null, null], ["CDISCPILOT01", "CM", "01-701-1130", 26, "5", "SULFAMETHOXAZOLE", "UNCODED", "", "UNCODED", 1, "TABLET", "BID", "ORAL", 6.0, "AMBUL ECG REMOVAL", 30, "TREATMENT", "2014-03-17", "2014-03-10", "2014-03-16", 31, 24, 30], ["CDISCPILOT01", "CM", "01-701-1130", 27, "1", "CALCIUM", "CALCIUM", "PROPHYLAXIS OR NON-THERAPEUTIC USE", "ALIMENTARY TRACT AND METABOLISM", 1, "TABLET", "QD", "ORAL", 7.0, "WEEK 6", 42, "TREATMENT", "2014-03-29", "2002", "", 43, null, null], ["CDISCPILOT01", "CM", "01-701-1130", 28, "3", "MULTIVITAMINS", "UNCODED", "PROPHYLAXIS OR NON-THERAPEUTIC USE", "UNCODED", 4, "mg", "QD", "ORAL", 7.0, "WEEK 6", 42, "TREATMENT", "2014-03-29", "2002", "", 43, null, null], ["CDISCPILOT01", "CM", "01-701-1130", 29, "4", "POTASSIUM", "UNCODED", "PROPHYLAXIS OR NON-THERAPEUTIC USE", "UNCODED", 1, "TABLET", "QD", "ORAL", 7.0, "WEEK 6", 42, "TREATMENT", "2014-03-29", "2002", "", 43, null, null], ["CDISCPILOT01", "CM", "01-701-1130", 30, "2", "EUCERIN CREME", "UNCODED", "", "UNCODED", 1, "TABLET", "TID", "TOPICAL", 7.0, "WEEK 6", 42, "TREATMENT", "2014-03-29", "2013-09", "", 43, null, null], ["CDISCPILOT01", "CM", "01-701-1130", 31, "1", "CALCIUM", "CALCIUM", "PROPHYLAXIS OR NON-THERAPEUTIC USE", "ALIMENTARY TRACT AND METABOLISM", 1, "TABLET", "QD", "ORAL", 8.0, "WEEK 8", 56, "TREATMENT", "2014-04-12", "2002", "", 57, null, null], ["CDISCPILOT01", "CM", "01-701-1130", 32, "3", "MULTIVITAMINS", "UNCODED", "PROPHYLAXIS OR NON-THERAPEUTIC USE", "UNCODED", 4, "mg", "QD", "ORAL", 8.0, "WEEK 8", 56, "TREATMENT", "2014-04-12", "2002", "", 57, null, null], ["CDISCPILOT01", "CM", "01-701-1130", 33, "4", "POTASSIUM", "UNCODED", "PROPHYLAXIS OR NON-THERAPEUTIC USE", "UNCODED", 1, "TABLET", "QD", "ORAL", 8.0, "WEEK 8", 56, "TREATMENT", "2014-04-12", "2002", "", 57, null, null], ["CDISCPILOT01", "CM", "01-701-1130", 34, "2", "EUCERIN CREME", "UNCODED", "", "UNCODED", 1, "TABLET", "TID", "TOPICAL", 8.0, "WEEK 8", 56, "TREATMENT", "2014-04-12", "2013-09", "", 57, null, null], ["CDISCPILOT01", "CM", "01-701-1130", 35, "1", "CALCIUM", "CALCIUM", "PROPHYLAXIS OR NON-THERAPEUTIC USE", "ALIMENTARY TRACT AND METABOLISM", 1, "TABLET", "QD", "ORAL", 9.0, "WEEK 12", 84, "TREATMENT", "2014-05-16", "2002", "", 91, null, null], ["CDISCPILOT01", "CM", "01-701-1130", 36, "3", "MULTIVITAMINS", "UNCODED", "PROPHYLAXIS OR NON-THERAPEUTIC USE", "UNCODED", 4, "mg", "QD", "ORAL", 9.0, "WEEK 12", 84, "TREATMENT", "2014-05-16", "2002", "", 91, null, null], ["CDISCPILOT01", "CM", "01-701-1130", 37, "4", "POTASSIUM", "UNCODED", "PROPHYLAXIS OR NON-THERAPEUTIC USE", "UNCODED", 1, "TABLET", "QD", "ORAL", 9.0, "WEEK 12", 84, "TREATMENT", "2014-05-16", "2002", "", 91, null, null], ["CDISCPILOT01", "CM", "01-701-1130", 38, "2", "EUCERIN CREME", "UNCODED", "", "UNCODED", 1, "TABLET", "TID", "TOPICAL", 9.0, "WEEK 12", 84, "TREATMENT", "2014-05-16", "2013-09", "", 91, null, null], ["CDISCPILOT01", "CM", "01-701-1130", 39, "6", "ANTIHISTAMINES FOR SYSTEMIC USE", "UNCODED", "", "UNCODED", 2, "TABLET", "PRN", "ORAL", 9.0, "WEEK 12", 84, "TREATMENT", "2014-05-16", "2014-05-09", "2014-05-09", 91, 84, 84], ["CDISCPILOT01", "CM", "01-701-1130", 40, "1", "CALCIUM", "CALCIUM", "PROPHYLAXIS OR NON-THERAPEUTIC USE", "ALIMENTARY TRACT AND METABOLISM", 1, "TABLET", "QD", "ORAL", 10.0, "WEEK 16", 112, "TREATMENT", "2014-06-07", "2002", "", 113, null, null], ["CDISCPILOT01", "CM", "01-701-1130", 41, "3", "MULTIVITAMINS", "UNCODED", "PROPHYLAXIS OR NON-THERAPEUTIC USE", "UNCODED", 4, "mg", "QD", "ORAL", 10.0, "WEEK 16", 112, "TREATMENT", "2014-06-07", "2002", "", 113, null, null], ["CDISCPILOT01", "CM", "01-701-1130", 42, "4", "POTASSIUM", "UNCODED", "PROPHYLAXIS OR NON-THERAPEUTIC USE", "UNCODED", 1, "TABLET", "QD", "ORAL", 10.0, "WEEK 16", 112, "TREATMENT", "2014-06-07", "2002", "", 113, null, null], ["CDISCPILOT01", "CM", "01-701-1130", 43, "2", "EUCERIN CREME", "UNCODED", "", "UNCODED", 1, "TABLET", "TID", "TOPICAL", 10.0, "WEEK 16", 112, "TREATMENT", "2014-06-07", "2013-09", "", 113, null, null], ["CDISCPILOT01", "CM", "01-701-1130", 44, "1", "CALCIUM", "CALCIUM", "PROPHYLAXIS OR NON-THERAPEUTIC USE", "ALIMENTARY TRACT AND METABOLISM", 1, "TABLET", "QD", "ORAL", 11.0, "WEEK 20", 140, "TREATMENT", "2014-07-02", "2002", "", 138, null, null], ["CDISCPILOT01", "CM", "01-701-1130", 45, "3", "MULTIVITAMINS", "UNCODED", "PROPHYLAXIS OR NON-THERAPEUTIC USE", "UNCODED", 4, "mg", "QD", "ORAL", 11.0, "WEEK 20", 140, "TREATMENT", "2014-07-02", "2002", "", 138, null, null], ["CDISCPILOT01", "CM", "01-701-1130", 46, "4", "POTASSIUM", "UNCODED", "PROPHYLAXIS OR NON-THERAPEUTIC USE", "UNCODED", 1, "TABLET", "QD", "ORAL", 11.0, "WEEK 20", 140, "TREATMENT", "2014-07-02", "2002", "", 138, null, null], ["CDISCPILOT01", "CM", "01-701-1130", 47, "2", "EUCERIN CREME", "UNCODED", "", "UNCODED", 1, "TABLET", "TID", "TOPICAL", 11.0, "WEEK 20", 140, "TREATMENT", "2014-07-02", "2013-09", "", 138, null, null], ["CDISCPILOT01", "CM", "01-701-1130", 48, "1", "CALCIUM", "CALCIUM", "PROPHYLAXIS OR NON-THERAPEUTIC USE", "ALIMENTARY TRACT AND METABOLISM", 1, "TABLET", "QD", "ORAL", 12.0, "WEEK 24", 168, "TREATMENT", "2014-08-02", "2002", "", 169, null, null], ["CDISCPILOT01", "CM", "01-701-1130", 49, "3", "MULTIVITAMINS", "UNCODED", "PROPHYLAXIS OR NON-THERAPEUTIC USE", "UNCODED", 4, "mg", "QD", "ORAL", 12.0, "WEEK 24", 168, "TREATMENT", "2014-08-02", "2002", "", 169, null, null], ["CDISCPILOT01", "CM", "01-701-1130", 50, "4", "POTASSIUM", "UNCODED", "PROPHYLAXIS OR NON-THERAPEUTIC USE", "UNCODED", 1, "TABLET", "QD", "ORAL", 12.0, "WEEK 24", 168, "TREATMENT", "2014-08-02", "2002", "", 169, null, null], ["CDISCPILOT01", "CM", "01-701-1130", 51, "2", "EUCERIN CREME", "UNCODED", "", "UNCODED", 1, "TABLET", "TID", "TOPICAL", 12.0, "WEEK 24", 168, "TREATMENT", "2014-08-02", "2013-09", "", 169, null, null], ["CDISCPILOT01", "CM", "01-701-1130", 52, "1", "CALCIUM", "CALCIUM", "PROPHYLAXIS OR NON-THERAPEUTIC USE", "ALIMENTARY TRACT AND METABOLISM", 1, "TABLET", "QD", "ORAL", 13.0, "WEEK 26", 182, "TREATMENT", "2014-08-16", "2002", "", 183, null, null], ["CDISCPILOT01", "CM", "01-701-1130", 53, "3", "MULTIVITAMINS", "UNCODED", "PROPHYLAXIS OR NON-THERAPEUTIC USE", "UNCODED", 4, "mg", "QD", "ORAL", 13.0, "WEEK 26", 182, "TREATMENT", "2014-08-16", "2002", "", 183, null, null], ["CDISCPILOT01", "CM", "01-701-1130", 54, "4", "POTASSIUM", "UNCODED", "PROPHYLAXIS OR NON-THERAPEUTIC USE", "UNCODED", 1, "TABLET", "QD", "ORAL", 13.0, "WEEK 26", 182, "TREATMENT", "2014-08-16", "2002", "", 183, null, null], ["CDISCPILOT01", "CM", "01-701-1130", 55, "2", "EUCERIN CREME", "UNCODED", "", "UNCODED", 1, "TABLET", "TID", "TOPICAL", 13.0, "WEEK 26", 182, "TREATMENT", "2014-08-16", "2013-09", "", 183, null, null], ["CDISCPILOT01", "CM", "01-701-1133", 1, "1", "MULTIVITAMIN", "UNCODED", "PROPHYLAXIS OR NON-THERAPEUTIC USE", "UNCODED", 1, "TABLET", "QD", "ORAL", 1.0, "SCREENING 1", -7, "SCREENING", "2012-10-23", "2006", "", -5, null, null], ["CDISCPILOT01", "CM", "01-701-1133", 2, "1", "MULTIVITAMIN", "UNCODED", "PROPHYLAXIS OR NON-THERAPEUTIC USE", "UNCODED", 1, "TABLET", "QD", "ORAL", 2.0, "SCREENING 2", -1, "SCREENING", "2012-10-26", "2006", "", -2, null, null], ["CDISCPILOT01", "CM", "01-701-1133", 3, "1", "MULTIVITAMIN", "UNCODED", "PROPHYLAXIS OR NON-THERAPEUTIC USE", "UNCODED", 1, "TABLET", "QD", "ORAL", 3.0, "BASELINE", 1, "TREATMENT", "2012-10-28", "2006", "", 1, null, null], ["CDISCPILOT01", "CM", "01-701-1133", 4, "1", "MULTIVITAMIN", "UNCODED", "PROPHYLAXIS OR NON-THERAPEUTIC USE", "UNCODED", 1, "TABLET", "QD", "ORAL", 4.0, "WEEK 2", 14, "TREATMENT", "2012-11-12", "2006", "", 16, null, null], ["CDISCPILOT01", "CM", "01-701-1133", 5, "1", "MULTIVITAMIN", "UNCODED", "PROPHYLAXIS OR NON-THERAPEUTIC USE", "UNCODED", 1, "TABLET", "QD", "ORAL", 5.0, "WEEK 4", 28, "TREATMENT", "2012-11-26", "2006", "", 30, null, null], ["CDISCPILOT01", "CM", "01-701-1133", 6, "1", "MULTIVITAMIN", "UNCODED", "PROPHYLAXIS OR NON-THERAPEUTIC USE", "UNCODED", 1, "TABLET", "QD", "ORAL", 6.0, "AMBUL ECG REMOVAL", 30, "TREATMENT", "2012-11-28", "2006", "", 32, null, null], ["CDISCPILOT01", "CM", "01-701-1133", 7, "1", "MULTIVITAMIN", "UNCODED", "PROPHYLAXIS OR NON-THERAPEUTIC USE", "UNCODED", 1, "TABLET", "QD", "ORAL", 7.0, "WEEK 6", 42, "TREATMENT", "2012-12-11", "2006", "", 45, null, null], ["CDISCPILOT01", "CM", "01-701-1133", 8, "1", "MULTIVITAMIN", "UNCODED", "PROPHYLAXIS OR NON-THERAPEUTIC USE", "UNCODED", 1, "TABLET", "QD", "ORAL", 8.0, "WEEK 8", 56, "TREATMENT", "2012-12-24", "2006", "", 58, null, null], ["CDISCPILOT01", "CM", "01-701-1133", 9, "1", "MULTIVITAMIN", "UNCODED", "PROPHYLAXIS OR NON-THERAPEUTIC USE", "UNCODED", 1, "TABLET", "QD", "ORAL", 9.0, "WEEK 12", 84, "TREATMENT", "2013-01-22", "2006", "", 87, null, null], ["CDISCPILOT01", "CM", "01-701-1133", 10, "1", "MULTIVITAMIN", "UNCODED", "PROPHYLAXIS OR NON-THERAPEUTIC USE", "UNCODED", 1, "TABLET", "QD", "ORAL", 10.0, "WEEK 16", 112, "TREATMENT", "2013-02-18", "2006", "", 114, null, null], ["CDISCPILOT01", "CM", "01-701-1133", 11, "2", "HYDROCORTISONE", "HYDROCORTISONE", "", "SYSTEMIC HORMONAL PREPARATIONS, EXCL.", 1, "TABLET", "PRN", "TOPICAL", 10.0, "WEEK 16", 112, "TREATMENT", "2013-02-18", "2013-01-23", "", 114, 88, null], ["CDISCPILOT01", "CM", "01-701-1133", 12, "1", "MULTIVITAMIN", "UNCODED", "PROPHYLAXIS OR NON-THERAPEUTIC USE", "UNCODED", 1, "TABLET", "QD", "ORAL", 11.0, "WEEK 20", 140, "TREATMENT", "2013-03-18", "2006", "", 142, null, null], ["CDISCPILOT01", "CM", "01-701-1133", 13, "2", "HYDROCORTISONE", "HYDROCORTISONE", "", "SYSTEMIC HORMONAL PREPARATIONS, EXCL.", 1, "TABLET", "PRN", "TOPICAL", 11.0, "WEEK 20", 140, "TREATMENT", "2013-03-18", "2013-01-23", "", 142, 88, null], ["CDISCPILOT01", "CM", "01-701-1133", 14, "1", "MULTIVITAMIN", "UNCODED", "PROPHYLAXIS OR NON-THERAPEUTIC USE", "UNCODED", 1, "TABLET", "QD", "ORAL", 12.0, "WEEK 24", 168, "TREATMENT", "2013-04-18", "2006", "", 173, null, null], ["CDISCPILOT01", "CM", "01-701-1133", 15, "2", "HYDROCORTISONE", "HYDROCORTISONE", "", "SYSTEMIC HORMONAL PREPARATIONS, EXCL.", 1, "TABLET", "PRN", "TOPICAL", 12.0, "WEEK 24", 168, "TREATMENT", "2013-04-18", "2013-01-23", "", 173, 88, null], ["CDISCPILOT01", "CM", "01-701-1133", 16, "1", "MULTIVITAMIN", "UNCODED", "PROPHYLAXIS OR NON-THERAPEUTIC USE", "UNCODED", 1, "TABLET", "QD", "ORAL", 13.0, "WEEK 26", 182, "TREATMENT", "2013-04-29", "2006", "", 184, null, null], ["CDISCPILOT01", "CM", "01-701-1133", 17, "2", "HYDROCORTISONE", "HYDROCORTISONE", "", "SYSTEMIC HORMONAL PREPARATIONS, EXCL.", 1, "TABLET", "PRN", "TOPICAL", 13.0, "WEEK 26", 182, "TREATMENT", "2013-04-29", "2013-01-23", "", 184, 88, null], ["CDISCPILOT01", "CM", "01-701-1146", 1, "4", "MOTRIN", "UNCODED", "", "UNCODED", 1, "TABLET", "PRN", "ORAL", 1.0, "SCREENING 1", -7, "SCREENING", "2013-05-07", "1966", "", -13, null, null], ["CDISCPILOT01", "CM", "01-701-1146", 2, "6", "PREMARIN", "ESTROGENS CONJUGATED", "PROPHYLAXIS OR NON-THERAPEUTIC USE", "GENITO URINARY SYSTEM AND SEX HORMONES", 0, "mg", "QD", "ORAL", 1.0, "SCREENING 1", -7, "SCREENING", "2013-05-07", "1987", "", -13, null, null], ["CDISCPILOT01", "CM", "01-701-1146", 3, "7", "PROVERA", "UNCODED", "PROPHYLAXIS OR NON-THERAPEUTIC USE", "UNCODED", 2, "mg", "QD", "ORAL", 1.0, "SCREENING 1", -7, "SCREENING", "2013-05-07", "1987", "", -13, null, null], ["CDISCPILOT01", "CM", "01-701-1146", 4, "5", "MULTIVITAMIN", "UNCODED", "PROPHYLAXIS OR NON-THERAPEUTIC USE", "UNCODED", 1, "TABLET", "QD", "ORAL", 1.0, "SCREENING 1", -7, "SCREENING", "2013-05-07", "2006", "", -13, null, null], ["CDISCPILOT01", "CM", "01-701-1146", 5, "1", "BECONASE", "UNCODED", "", "UNCODED", 2, "TABLET", "PRN", "NASAL", 1.0, "SCREENING 1", -7, "SCREENING", "2013-05-07", "2008", "", -13, null, null], ["CDISCPILOT01", "CM", "01-701-1146", 6, "2", "DOCUSATE", "UNCODED", "", "UNCODED", 2, "TABLET", "QD", "ORAL", 1.0, "SCREENING 1", -7, "SCREENING", "2013-05-07", "2008", "", -13, null, null], ["CDISCPILOT01", "CM", "01-701-1146", 7, "3", "MINERALS NOS", "UNCODED", "", "UNCODED", 15, "mg", "PRN", "ORAL", 1.0, "SCREENING 1", -7, "SCREENING", "2013-05-07", "2012", "", -13, null, null], ["CDISCPILOT01", "CM", "01-701-1146", 8, "4", "MOTRIN", "UNCODED", "", "UNCODED", 1, "TABLET", "PRN", "ORAL", 2.0, "SCREENING 2", -1, "SCREENING", "2013-05-18", "1966", "", -2, null, null], ["CDISCPILOT01", "CM", "01-701-1146", 9, "6", "PREMARIN", "ESTROGENS CONJUGATED", "PROPHYLAXIS OR NON-THERAPEUTIC USE", "GENITO URINARY SYSTEM AND SEX HORMONES", 0, "mg", "QD", "ORAL", 2.0, "SCREENING 2", -1, "SCREENING", "2013-05-18", "1987", "", -2, null, null], ["CDISCPILOT01", "CM", "01-701-1146", 10, "7", "PROVERA", "UNCODED", "PROPHYLAXIS OR NON-THERAPEUTIC USE", "UNCODED", 2, "mg", "QD", "ORAL", 2.0, "SCREENING 2", -1, "SCREENING", "2013-05-18", "1987", "", -2, null, null], ["CDISCPILOT01", "CM", "01-701-1146", 11, "5", "MULTIVITAMIN", "UNCODED", "PROPHYLAXIS OR NON-THERAPEUTIC USE", "UNCODED", 1, "TABLET", "QD", "ORAL", 2.0, "SCREENING 2", -1, "SCREENING", "2013-05-18", "2006", "", -2, null, null], ["CDISCPILOT01", "CM", "01-701-1146", 12, "1", "BECONASE", "UNCODED", "", "UNCODED", 2, "TABLET", "PRN", "NASAL", 2.0, "SCREENING 2", -1, "SCREENING", "2013-05-18", "2008", "", -2, null, null], ["CDISCPILOT01", "CM", "01-701-1146", 13, "2", "DOCUSATE", "UNCODED", "", "UNCODED", 2, "TABLET", "QD", "ORAL", 2.0, "SCREENING 2", -1, "SCREENING", "2013-05-18", "2008", "", -2, null, null], ["CDISCPILOT01", "CM", "01-701-1146", 14, "3", "MINERALS NOS", "UNCODED", "", "UNCODED", 15, "mg", "PRN", "ORAL", 2.0, "SCREENING 2", -1, "SCREENING", "2013-05-18", "2012", "", -2, null, null], ["CDISCPILOT01", "CM", "01-701-1146", 15, "4", "MOTRIN", "UNCODED", "", "UNCODED", 1, "TABLET", "PRN", "ORAL", 3.0, "BASELINE", 1, "TREATMENT", "2013-05-20", "1966", "", 1, null, null], ["CDISCPILOT01", "CM", "01-701-1146", 16, "6", "PREMARIN", "ESTROGENS CONJUGATED", "PROPHYLAXIS OR NON-THERAPEUTIC USE", "GENITO URINARY SYSTEM AND SEX HORMONES", 0, "mg", "QD", "ORAL", 3.0, "BASELINE", 1, "TREATMENT", "2013-05-20", "1987", "", 1, null, null], ["CDISCPILOT01", "CM", "01-701-1146", 17, "7", "PROVERA", "UNCODED", "PROPHYLAXIS OR NON-THERAPEUTIC USE", "UNCODED", 2, "mg", "QD", "ORAL", 3.0, "BASELINE", 1, "TREATMENT", "2013-05-20", "1987", "", 1, null, null], ["CDISCPILOT01", "CM", "01-701-1146", 18, "5", "MULTIVITAMIN", "UNCODED", "PROPHYLAXIS OR NON-THERAPEUTIC USE", "UNCODED", 1, "TABLET", "QD", "ORAL", 3.0, "BASELINE", 1, "TREATMENT", "2013-05-20", "2006", "", 1, null, null], ["CDISCPILOT01", "CM", "01-701-1146", 19, "1", "BECONASE", "UNCODED", "", "UNCODED", 2, "TABLET", "PRN", "NASAL", 3.0, "BASELINE", 1, "TREATMENT", "2013-05-20", "2008", "", 1, null, null], ["CDISCPILOT01", "CM", "01-701-1146", 20, "2", "DOCUSATE", "UNCODED", "", "UNCODED", 2, "TABLET", "QD", "ORAL", 3.0, "BASELINE", 1, "TREATMENT", "2013-05-20", "2008", "", 1, null, null], ["CDISCPILOT01", "CM", "01-701-1146", 21, "3", "MINERALS NOS", "UNCODED", "", "UNCODED", 15, "mg", "PRN", "ORAL", 3.0, "BASELINE", 1, "TREATMENT", "2013-05-20", "2012", "", 1, null, null], ["CDISCPILOT01", "CM", "01-701-1146", 22, "4", "MOTRIN", "UNCODED", "", "UNCODED", 1, "TABLET", "PRN", "ORAL", 4.0, "WEEK 2", 14, "TREATMENT", "2013-06-03", "1966", "", 15, null, null], ["CDISCPILOT01", "CM", "01-701-1146", 23, "6", "PREMARIN", "ESTROGENS CONJUGATED", "PROPHYLAXIS OR NON-THERAPEUTIC USE", "GENITO URINARY SYSTEM AND SEX HORMONES", 0, "mg", "QD", "ORAL", 4.0, "WEEK 2", 14, "TREATMENT", "2013-06-03", "1987", "", 15, null, null], ["CDISCPILOT01", "CM", "01-701-1146", 24, "7", "PROVERA", "UNCODED", "PROPHYLAXIS OR NON-THERAPEUTIC USE", "UNCODED", 2, "mg", "QD", "ORAL", 4.0, "WEEK 2", 14, "TREATMENT", "2013-06-03", "1987", "", 15, null, null], ["CDISCPILOT01", "CM", "01-701-1146", 25, "5", "MULTIVITAMIN", "UNCODED", "PROPHYLAXIS OR NON-THERAPEUTIC USE", "UNCODED", 1, "TABLET", "QD", "ORAL", 4.0, "WEEK 2", 14, "TREATMENT", "2013-06-03", "2006", "", 15, null, null], ["CDISCPILOT01", "CM", "01-701-1146", 26, "1", "BECONASE", "UNCODED", "", "UNCODED", 2, "TABLET", "PRN", "NASAL", 4.0, "WEEK 2", 14, "TREATMENT", "2013-06-03", "2008", "", 15, null, null], ["CDISCPILOT01", "CM", "01-701-1146", 27, "2", "DOCUSATE", "UNCODED", "", "UNCODED", 2, "TABLET", "QD", "ORAL", 4.0, "WEEK 2", 14, "TREATMENT", "2013-06-03", "2008", "", 15, null, null], ["CDISCPILOT01", "CM", "01-701-1146", 28, "3", "MINERALS NOS", "UNCODED", "", "UNCODED", 15, "mg", "PRN", "ORAL", 4.0, "WEEK 2", 14, "TREATMENT", "2013-06-03", "2012", "", 15, null, null], ["CDISCPILOT01", "CM", "01-701-1146", 29, "8", "ADVIL", "UNCODED", "", "UNCODED", 2, "TABLET", "TID", "ORAL", 4.0, "WEEK 2", 14, "TREATMENT", "2013-06-03", "2013-05-21", "2013-05-22", 15, 2, 3], ["CDISCPILOT01", "CM", "01-701-1146", 30, "4", "MOTRIN", "UNCODED", "", "UNCODED", 1, "TABLET", "PRN", "ORAL", 5.0, "WEEK 4", 28, "TREATMENT", "2013-06-16", "1966", "", 28, null, null], ["CDISCPILOT01", "CM", "01-701-1146", 31, "6", "PREMARIN", "ESTROGENS CONJUGATED", "PROPHYLAXIS OR NON-THERAPEUTIC USE", "GENITO URINARY SYSTEM AND SEX HORMONES", 0, "mg", "QD", "ORAL", 5.0, "WEEK 4", 28, "TREATMENT", "2013-06-16", "1987", "", 28, null, null], ["CDISCPILOT01", "CM", "01-701-1146", 32, "7", "PROVERA", "UNCODED", "PROPHYLAXIS OR NON-THERAPEUTIC USE", "UNCODED", 2, "mg", "QD", "ORAL", 5.0, "WEEK 4", 28, "TREATMENT", "2013-06-16", "1987", "", 28, null, null], ["CDISCPILOT01", "CM", "01-701-1146", 33, "5", "MULTIVITAMIN", "UNCODED", "PROPHYLAXIS OR NON-THERAPEUTIC USE", "UNCODED", 1, "TABLET", "QD", "ORAL", 5.0, "WEEK 4", 28, "TREATMENT", "2013-06-16", "2006", "", 28, null, null], ["CDISCPILOT01", "CM", "01-701-1146", 34, "1", "BECONASE", "UNCODED", "", "UNCODED", 2, "TABLET", "PRN", "NASAL", 5.0, "WEEK 4", 28, "TREATMENT", "2013-06-16", "2008", "", 28, null, null], ["CDISCPILOT01", "CM", "01-701-1146", 35, "2", "DOCUSATE", "UNCODED", "", "UNCODED", 2, "TABLET", "QD", "ORAL", 5.0, "WEEK 4", 28, "TREATMENT", "2013-06-16", "2008", "", 28, null, null], ["CDISCPILOT01", "CM", "01-701-1146", 36, "3", "MINERALS NOS", "UNCODED", "", "UNCODED", 15, "mg", "PRN", "ORAL", 5.0, "WEEK 4", 28, "TREATMENT", "2013-06-16", "2012", "", 28, null, null], ["CDISCPILOT01", "CM", "01-701-1146", 37, "9", "HYDROCORTISONE, TOPICAL", "UNCODED", "", "UNCODED", 1, "TABLET", "PRN", "TOPICAL", 5.0, "WEEK 4", 28, "TREATMENT", "2013-06-16", "2013-06-12", "", 28, 24, null], ["CDISCPILOT01", "CM", "01-701-1146", 38, "4", "MOTRIN", "UNCODED", "", "UNCODED", 1, "TABLET", "PRN", "ORAL", 6.0, "AMBUL ECG REMOVAL", 30, "TREATMENT", "2013-06-18", "1966", "", 30, null, null], ["CDISCPILOT01", "CM", "01-701-1146", 39, "6", "PREMARIN", "ESTROGENS CONJUGATED", "PROPHYLAXIS OR NON-THERAPEUTIC USE", "GENITO URINARY SYSTEM AND SEX HORMONES", 0, "mg", "QD", "ORAL", 6.0, "AMBUL ECG REMOVAL", 30, "TREATMENT", "2013-06-18", "1987", "", 30, null, null], ["CDISCPILOT01", "CM", "01-701-1146", 40, "7", "PROVERA", "UNCODED", "PROPHYLAXIS OR NON-THERAPEUTIC USE", "UNCODED", 2, "mg", "QD", "ORAL", 6.0, "AMBUL ECG REMOVAL", 30, "TREATMENT", "2013-06-18", "1987", "", 30, null, null], ["CDISCPILOT01", "CM", "01-701-1146", 41, "5", "MULTIVITAMIN", "UNCODED", "PROPHYLAXIS OR NON-THERAPEUTIC USE", "UNCODED", 1, "TABLET", "QD", "ORAL", 6.0, "AMBUL ECG REMOVAL", 30, "TREATMENT", "2013-06-18", "2006", "", 30, null, null], ["CDISCPILOT01", "CM", "01-701-1146", 42, "1", "BECONASE", "UNCODED", "", "UNCODED", 2, "TABLET", "PRN", "NASAL", 6.0, "AMBUL ECG REMOVAL", 30, "TREATMENT", "2013-06-18", "2008", "", 30, null, null], ["CDISCPILOT01", "CM", "01-701-1146", 43, "2", "DOCUSATE", "UNCODED", "", "UNCODED", 2, "TABLET", "QD", "ORAL", 6.0, "AMBUL ECG REMOVAL", 30, "TREATMENT", "2013-06-18", "2008", "", 30, null, null], ["CDISCPILOT01", "CM", "01-701-1146", 44, "3", "MINERALS NOS", "UNCODED", "", "UNCODED", 15, "mg", "PRN", "ORAL", 6.0, "AMBUL ECG REMOVAL", 30, "TREATMENT", "2013-06-18", "2012", "", 30, null, null], ["CDISCPILOT01", "CM", "01-701-1146", 45, "9", "HYDROCORTISONE, TOPICAL", "UNCODED", "", "UNCODED", 1, "TABLET", "PRN", "TOPICAL", 6.0, "AMBUL ECG REMOVAL", 30, "TREATMENT", "2013-06-18", "2013-06-12", "", 30, 24, null], ["CDISCPILOT01", "CM", "01-701-1146", 46, "4", "MOTRIN", "UNCODED", "", "UNCODED", 1, "TABLET", "PRN", "ORAL", 7.0, "WEEK 6", 42, "TREATMENT", "2013-06-30", "1966", "", 42, null, null], ["CDISCPILOT01", "CM", "01-701-1146", 47, "6", "PREMARIN", "ESTROGENS CONJUGATED", "PROPHYLAXIS OR NON-THERAPEUTIC USE", "GENITO URINARY SYSTEM AND SEX HORMONES", 0, "mg", "QD", "ORAL", 7.0, "WEEK 6", 42, "TREATMENT", "2013-06-30", "1987", "", 42, null, null], ["CDISCPILOT01", "CM", "01-701-1146", 48, "7", "PROVERA", "UNCODED", "PROPHYLAXIS OR NON-THERAPEUTIC USE", "UNCODED", 2, "mg", "QD", "ORAL", 7.0, "WEEK 6", 42, "TREATMENT", "2013-06-30", "1987", "", 42, null, null], ["CDISCPILOT01", "CM", "01-701-1146", 49, "5", "MULTIVITAMIN", "UNCODED", "PROPHYLAXIS OR NON-THERAPEUTIC USE", "UNCODED", 1, "TABLET", "QD", "ORAL", 7.0, "WEEK 6", 42, "TREATMENT", "2013-06-30", "2006", "", 42, null, null], ["CDISCPILOT01", "CM", "01-701-1146", 50, "1", "BECONASE", "UNCODED", "", "UNCODED", 2, "TABLET", "PRN", "NASAL", 7.0, "WEEK 6", 42, "TREATMENT", "2013-06-30", "2008", "", 42, null, null], ["CDISCPILOT01", "CM", "01-701-1146", 51, "2", "DOCUSATE", "UNCODED", "", "UNCODED", 2, "TABLET", "QD", "ORAL", 7.0, "WEEK 6", 42, "TREATMENT", "2013-06-30", "2008", "", 42, null, null], ["CDISCPILOT01", "CM", "01-701-1146", 52, "3", "MINERALS NOS", "UNCODED", "", "UNCODED", 15, "mg", "PRN", "ORAL", 7.0, "WEEK 6", 42, "TREATMENT", "2013-06-30", "2012", "", 42, null, null], ["CDISCPILOT01", "CM", "01-701-1146", 53, "9", "HYDROCORTISONE, TOPICAL", "UNCODED", "", "UNCODED", 1, "TABLET", "PRN", "TOPICAL", 7.0, "WEEK 6", 42, "TREATMENT", "2013-06-30", "2013-06-12", "", 42, 24, null], ["CDISCPILOT01", "CM", "01-701-1146", 54, "4", "MOTRIN", "UNCODED", "", "UNCODED", 1, "TABLET", "PRN", "ORAL", 101.0, "AE FOLLOW-UP", null, "SCREENING", "2013-07-15", "1966", "", 57, null, null], ["CDISCPILOT01", "CM", "01-701-1146", 55, "6", "PREMARIN", "ESTROGENS CONJUGATED", "PROPHYLAXIS OR NON-THERAPEUTIC USE", "GENITO URINARY SYSTEM AND SEX HORMONES", 0, "mg", "QD", "ORAL", 101.0, "AE FOLLOW-UP", null, "SCREENING", "2013-07-15", "1987", "", 57, null, null], ["CDISCPILOT01", "CM", "01-701-1146", 56, "7", "PROVERA", "UNCODED", "PROPHYLAXIS OR NON-THERAPEUTIC USE", "UNCODED", 2, "mg", "QD", "ORAL", 101.0, "AE FOLLOW-UP", null, "SCREENING", "2013-07-15", "1987", "", 57, null, null], ["CDISCPILOT01", "CM", "01-701-1146", 57, "5", "MULTIVITAMIN", "UNCODED", "PROPHYLAXIS OR NON-THERAPEUTIC USE", "UNCODED", 1, "TABLET", "QD", "ORAL", 101.0, "AE FOLLOW-UP", null, "SCREENING", "2013-07-15", "2006", "", 57, null, null], ["CDISCPILOT01", "CM", "01-701-1146", 58, "1", "BECONASE", "UNCODED", "", "UNCODED", 2, "TABLET", "PRN", "NASAL", 101.0, "AE FOLLOW-UP", null, "SCREENING", "2013-07-15", "2008", "", 57, null, null], ["CDISCPILOT01", "CM", "01-701-1146", 59, "2", "DOCUSATE", "UNCODED", "", "UNCODED", 2, "TABLET", "QD", "ORAL", 101.0, "AE FOLLOW-UP", null, "SCREENING", "2013-07-15", "2008", "", 57, null, null], ["CDISCPILOT01", "CM", "01-701-1146", 60, "3", "MINERALS NOS", "UNCODED", "", "UNCODED", 15, "mg", "PRN", "ORAL", 101.0, "AE FOLLOW-UP", null, "SCREENING", "2013-07-15", "2012", "", 57, null, null], ["CDISCPILOT01", "CM", "01-701-1146", 61, "9", "HYDROCORTISONE, TOPICAL", "UNCODED", "", "UNCODED", 1, "TABLET", "PRN", "TOPICAL", 101.0, "AE FOLLOW-UP", null, "SCREENING", "2013-07-15", "2013-06-12", "", 57, 24, null], ["CDISCPILOT01", "CM", "01-701-1148", 1, "2", "TYLENOL", "UNCODED", "", "UNCODED", 1000, "mg", "PRN", "ORAL", 1.0, "SCREENING 1", -7, "SCREENING", "2013-08-14", "2006", "", -9, null, null], ["CDISCPILOT01", "CM", "01-701-1148", 2, "1", "TUMS", "UNCODED", "", "UNCODED", 2, "TABLET", "PRN", "ORAL", 1.0, "SCREENING 1", -7, "SCREENING", "2013-08-14", "2011", "", -9, null, null], ["CDISCPILOT01", "CM", "01-701-1148", 3, "2", "TYLENOL", "UNCODED", "", "UNCODED", 1000, "mg", "PRN", "ORAL", 2.0, "SCREENING 2", -1, "SCREENING", "2013-08-21", "2006", "", -2, null, null], ["CDISCPILOT01", "CM", "01-701-1148", 4, "1", "TUMS", "UNCODED", "", "UNCODED", 2, "TABLET", "PRN", "ORAL", 2.0, "SCREENING 2", -1, "SCREENING", "2013-08-21", "2011", "", -2, null, null], ["CDISCPILOT01", "CM", "01-701-1148", 5, "2", "TYLENOL", "UNCODED", "", "UNCODED", 1000, "mg", "PRN", "ORAL", 3.0, "BASELINE", 1, "TREATMENT", "2013-08-23", "2006", "", 1, null, null], ["CDISCPILOT01", "CM", "01-701-1148", 6, "1", "TUMS", "UNCODED", "", "UNCODED", 2, "TABLET", "PRN", "ORAL", 3.0, "BASELINE", 1, "TREATMENT", "2013-08-23", "2011", "", 1, null, null], ["CDISCPILOT01", "CM", "01-701-1148", 7, "2", "TYLENOL", "UNCODED", "", "UNCODED", 1000, "mg", "PRN", "ORAL", 4.0, "WEEK 2", 14, "TREATMENT", "2013-09-05", "2006", "", 14, null, null], ["CDISCPILOT01", "CM", "01-701-1148", 8, "1", "TUMS", "UNCODED", "", "UNCODED", 2, "TABLET", "PRN", "ORAL", 4.0, "WEEK 2", 14, "TREATMENT", "2013-09-05", "2011", "", 14, null, null], ["CDISCPILOT01", "CM", "01-701-1148", 9, "2", "TYLENOL", "UNCODED", "", "UNCODED", 1000, "mg", "PRN", "ORAL", 5.0, "WEEK 4", 28, "TREATMENT", "2013-09-19", "2006", "", 28, null, null], ["CDISCPILOT01", "CM", "01-701-1148", 10, "1", "TUMS", "UNCODED", "", "UNCODED", 2, "TABLET", "PRN", "ORAL", 5.0, "WEEK 4", 28, "TREATMENT", "2013-09-19", "2011", "", 28, null, null], ["CDISCPILOT01", "CM", "01-701-1148", 11, "2", "TYLENOL", "UNCODED", "", "UNCODED", 1000, "mg", "PRN", "ORAL", 6.0, "AMBUL ECG REMOVAL", 30, "TREATMENT", "2013-09-21", "2006", "", 30, null, null], ["CDISCPILOT01", "CM", "01-701-1148", 12, "1", "TUMS", "UNCODED", "", "UNCODED", 2, "TABLET", "PRN", "ORAL", 6.0, "AMBUL ECG REMOVAL", 30, "TREATMENT", "2013-09-21", "2011", "", 30, null, null], ["CDISCPILOT01", "CM", "01-701-1148", 13, "2", "TYLENOL", "UNCODED", "", "UNCODED", 1000, "mg", "PRN", "ORAL", 7.0, "WEEK 6", 42, "TREATMENT", "2013-10-03", "2006", "", 42, null, null], ["CDISCPILOT01", "CM", "01-701-1148", 14, "1", "TUMS", "UNCODED", "", "UNCODED", 2, "TABLET", "PRN", "ORAL", 7.0, "WEEK 6", 42, "TREATMENT", "2013-10-03", "2011", "", 42, null, null], ["CDISCPILOT01", "CM", "01-701-1148", 15, "2", "TYLENOL", "UNCODED", "", "UNCODED", 1000, "mg", "PRN", "ORAL", 8.0, "WEEK 8", 56, "TREATMENT", "2013-10-18", "2006", "", 57, null, null], ["CDISCPILOT01", "CM", "01-701-1148", 16, "1", "TUMS", "UNCODED", "", "UNCODED", 2, "TABLET", "PRN", "ORAL", 8.0, "WEEK 8", 56, "TREATMENT", "2013-10-18", "2011", "", 57, null, null], ["CDISCPILOT01", "CM", "01-701-1148", 17, "2", "TYLENOL", "UNCODED", "", "UNCODED", 1000, "mg", "PRN", "ORAL", 9.0, "WEEK 12", 84, "TREATMENT", "2013-11-17", "2006", "", 87, null, null], ["CDISCPILOT01", "CM", "01-701-1148", 18, "1", "TUMS", "UNCODED", "", "UNCODED", 2, "TABLET", "PRN", "ORAL", 9.0, "WEEK 12", 84, "TREATMENT", "2013-11-17", "2011", "", 87, null, null], ["CDISCPILOT01", "CM", "01-701-1148", 19, "3", "SULFAMETHOXAZOLE", "UNCODED", "", "UNCODED", 1, "TABLET", "BID", "ORAL", 9.0, "WEEK 12", 84, "TREATMENT", "2013-11-17", "2013-10-28", "2013-11-16", 87, 67, 86], ["CDISCPILOT01", "CM", "01-701-1148", 20, "2", "TYLENOL", "UNCODED", "", "UNCODED", 1000, "mg", "PRN", "ORAL", 10.0, "WEEK 16", 112, "TREATMENT", "2013-12-13", "2006", "", 113, null, null], ["CDISCPILOT01", "CM", "01-701-1148", 21, "1", "TUMS", "UNCODED", "", "UNCODED", 2, "TABLET", "PRN", "ORAL", 10.0, "WEEK 16", 112, "TREATMENT", "2013-12-13", "2011", "", 113, null, null], ["CDISCPILOT01", "CM", "01-701-1148", 22, "4", "HYDROCORTISONE", "HYDROCORTISONE", "", "SYSTEMIC HORMONAL PREPARATIONS, EXCL.", 1, "TABLET", "PRN", "TOPICAL", 10.0, "WEEK 16", 112, "TREATMENT", "2013-12-13", "2013-11-18", "", 113, 88, null], ["CDISCPILOT01", "CM", "01-701-1148", 23, "2", "TYLENOL", "UNCODED", "", "UNCODED", 1000, "mg", "PRN", "ORAL", 11.0, "WEEK 20", 140, "TREATMENT", "2014-01-10", "2006", "", 141, null, null], ["CDISCPILOT01", "CM", "01-701-1148", 24, "1", "TUMS", "UNCODED", "", "UNCODED", 2, "TABLET", "PRN", "ORAL", 11.0, "WEEK 20", 140, "TREATMENT", "2014-01-10", "2011", "", 141, null, null], ["CDISCPILOT01", "CM", "01-701-1148", 25, "4", "HYDROCORTISONE", "HYDROCORTISONE", "", "SYSTEMIC HORMONAL PREPARATIONS, EXCL.", 1, "TABLET", "PRN", "TOPICAL", 11.0, "WEEK 20", 140, "TREATMENT", "2014-01-10", "2013-11-18", "", 141, 88, null], ["CDISCPILOT01", "CM", "01-701-1148", 26, "5", "HYDROCODONE W/APAP", "UNCODED", "", "UNCODED", 500, "mg", "Q4H", "ORAL", 11.0, "WEEK 20", 140, "TREATMENT", "2014-01-10", "2013-12-16", "2013-12-17", 141, 116, 117], ["CDISCPILOT01", "CM", "01-701-1148", 27, "6", "NAPROXEN", "UNCODED", "", "UNCODED", 375, "mg", "BID", "ORAL", 11.0, "WEEK 20", 140, "TREATMENT", "2014-01-10", "2013-12-16", "2013-12-17", 141, 116, 117], ["CDISCPILOT01", "CM", "01-701-1148", 28, "2", "TYLENOL", "UNCODED", "", "UNCODED", 1000, "mg", "PRN", "ORAL", 12.0, "WEEK 24", 168, "TREATMENT", "2014-02-08", "2006", "", 170, null, null], ["CDISCPILOT01", "CM", "01-701-1148", 29, "1", "TUMS", "UNCODED", "", "UNCODED", 2, "TABLET", "PRN", "ORAL", 12.0, "WEEK 24", 168, "TREATMENT", "2014-02-08", "2011", "", 170, null, null], ["CDISCPILOT01", "CM", "01-701-1148", 30, "4", "HYDROCORTISONE", "HYDROCORTISONE", "", "SYSTEMIC HORMONAL PREPARATIONS, EXCL.", 1, "TABLET", "PRN", "TOPICAL", 12.0, "WEEK 24", 168, "TREATMENT", "2014-02-08", "2013-11-18", "", 170, 88, null], ["CDISCPILOT01", "CM", "01-701-1148", 31, "7", "CIMETIDINE", "UNCODED", "", "UNCODED", 400, "mg", "BID", "ORAL", 12.0, "WEEK 24", 168, "TREATMENT", "2014-02-08", "2014-01-25", "2014-02-08", 170, 156, 170], ["CDISCPILOT01", "CM", "01-701-1148", 32, "2", "TYLENOL", "UNCODED", "", "UNCODED", 1000, "mg", "PRN", "ORAL", 13.0, "WEEK 26", 182, "TREATMENT", "2014-02-20", "2006", "", 182, null, null], ["CDISCPILOT01", "CM", "01-701-1148", 33, "1", "TUMS", "UNCODED", "", "UNCODED", 2, "TABLET", "PRN", "ORAL", 13.0, "WEEK 26", 182, "TREATMENT", "2014-02-20", "2011", "", 182, null, null], ["CDISCPILOT01", "CM", "01-701-1148", 34, "4", "HYDROCORTISONE", "HYDROCORTISONE", "", "SYSTEMIC HORMONAL PREPARATIONS, EXCL.", 1, "TABLET", "PRN", "TOPICAL", 13.0, "WEEK 26", 182, "TREATMENT", "2014-02-20", "2013-11-18", "", 182, 88, null], ["CDISCPILOT01", "CM", "01-701-1148", 35, "7", "CIMETIDINE", "UNCODED", "", "UNCODED", 400, "mg", "BID", "ORAL", 13.0, "WEEK 26", 182, "TREATMENT", "2014-02-20", "2014-01-25", "2014-02-08", 182, 156, 170], ["CDISCPILOT01", "CM", "01-701-1148", 36, "8", "FLUOROPLEX", "UNCODED", "", "UNCODED", 1, "TABLET", "BID", "TOPICAL", 13.0, "WEEK 26", 182, "TREATMENT", "2014-02-20", "2014-02-12", "", 182, 174, null], ["CDISCPILOT01", "CM", "01-701-1153", 1, "1", "TYLENOL", "UNCODED", "", "UNCODED", 650, "mg", "PRN", "ORAL", 1.0, "SCREENING 1", -7, "SCREENING", "2013-09-06", "2011", "", -17, null, null], ["CDISCPILOT01", "CM", "01-701-1153", 2, "1", "TYLENOL", "UNCODED", "", "UNCODED", 650, "mg", "PRN", "ORAL", 2.0, "SCREENING 2", -1, "SCREENING", "2013-09-18", "2011", "", -5, null, null], ["CDISCPILOT01", "CM", "01-701-1153", 3, "1", "TYLENOL", "UNCODED", "", "UNCODED", 650, "mg", "PRN", "ORAL", 3.0, "BASELINE", 1, "TREATMENT", "2013-09-23", "2011", "", 1, null, null], ["CDISCPILOT01", "CM", "01-701-1153", 4, "1", "TYLENOL", "UNCODED", "", "UNCODED", 650, "mg", "PRN", "ORAL", 4.0, "WEEK 2", 14, "TREATMENT", "2013-10-08", "2011", "", 16, null, null], ["CDISCPILOT01", "CM", "01-701-1153", 5, "1", "TYLENOL", "UNCODED", "", "UNCODED", 650, "mg", "PRN", "ORAL", 5.0, "WEEK 4", 28, "TREATMENT", "2013-10-19", "2011", "", 27, null, null], ["CDISCPILOT01", "CM", "01-701-1153", 6, "1", "TYLENOL", "UNCODED", "", "UNCODED", 650, "mg", "PRN", "ORAL", 6.0, "AMBUL ECG REMOVAL", 30, "TREATMENT", "2013-10-28", "2011", "", 36, null, null], ["CDISCPILOT01", "CM", "01-701-1153", 7, "1", "TYLENOL", "UNCODED", "", "UNCODED", 650, "mg", "PRN", "ORAL", 7.0, "WEEK 6", 42, "TREATMENT", "2013-11-04", "2011", "", 43, null, null], ["CDISCPILOT01", "CM", "01-701-1153", 8, "1", "TYLENOL", "UNCODED", "", "UNCODED", 650, "mg", "PRN", "ORAL", 8.0, "WEEK 8", 56, "TREATMENT", "2013-11-18", "2011", "", 57, null, null], ["CDISCPILOT01", "CM", "01-701-1153", 9, "1", "TYLENOL", "UNCODED", "", "UNCODED", 650, "mg", "PRN", "ORAL", 9.0, "WEEK 12", 84, "TREATMENT", "2013-12-16", "2011", "", 85, null, null], ["CDISCPILOT01", "CM", "01-701-1153", 10, "1", "TYLENOL", "UNCODED", "", "UNCODED", 650, "mg", "PRN", "ORAL", 10.0, "WEEK 16", 112, "TREATMENT", "2014-01-08", "2011", "", 108, null, null], ["CDISCPILOT01", "CM", "01-701-1153", 11, "1", "TYLENOL", "UNCODED", "", "UNCODED", 650, "mg", "PRN", "ORAL", 11.0, "WEEK 20", 140, "TREATMENT", "2014-02-11", "2011", "", 142, null, null], ["CDISCPILOT01", "CM", "01-701-1153", 12, "1", "TYLENOL", "UNCODED", "", "UNCODED", 650, "mg", "PRN", "ORAL", 12.0, "WEEK 24", 168, "TREATMENT", "2014-03-11", "2011", "", 170, null, null], ["CDISCPILOT01", "CM", "01-701-1153", 13, "1", "TYLENOL", "UNCODED", "", "UNCODED", 650, "mg", "PRN", "ORAL", 13.0, "WEEK 26", 182, "TREATMENT", "2014-04-01", "2011", "", 191, null, null], ["CDISCPILOT01", "CM", "01-701-1180", 1, "1", "CENTRUM", "UNCODED", "PROPHYLAXIS OR NON-THERAPEUTIC USE", "UNCODED", 1, "TABLET", "QD", "ORAL", 1.0, "SCREENING 1", -7, "SCREENING", "2013-01-28", "2006", "", -15, null, null], ["CDISCPILOT01", "CM", "01-701-1180", 2, "1", "CENTRUM", "UNCODED", "PROPHYLAXIS OR NON-THERAPEUTIC USE", "UNCODED", 1, "TABLET", "QD", "ORAL", 2.0, "SCREENING 2", -1, "SCREENING", "2013-02-10", "2006", "", -2, null, null], ["CDISCPILOT01", "CM", "01-701-1180", 3, "1", "CENTRUM", "UNCODED", "PROPHYLAXIS OR NON-THERAPEUTIC USE", "UNCODED", 1, "TABLET", "QD", "ORAL", 3.0, "BASELINE", 1, "TREATMENT", "2013-02-12", "2006", "", 1, null, null], ["CDISCPILOT01", "CM", "01-701-1180", 4, "1", "CENTRUM", "UNCODED", "PROPHYLAXIS OR NON-THERAPEUTIC USE", "UNCODED", 1, "TABLET", "QD", "ORAL", 4.0, "WEEK 2", 14, "TREATMENT", "2013-02-25", "2006", "", 14, null, null], ["CDISCPILOT01", "CM", "01-701-1180", 5, "1", "CENTRUM", "UNCODED", "PROPHYLAXIS OR NON-THERAPEUTIC USE", "UNCODED", 1, "TABLET", "QD", "ORAL", 5.0, "WEEK 4", 28, "TREATMENT", "2013-03-11", "2006", "", 28, null, null], ["CDISCPILOT01", "CM", "01-701-1180", 6, "2", "ASPIRIN", "ACETYLSALICYLIC ACID", "", "NERVOUS SYSTEM", 2, "TABLET", "QD", "ORAL", 5.0, "WEEK 4", 28, "TREATMENT", "2013-03-11", "2013-03-03", "2013-03-09", 28, 20, 26], ["CDISCPILOT01", "CM", "01-701-1180", 7, "3", "SUDAFED", "UNCODED", "", "UNCODED", 2, "TABLET", "QD", "ORAL", 5.0, "WEEK 4", 28, "TREATMENT", "2013-03-11", "2013-03-06", "2013-03-07", 28, 23, 24], ["CDISCPILOT01", "CM", "01-701-1180", 8, "1", "CENTRUM", "UNCODED", "PROPHYLAXIS OR NON-THERAPEUTIC USE", "UNCODED", 1, "TABLET", "QD", "ORAL", 6.0, "AMBUL ECG REMOVAL", 30, "TREATMENT", "2013-03-13", "2006", "", 30, null, null], ["CDISCPILOT01", "CM", "01-701-1180", 9, "1", "CENTRUM", "UNCODED", "PROPHYLAXIS OR NON-THERAPEUTIC USE", "UNCODED", 1, "TABLET", "QD", "ORAL", 7.0, "WEEK 6", 42, "TREATMENT", "2013-03-23", "2006", "", 40, null, null], ["CDISCPILOT01", "CM", "01-701-1180", 10, "4", "ALOES", "UNCODED", "PROPHYLAXIS OR NON-THERAPEUTIC USE", "UNCODED", 1, "TABLET", "QD", "TOPICAL", 7.0, "WEEK 6", 42, "TREATMENT", "2013-03-23", "2013-03-19", "2013-03-19", 40, 36, 36], ["CDISCPILOT01", "CM", "01-701-1180", 11, "5", "WESTCORT", "UNCODED", "PROPHYLAXIS OR NON-THERAPEUTIC USE", "UNCODED", 1, "TABLET", "BID", "TOPICAL", 7.0, "WEEK 6", 42, "TREATMENT", "2013-03-23", "2013-03-19", "2013-03-21", 40, 36, 38], ["CDISCPILOT01", "CM", "01-701-1180", 12, "1", "CENTRUM", "UNCODED", "PROPHYLAXIS OR NON-THERAPEUTIC USE", "UNCODED", 1, "TABLET", "QD", "ORAL", 101.0, "AE FOLLOW-UP", null, "SCREENING", "2013-04-07", "2006", "", 55, null, null], ["CDISCPILOT01", "CM", "01-701-1180", 13, "10", "NEOSPORIN /USA/", "UNCODED", "", "UNCODED", 1, "TABLET", "PRN", "TOPICAL", 101.0, "AE FOLLOW-UP", null, "SCREENING", "2013-04-07", "2013-03-24", "2013-03-24", 55, 41, 41], ["CDISCPILOT01", "CM", "01-701-1180", 14, "7", "HISMANAL", "UNCODED", "", "UNCODED", 10, "mg", "QD", "ORAL", 101.0, "AE FOLLOW-UP", null, "SCREENING", "2013-04-07", "2013-03-25", "", 55, 42, null], ["CDISCPILOT01", "CM", "01-701-1180", 15, "6", "DHEA", "UNCODED", "PROPHYLAXIS OR NON-THERAPEUTIC USE", "UNCODED", 25, "mg", "QD", "ORAL", 101.0, "AE FOLLOW-UP", null, "SCREENING", "2013-04-07", "2013-03-27", "2013-03-30", 55, 44, 47], ["CDISCPILOT01", "CM", "01-701-1180", 16, "9", "MELATONIN", "UNCODED", "", "UNCODED", 2, "TABLET", "QD", "ORAL", 101.0, "AE FOLLOW-UP", null, "SCREENING", "2013-04-07", "2013-03-27", "2013-03-30", 55, 44, 47], ["CDISCPILOT01", "CM", "01-701-1180", 17, "8", "MEDROL DOSEPAK", "UNCODED", "", "UNCODED", 4, "mg", "PRN", "ORAL", 101.0, "AE FOLLOW-UP", null, "SCREENING", "2013-04-07", "2013-03-30", "", 55, 47, null], ["CDISCPILOT01", "CM", "01-701-1181", 1, "1", "CALCIUM MAGNESIUM", "UNCODED", "PROPHYLAXIS OR NON-THERAPEUTIC USE", "UNCODED", 1, "TABLET", "QD", "ORAL", 1.0, "SCREENING 1", -7, "SCREENING", "2013-11-26", "1985", "", -9, null, null], ["CDISCPILOT01", "CM", "01-701-1181", 2, "2", "POTASSIUM", "UNCODED", "PROPHYLAXIS OR NON-THERAPEUTIC USE", "UNCODED", 1, "TABLET", "QD", "ORAL", 1.0, "SCREENING 1", -7, "SCREENING", "2013-11-26", "1985", "", -9, null, null], ["CDISCPILOT01", "CM", "01-701-1181", 3, "4", "VITAMIN C", "UNCODED", "PROPHYLAXIS OR NON-THERAPEUTIC USE", "UNCODED", 1, "TABLET", "QD", "ORAL", 1.0, "SCREENING 1", -7, "SCREENING", "2013-11-26", "1985", "", -9, null, null], ["CDISCPILOT01", "CM", "01-701-1181", 4, "3", "TYLENOL", "UNCODED", "", "UNCODED", 500, "mg", "PRN", "ORAL", 1.0, "SCREENING 1", -7, "SCREENING", "2013-11-26", "2005", "", -9, null, null], ["CDISCPILOT01", "CM", "01-701-1181", 5, "5", "VITAMIN E", "UNCODED", "PROPHYLAXIS OR NON-THERAPEUTIC USE", "UNCODED", 1, "TABLET", "QD", "ORAL", 1.0, "SCREENING 1", -7, "SCREENING", "2013-11-26", "2012-06-04", "", -9, -549, null], ["CDISCPILOT01", "CM", "01-701-1181", 6, "1", "CALCIUM MAGNESIUM", "UNCODED", "PROPHYLAXIS OR NON-THERAPEUTIC USE", "UNCODED", 1, "TABLET", "QD", "ORAL", 2.0, "SCREENING 2", -1, "SCREENING", "2013-12-03", "1985", "", -2, null, null], ["CDISCPILOT01", "CM", "01-701-1181", 7, "2", "POTASSIUM", "UNCODED", "PROPHYLAXIS OR NON-THERAPEUTIC USE", "UNCODED", 1, "TABLET", "QD", "ORAL", 2.0, "SCREENING 2", -1, "SCREENING", "2013-12-03", "1985", "", -2, null, null], ["CDISCPILOT01", "CM", "01-701-1181", 8, "4", "VITAMIN C", "UNCODED", "PROPHYLAXIS OR NON-THERAPEUTIC USE", "UNCODED", 1, "TABLET", "QD", "ORAL", 2.0, "SCREENING 2", -1, "SCREENING", "2013-12-03", "1985", "", -2, null, null], ["CDISCPILOT01", "CM", "01-701-1181", 9, "3", "TYLENOL", "UNCODED", "", "UNCODED", 500, "mg", "PRN", "ORAL", 2.0, "SCREENING 2", -1, "SCREENING", "2013-12-03", "2005", "", -2, null, null], ["CDISCPILOT01", "CM", "01-701-1181", 10, "5", "VITAMIN E", "UNCODED", "PROPHYLAXIS OR NON-THERAPEUTIC USE", "UNCODED", 1, "TABLET", "QD", "ORAL", 2.0, "SCREENING 2", -1, "SCREENING", "2013-12-03", "2012-06-04", "", -2, -549, null], ["CDISCPILOT01", "CM", "01-701-1181", 11, "1", "CALCIUM MAGNESIUM", "UNCODED", "PROPHYLAXIS OR NON-THERAPEUTIC USE", "UNCODED", 1, "TABLET", "QD", "ORAL", 3.0, "BASELINE", 1, "TREATMENT", "2013-12-05", "1985", "", 1, null, null], ["CDISCPILOT01", "CM", "01-701-1181", 12, "2", "POTASSIUM", "UNCODED", "PROPHYLAXIS OR NON-THERAPEUTIC USE", "UNCODED", 1, "TABLET", "QD", "ORAL", 3.0, "BASELINE", 1, "TREATMENT", "2013-12-05", "1985", "", 1, null, null], ["CDISCPILOT01", "CM", "01-701-1181", 13, "4", "VITAMIN C", "UNCODED", "PROPHYLAXIS OR NON-THERAPEUTIC USE", "UNCODED", 1, "TABLET", "QD", "ORAL", 3.0, "BASELINE", 1, "TREATMENT", "2013-12-05", "1985", "", 1, null, null], ["CDISCPILOT01", "CM", "01-701-1181", 14, "3", "TYLENOL", "UNCODED", "", "UNCODED", 500, "mg", "PRN", "ORAL", 3.0, "BASELINE", 1, "TREATMENT", "2013-12-05", "2005", "", 1, null, null], ["CDISCPILOT01", "CM", "01-701-1181", 15, "5", "VITAMIN E", "UNCODED", "PROPHYLAXIS OR NON-THERAPEUTIC USE", "UNCODED", 1, "TABLET", "QD", "ORAL", 3.0, "BASELINE", 1, "TREATMENT", "2013-12-05", "2012-06-04", "", 1, -549, null], ["CDISCPILOT01", "CM", "01-701-1181", 16, "1", "CALCIUM MAGNESIUM", "UNCODED", "PROPHYLAXIS OR NON-THERAPEUTIC USE", "UNCODED", 1, "TABLET", "QD", "ORAL", 4.0, "WEEK 2", 14, "TREATMENT", "2013-12-12", "1985", "", 8, null, null], ["CDISCPILOT01", "CM", "01-701-1181", 17, "2", "POTASSIUM", "UNCODED", "PROPHYLAXIS OR NON-THERAPEUTIC USE", "UNCODED", 1, "TABLET", "QD", "ORAL", 4.0, "WEEK 2", 14, "TREATMENT", "2013-12-12", "1985", "", 8, null, null], ["CDISCPILOT01", "CM", "01-701-1181", 18, "4", "VITAMIN C", "UNCODED", "PROPHYLAXIS OR NON-THERAPEUTIC USE", "UNCODED", 1, "TABLET", "QD", "ORAL", 4.0, "WEEK 2", 14, "TREATMENT", "2013-12-12", "1985", "", 8, null, null], ["CDISCPILOT01", "CM", "01-701-1181", 19, "3", "TYLENOL", "UNCODED", "", "UNCODED", 500, "mg", "PRN", "ORAL", 4.0, "WEEK 2", 14, "TREATMENT", "2013-12-12", "2005", "", 8, null, null], ["CDISCPILOT01", "CM", "01-701-1181", 20, "5", "VITAMIN E", "UNCODED", "PROPHYLAXIS OR NON-THERAPEUTIC USE", "UNCODED", 1, "TABLET", "QD", "ORAL", 4.0, "WEEK 2", 14, "TREATMENT", "2013-12-12", "2012-06-04", "", 8, -549, null], ["CDISCPILOT01", "CM", "01-701-1181", 21, "6", "MOTRIN", "UNCODED", "", "UNCODED", 200, "mg", "PRN", "ORAL", 4.0, "WEEK 2", 14, "TREATMENT", "2013-12-12", "2013-12-09", "2013-12-09", 8, 5, 5], ["CDISCPILOT01", "CM", "01-701-1181", 22, "1", "CALCIUM MAGNESIUM", "UNCODED", "PROPHYLAXIS OR NON-THERAPEUTIC USE", "UNCODED", 1, "TABLET", "QD", "ORAL", 101.0, "AE FOLLOW-UP", null, "SCREENING", "2013-12-20", "1985", "", 16, null, null], ["CDISCPILOT01", "CM", "01-701-1181", 23, "2", "POTASSIUM", "UNCODED", "PROPHYLAXIS OR NON-THERAPEUTIC USE", "UNCODED", 1, "TABLET", "QD", "ORAL", 101.0, "AE FOLLOW-UP", null, "SCREENING", "2013-12-20", "1985", "", 16, null, null], ["CDISCPILOT01", "CM", "01-701-1181", 24, "4", "VITAMIN C", "UNCODED", "PROPHYLAXIS OR NON-THERAPEUTIC USE", "UNCODED", 1, "TABLET", "QD", "ORAL", 101.0, "AE FOLLOW-UP", null, "SCREENING", "2013-12-20", "1985", "", 16, null, null], ["CDISCPILOT01", "CM", "01-701-1181", 25, "3", "TYLENOL", "UNCODED", "", "UNCODED", 500, "mg", "PRN", "ORAL", 101.0, "AE FOLLOW-UP", null, "SCREENING", "2013-12-20", "2005", "", 16, null, null], ["CDISCPILOT01", "CM", "01-701-1181", 26, "5", "VITAMIN E", "UNCODED", "PROPHYLAXIS OR NON-THERAPEUTIC USE", "UNCODED", 1, "TABLET", "QD", "ORAL", 101.0, "AE FOLLOW-UP", null, "SCREENING", "2013-12-20", "2012-06-04", "", 16, -549, null], ["CDISCPILOT01", "CM", "01-701-1181", 27, "1", "CALCIUM MAGNESIUM", "UNCODED", "PROPHYLAXIS OR NON-THERAPEUTIC USE", "UNCODED", 1, "TABLET", "QD", "ORAL", 201.0, "RETRIEVAL", 168, "TREATMENT", "2014-05-23", "1985", "", 170, null, null], ["CDISCPILOT01", "CM", "01-701-1181", 28, "2", "POTASSIUM", "UNCODED", "PROPHYLAXIS OR NON-THERAPEUTIC USE", "UNCODED", 1, "TABLET", "QD", "ORAL", 201.0, "RETRIEVAL", 168, "TREATMENT", "2014-05-23", "1985", "", 170, null, null], ["CDISCPILOT01", "CM", "01-701-1181", 29, "4", "VITAMIN C", "UNCODED", "PROPHYLAXIS OR NON-THERAPEUTIC USE", "UNCODED", 1, "TABLET", "QD", "ORAL", 201.0, "RETRIEVAL", 168, "TREATMENT", "2014-05-23", "1985", "", 170, null, null], ["CDISCPILOT01", "CM", "01-701-1181", 30, "3", "TYLENOL", "UNCODED", "", "UNCODED", 500, "mg", "PRN", "ORAL", 201.0, "RETRIEVAL", 168, "TREATMENT", "2014-05-23", "2005", "", 170, null, null], ["CDISCPILOT01", "CM", "01-701-1181", 31, "5", "VITAMIN E", "UNCODED", "PROPHYLAXIS OR NON-THERAPEUTIC USE", "UNCODED", 1, "TABLET", "QD", "ORAL", 201.0, "RETRIEVAL", 168, "TREATMENT", "2014-05-23", "2012-06-04", "", 170, -549, null], ["CDISCPILOT01", "CM", "01-701-1188", 1, "2", "MULTIVITAMINS", "UNCODED", "PROPHYLAXIS OR NON-THERAPEUTIC USE", "UNCODED", 1, "TABLET", "QD", "ORAL", 1.0, "SCREENING 1", -7, "SCREENING", "2013-02-03", "2002", "", -12, null, null], ["CDISCPILOT01", "CM", "01-701-1188", 2, "1", "ASPIRIN", "ACETYLSALICYLIC ACID", "PROPHYLAXIS OR NON-THERAPEUTIC USE", "NERVOUS SYSTEM", 1, "TABLET", "QD", "ORAL", 1.0, "SCREENING 1", -7, "SCREENING", "2013-02-03", "2006", "", -12, null, null], ["CDISCPILOT01", "CM", "01-701-1188", 3, "2", "MULTIVITAMINS", "UNCODED", "PROPHYLAXIS OR NON-THERAPEUTIC USE", "UNCODED", 1, "TABLET", "QD", "ORAL", 2.0, "SCREENING 2", -1, "SCREENING", "2013-02-10", "2002", "", -5, null, null], ["CDISCPILOT01", "CM", "01-701-1188", 4, "1", "ASPIRIN", "ACETYLSALICYLIC ACID", "PROPHYLAXIS OR NON-THERAPEUTIC USE", "NERVOUS SYSTEM", 1, "TABLET", "QD", "ORAL", 2.0, "SCREENING 2", -1, "SCREENING", "2013-02-10", "2006", "", -5, null, null], ["CDISCPILOT01", "CM", "01-701-1188", 5, "2", "MULTIVITAMINS", "UNCODED", "PROPHYLAXIS OR NON-THERAPEUTIC USE", "UNCODED", 1, "TABLET", "QD", "ORAL", 3.0, "BASELINE", 1, "TREATMENT", "2013-02-15", "2002", "", 1, null, null], ["CDISCPILOT01", "CM", "01-701-1188", 6, "1", "ASPIRIN", "ACETYLSALICYLIC ACID", "PROPHYLAXIS OR NON-THERAPEUTIC USE", "NERVOUS SYSTEM", 1, "TABLET", "QD", "ORAL", 3.0, "BASELINE", 1, "TREATMENT", "2013-02-15", "2006", "", 1, null, null], ["CDISCPILOT01", "CM", "01-701-1188", 7, "2", "MULTIVITAMINS", "UNCODED", "PROPHYLAXIS OR NON-THERAPEUTIC USE", "UNCODED", 1, "TABLET", "QD", "ORAL", 4.0, "WEEK 2", 14, "TREATMENT", "2013-03-02", "2002", "", 16, null, null], ["CDISCPILOT01", "CM", "01-701-1188", 8, "1", "ASPIRIN", "ACETYLSALICYLIC ACID", "PROPHYLAXIS OR NON-THERAPEUTIC USE", "NERVOUS SYSTEM", 1, "TABLET", "QD", "ORAL", 4.0, "WEEK 2", 14, "TREATMENT", "2013-03-02", "2006", "", 16, null, null], ["CDISCPILOT01", "CM", "01-701-1188", 9, "2", "MULTIVITAMINS", "UNCODED", "PROPHYLAXIS OR NON-THERAPEUTIC USE", "UNCODED", 1, "TABLET", "QD", "ORAL", 5.0, "WEEK 4", 28, "TREATMENT", "2013-03-16", "2002", "", 30, null, null], ["CDISCPILOT01", "CM", "01-701-1188", 10, "1", "ASPIRIN", "ACETYLSALICYLIC ACID", "PROPHYLAXIS OR NON-THERAPEUTIC USE", "NERVOUS SYSTEM", 1, "TABLET", "QD", "ORAL", 5.0, "WEEK 4", 28, "TREATMENT", "2013-03-16", "2006", "", 30, null, null], ["CDISCPILOT01", "CM", "01-701-1188", 11, "2", "MULTIVITAMINS", "UNCODED", "PROPHYLAXIS OR NON-THERAPEUTIC USE", "UNCODED", 1, "TABLET", "QD", "ORAL", 6.0, "AMBUL ECG REMOVAL", 30, "TREATMENT", "2013-03-18", "2002", "", 32, null, null], ["CDISCPILOT01", "CM", "01-701-1188", 12, "1", "ASPIRIN", "ACETYLSALICYLIC ACID", "PROPHYLAXIS OR NON-THERAPEUTIC USE", "NERVOUS SYSTEM", 1, "TABLET", "QD", "ORAL", 6.0, "AMBUL ECG REMOVAL", 30, "TREATMENT", "2013-03-18", "2006", "", 32, null, null], ["CDISCPILOT01", "CM", "01-701-1188", 13, "2", "MULTIVITAMINS", "UNCODED", "PROPHYLAXIS OR NON-THERAPEUTIC USE", "UNCODED", 1, "TABLET", "QD", "ORAL", 7.0, "WEEK 6", 42, "TREATMENT", "2013-03-25", "2002", "", 39, null, null], ["CDISCPILOT01", "CM", "01-701-1188", 14, "1", "ASPIRIN", "ACETYLSALICYLIC ACID", "PROPHYLAXIS OR NON-THERAPEUTIC USE", "NERVOUS SYSTEM", 1, "TABLET", "QD", "ORAL", 7.0, "WEEK 6", 42, "TREATMENT", "2013-03-25", "2006", "", 39, null, null], ["CDISCPILOT01", "CM", "01-701-1188", 15, "2", "MULTIVITAMINS", "UNCODED", "PROPHYLAXIS OR NON-THERAPEUTIC USE", "UNCODED", 1, "TABLET", "QD", "ORAL", 101.0, "AE FOLLOW-UP", null, "SCREENING", "2013-06-01", "2002", "", 107, null, null], ["CDISCPILOT01", "CM", "01-701-1188", 16, "1", "ASPIRIN", "ACETYLSALICYLIC ACID", "PROPHYLAXIS OR NON-THERAPEUTIC USE", "NERVOUS SYSTEM", 1, "TABLET", "QD", "ORAL", 101.0, "AE FOLLOW-UP", null, "SCREENING", "2013-06-01", "2006", "", 107, null, null], ["CDISCPILOT01", "CM", "01-701-1188", 17, "2", "MULTIVITAMINS", "UNCODED", "PROPHYLAXIS OR NON-THERAPEUTIC USE", "UNCODED", 1, "TABLET", "QD", "ORAL", 201.0, "RETRIEVAL", 168, "TREATMENT", "2013-08-04", "2002", "", 171, null, null], ["CDISCPILOT01", "CM", "01-701-1188", 18, "1", "ASPIRIN", "ACETYLSALICYLIC ACID", "PROPHYLAXIS OR NON-THERAPEUTIC USE", "NERVOUS SYSTEM", 1, "TABLET", "QD", "ORAL", 201.0, "RETRIEVAL", 168, "TREATMENT", "2013-08-04", "2006", "", 171, null, null], ["CDISCPILOT01", "CM", "01-701-1192", 1, "1", "EXCEDRIN", "UNCODED", "", "UNCODED", 2, "TABLET", "PRN", "ORAL", 1.0, "SCREENING 1", -7, "SCREENING", "2012-07-08", "1999", "", -14, null, null], ["CDISCPILOT01", "CM", "01-701-1192", 2, "2", "MULTIVITAMINS", "UNCODED", "PROPHYLAXIS OR NON-THERAPEUTIC USE", "UNCODED", 2, "TABLET", "TID", "ORAL", 1.0, "SCREENING 1", -7, "SCREENING", "2012-07-08", "2011-05-19", "", -14, -430, null], ["CDISCPILOT01", "CM", "01-701-1192", 3, "1", "EXCEDRIN", "UNCODED", "", "UNCODED", 2, "TABLET", "PRN", "ORAL", 2.0, "SCREENING 2", -1, "SCREENING", "2012-07-20", "1999", "", -2, null, null], ["CDISCPILOT01", "CM", "01-701-1192", 4, "2", "MULTIVITAMINS", "UNCODED", "PROPHYLAXIS OR NON-THERAPEUTIC USE", "UNCODED", 2, "TABLET", "TID", "ORAL", 2.0, "SCREENING 2", -1, "SCREENING", "2012-07-20", "2011-05-19", "", -2, -430, null], ["CDISCPILOT01", "CM", "01-701-1192", 5, "1", "EXCEDRIN", "UNCODED", "", "UNCODED", 2, "TABLET", "PRN", "ORAL", 3.0, "BASELINE", 1, "TREATMENT", "2012-07-22", "1999", "", 1, null, null], ["CDISCPILOT01", "CM", "01-701-1192", 6, "2", "MULTIVITAMINS", "UNCODED", "PROPHYLAXIS OR NON-THERAPEUTIC USE", "UNCODED", 2, "TABLET", "TID", "ORAL", 3.0, "BASELINE", 1, "TREATMENT", "2012-07-22", "2011-05-19", "", 1, -430, null], ["CDISCPILOT01", "CM", "01-701-1192", 7, "1", "EXCEDRIN", "UNCODED", "", "UNCODED", 2, "TABLET", "PRN", "ORAL", 4.0, "WEEK 2", 14, "TREATMENT", "2012-08-07", "1999", "", 17, null, null], ["CDISCPILOT01", "CM", "01-701-1192", 8, "2", "MULTIVITAMINS", "UNCODED", "PROPHYLAXIS OR NON-THERAPEUTIC USE", "UNCODED", 2, "TABLET", "TID", "ORAL", 4.0, "WEEK 2", 14, "TREATMENT", "2012-08-07", "2011-05-19", "", 17, -430, null], ["CDISCPILOT01", "CM", "01-701-1192", 9, "1", "EXCEDRIN", "UNCODED", "", "UNCODED", 2, "TABLET", "PRN", "ORAL", 5.0, "WEEK 4", 28, "TREATMENT", "2012-08-21", "1999", "", 31, null, null], ["CDISCPILOT01", "CM", "01-701-1192", 10, "2", "MULTIVITAMINS", "UNCODED", "PROPHYLAXIS OR NON-THERAPEUTIC USE", "UNCODED", 2, "TABLET", "TID", "ORAL", 5.0, "WEEK 4", 28, "TREATMENT", "2012-08-21", "2011-05-19", "", 31, -430, null], ["CDISCPILOT01", "CM", "01-701-1192", 11, "1", "EXCEDRIN", "UNCODED", "", "UNCODED", 2, "TABLET", "PRN", "ORAL", 6.0, "AMBUL ECG REMOVAL", 30, "TREATMENT", "2012-08-23", "1999", "", 33, null, null], ["CDISCPILOT01", "CM", "01-701-1192", 12, "2", "MULTIVITAMINS", "UNCODED", "PROPHYLAXIS OR NON-THERAPEUTIC USE", "UNCODED", 2, "TABLET", "TID", "ORAL", 6.0, "AMBUL ECG REMOVAL", 30, "TREATMENT", "2012-08-23", "2011-05-19", "", 33, -430, null], ["CDISCPILOT01", "CM", "01-701-1192", 13, "1", "EXCEDRIN", "UNCODED", "", "UNCODED", 2, "TABLET", "PRN", "ORAL", 7.0, "WEEK 6", 42, "TREATMENT", "2012-09-04", "1999", "", 45, null, null], ["CDISCPILOT01", "CM", "01-701-1192", 14, "2", "MULTIVITAMINS", "UNCODED", "PROPHYLAXIS OR NON-THERAPEUTIC USE", "UNCODED", 2, "TABLET", "TID", "ORAL", 7.0, "WEEK 6", 42, "TREATMENT", "2012-09-04", "2011-05-19", "", 45, -430, null], ["CDISCPILOT01", "CM", "01-701-1192", 15, "1", "EXCEDRIN", "UNCODED", "", "UNCODED", 2, "TABLET", "PRN", "ORAL", 8.0, "WEEK 8", 56, "TREATMENT", "2012-09-23", "1999", "", 64, null, null], ["CDISCPILOT01", "CM", "01-701-1192", 16, "2", "MULTIVITAMINS", "UNCODED", "PROPHYLAXIS OR NON-THERAPEUTIC USE", "UNCODED", 2, "TABLET", "TID", "ORAL", 8.0, "WEEK 8", 56, "TREATMENT", "2012-09-23", "2011-05-19", "", 64, -430, null], ["CDISCPILOT01", "CM", "01-701-1192", 17, "4", "BIAXIN", "UNCODED", "", "UNCODED", 500, "mg", "BID", "ORAL", 8.0, "WEEK 8", 56, "TREATMENT", "2012-09-23", "2012-09-07", "2012-09-23", 64, 48, 64], ["CDISCPILOT01", "CM", "01-701-1192", 18, "3", "ROCEPHIN", "UNCODED", "", "UNCODED", null, "", "", "", 8.0, "WEEK 8", 56, "TREATMENT", "2012-09-23", "2012-09-07", "2012-09-08", 64, 48, 49], ["CDISCPILOT01", "CM", "01-701-1192", 19, "6", "ROBITUSSIN-DM", "UNCODED", "", "UNCODED", 1, "TABLET", "PRN", "ORAL", 8.0, "WEEK 8", 56, "TREATMENT", "2012-09-23", "2012-09-08", "2012-10-06", 64, 49, 77], ["CDISCPILOT01", "CM", "01-701-1192", 20, "1", "EXCEDRIN", "UNCODED", "", "UNCODED", 2, "TABLET", "PRN", "ORAL", 9.0, "WEEK 12", 84, "TREATMENT", "2012-10-14", "1999", "", 85, null, null], ["CDISCPILOT01", "CM", "01-701-1192", 21, "2", "MULTIVITAMINS", "UNCODED", "PROPHYLAXIS OR NON-THERAPEUTIC USE", "UNCODED", 2, "TABLET", "TID", "ORAL", 9.0, "WEEK 12", 84, "TREATMENT", "2012-10-14", "2011-05-19", "", 85, -430, null], ["CDISCPILOT01", "CM", "01-701-1192", 22, "4", "BIAXIN", "UNCODED", "", "UNCODED", 500, "mg", "BID", "ORAL", 9.0, "WEEK 12", 84, "TREATMENT", "2012-10-14", "2012-09-07", "2012-09-23", 85, 48, 64], ["CDISCPILOT01", "CM", "01-701-1192", 23, "6", "ROBITUSSIN-DM", "UNCODED", "", "UNCODED", 1, "TABLET", "PRN", "ORAL", 9.0, "WEEK 12", 84, "TREATMENT", "2012-10-14", "2012-09-08", "2012-10-06", 85, 49, 77], ["CDISCPILOT01", "CM", "01-701-1192", 24, "5", "PROVENTIL", "SALBUTAMOL SULFATE", "", "RESPIRATORY SYSTEM", 4, "mg", "BID", "ORAL", 9.0, "WEEK 12", 84, "TREATMENT", "2012-10-14", "2012-09-24", "2012-10-06", 85, 65, 77], ["CDISCPILOT01", "CM", "01-701-1192", 25, "1", "EXCEDRIN", "UNCODED", "", "UNCODED", 2, "TABLET", "PRN", "ORAL", 10.0, "WEEK 16", 112, "TREATMENT", "2012-11-15", "1999", "", 117, null, null], ["CDISCPILOT01", "CM", "01-701-1192", 26, "2", "MULTIVITAMINS", "UNCODED", "PROPHYLAXIS OR NON-THERAPEUTIC USE", "UNCODED", 2, "TABLET", "TID", "ORAL", 10.0, "WEEK 16", 112, "TREATMENT", "2012-11-15", "2011-05-19", "", 117, -430, null], ["CDISCPILOT01", "CM", "01-701-1192", 27, "1", "EXCEDRIN", "UNCODED", "", "UNCODED", 2, "TABLET", "PRN", "ORAL", 11.0, "WEEK 20", 140, "TREATMENT", "2012-12-13", "1999", "", 145, null, null], ["CDISCPILOT01", "CM", "01-701-1192", 28, "2", "MULTIVITAMINS", "UNCODED", "PROPHYLAXIS OR NON-THERAPEUTIC USE", "UNCODED", 2, "TABLET", "TID", "ORAL", 11.0, "WEEK 20", 140, "TREATMENT", "2012-12-13", "2011-05-19", "", 145, -430, null], ["CDISCPILOT01", "CM", "01-701-1192", 29, "7", "HYDROCORTISONE", "HYDROCORTISONE", "", "SYSTEMIC HORMONAL PREPARATIONS, EXCL.", 1, "TABLET", "PRN", "TOPICAL", 11.0, "WEEK 20", 140, "TREATMENT", "2012-12-13", "2012-12-08", "", 145, 140, null], ["CDISCPILOT01", "CM", "01-701-1192", 30, "8", "NEOSPORIN /USA/", "UNCODED", "", "UNCODED", 1, "TABLET", "PRN", "TOPICAL", 11.0, "WEEK 20", 140, "TREATMENT", "2012-12-13", "2012-12-09", "", 145, 141, null], ["CDISCPILOT01", "CM", "01-701-1192", 31, "1", "EXCEDRIN", "UNCODED", "", "UNCODED", 2, "TABLET", "PRN", "ORAL", 12.0, "WEEK 24", 168, "TREATMENT", "2013-01-11", "1999", "", 174, null, null], ["CDISCPILOT01", "CM", "01-701-1192", 32, "2", "MULTIVITAMINS", "UNCODED", "PROPHYLAXIS OR NON-THERAPEUTIC USE", "UNCODED", 2, "TABLET", "TID", "ORAL", 12.0, "WEEK 24", 168, "TREATMENT", "2013-01-11", "2011-05-19", "", 174, -430, null], ["CDISCPILOT01", "CM", "01-701-1192", 33, "7", "HYDROCORTISONE", "HYDROCORTISONE", "", "SYSTEMIC HORMONAL PREPARATIONS, EXCL.", 1, "TABLET", "PRN", "TOPICAL", 12.0, "WEEK 24", 168, "TREATMENT", "2013-01-11", "2012-12-08", "", 174, 140, null], ["CDISCPILOT01", "CM", "01-701-1192", 34, "8", "NEOSPORIN /USA/", "UNCODED", "", "UNCODED", 1, "TABLET", "PRN", "TOPICAL", 12.0, "WEEK 24", 168, "TREATMENT", "2013-01-11", "2012-12-09", "", 174, 141, null], ["CDISCPILOT01", "CM", "01-701-1192", 35, "1", "EXCEDRIN", "UNCODED", "", "UNCODED", 2, "TABLET", "PRN", "ORAL", 13.0, "WEEK 26", 182, "TREATMENT", "2013-01-20", "1999", "", 183, null, null], ["CDISCPILOT01", "CM", "01-701-1192", 36, "2", "MULTIVITAMINS", "UNCODED", "PROPHYLAXIS OR NON-THERAPEUTIC USE", "UNCODED", 2, "TABLET", "TID", "ORAL", 13.0, "WEEK 26", 182, "TREATMENT", "2013-01-20", "2011-05-19", "", 183, -430, null], ["CDISCPILOT01", "CM", "01-701-1192", 37, "7", "HYDROCORTISONE", "HYDROCORTISONE", "", "SYSTEMIC HORMONAL PREPARATIONS, EXCL.", 1, "TABLET", "PRN", "TOPICAL", 13.0, "WEEK 26", 182, "TREATMENT", "2013-01-20", "2012-12-08", "", 183, 140, null], ["CDISCPILOT01", "CM", "01-701-1192", 38, "8", "NEOSPORIN /USA/", "UNCODED", "", "UNCODED", 1, "TABLET", "PRN", "TOPICAL", 13.0, "WEEK 26", 182, "TREATMENT", "2013-01-20", "2012-12-09", "", 183, 141, null], ["CDISCPILOT01", "CM", "01-701-1203", 1, "1", "TIMOPTIC", "UNCODED", "", "UNCODED", 1, "TABLET", "BID", "OPHTHALMIC", 1.0, "SCREENING 1", -7, "SCREENING", "2013-01-25", "1986", "", -8, null, null], ["CDISCPILOT01", "CM", "01-701-1203", 2, "2", "TRUSOPT", "UNCODED", "", "UNCODED", 1, "TABLET", "BID", "OPHTHALMIC", 1.0, "SCREENING 1", -7, "SCREENING", "2013-01-25", "1986", "", -8, null, null], ["CDISCPILOT01", "CM", "01-701-1203", 3, "1", "TIMOPTIC", "UNCODED", "", "UNCODED", 1, "TABLET", "BID", "OPHTHALMIC", 2.0, "SCREENING 2", -1, "SCREENING", "2013-02-01", "1986", "", -1, null, null], ["CDISCPILOT01", "CM", "01-701-1203", 4, "2", "TRUSOPT", "UNCODED", "", "UNCODED", 1, "TABLET", "BID", "OPHTHALMIC", 2.0, "SCREENING 2", -1, "SCREENING", "2013-02-01", "1986", "", -1, null, null], ["CDISCPILOT01", "CM", "01-701-1203", 5, "3", "ALPHAGAN", "UNCODED", "", "UNCODED", 1, "TABLET", "BID", "OPHTHALMIC", 2.0, "SCREENING 2", -1, "SCREENING", "2013-02-01", "2013-01-31", "", -1, -2, null], ["CDISCPILOT01", "CM", "01-701-1203", 6, "4", "PILOSTAT", "UNCODED", "", "UNCODED", 1, "TABLET", "BID", "OPHTHALMIC", 2.0, "SCREENING 2", -1, "SCREENING", "2013-02-01", "2013-01-31", "", -1, -2, null], ["CDISCPILOT01", "CM", "01-701-1203", 7, "1", "TIMOPTIC", "UNCODED", "", "UNCODED", 1, "TABLET", "BID", "OPHTHALMIC", 3.0, "BASELINE", 1, "TREATMENT", "2013-02-02", "1986", "", 1, null, null], ["CDISCPILOT01", "CM", "01-701-1203", 8, "2", "TRUSOPT", "UNCODED", "", "UNCODED", 1, "TABLET", "BID", "OPHTHALMIC", 3.0, "BASELINE", 1, "TREATMENT", "2013-02-02", "1986", "", 1, null, null], ["CDISCPILOT01", "CM", "01-701-1203", 9, "3", "ALPHAGAN", "UNCODED", "", "UNCODED", 1, "TABLET", "BID", "OPHTHALMIC", 3.0, "BASELINE", 1, "TREATMENT", "2013-02-02", "2013-01-31", "", 1, -2, null], ["CDISCPILOT01", "CM", "01-701-1203", 10, "4", "PILOSTAT", "UNCODED", "", "UNCODED", 1, "TABLET", "BID", "OPHTHALMIC", 3.0, "BASELINE", 1, "TREATMENT", "2013-02-02", "2013-01-31", "", 1, -2, null], ["CDISCPILOT01", "CM", "01-701-1203", 11, "1", "TIMOPTIC", "UNCODED", "", "UNCODED", 1, "TABLET", "BID", "OPHTHALMIC", 4.0, "WEEK 2", 14, "TREATMENT", "2013-02-23", "1986", "", 22, null, null], ["CDISCPILOT01", "CM", "01-701-1203", 12, "2", "TRUSOPT", "UNCODED", "", "UNCODED", 1, "TABLET", "BID", "OPHTHALMIC", 4.0, "WEEK 2", 14, "TREATMENT", "2013-02-23", "1986", "", 22, null, null], ["CDISCPILOT01", "CM", "01-701-1203", 13, "3", "ALPHAGAN", "UNCODED", "", "UNCODED", 1, "TABLET", "BID", "OPHTHALMIC", 4.0, "WEEK 2", 14, "TREATMENT", "2013-02-23", "2013-01-31", "", 22, -2, null], ["CDISCPILOT01", "CM", "01-701-1203", 14, "4", "PILOSTAT", "UNCODED", "", "UNCODED", 1, "TABLET", "BID", "OPHTHALMIC", 4.0, "WEEK 2", 14, "TREATMENT", "2013-02-23", "2013-01-31", "", 22, -2, null], ["CDISCPILOT01", "CM", "01-701-1203", 15, "1", "TIMOPTIC", "UNCODED", "", "UNCODED", 1, "TABLET", "BID", "OPHTHALMIC", 5.0, "WEEK 4", 28, "TREATMENT", "2013-03-02", "1986", "", 29, null, null], ["CDISCPILOT01", "CM", "01-701-1203", 16, "2", "TRUSOPT", "UNCODED", "", "UNCODED", 1, "TABLET", "BID", "OPHTHALMIC", 5.0, "WEEK 4", 28, "TREATMENT", "2013-03-02", "1986", "", 29, null, null], ["CDISCPILOT01", "CM", "01-701-1203", 17, "3", "ALPHAGAN", "UNCODED", "", "UNCODED", 1, "TABLET", "BID", "OPHTHALMIC", 5.0, "WEEK 4", 28, "TREATMENT", "2013-03-02", "2013-01-31", "", 29, -2, null], ["CDISCPILOT01", "CM", "01-701-1203", 18, "4", "PILOSTAT", "UNCODED", "", "UNCODED", 1, "TABLET", "BID", "OPHTHALMIC", 5.0, "WEEK 4", 28, "TREATMENT", "2013-03-02", "2013-01-31", "", 29, -2, null], ["CDISCPILOT01", "CM", "01-701-1203", 19, "1", "TIMOPTIC", "UNCODED", "", "UNCODED", 1, "TABLET", "BID", "OPHTHALMIC", 6.0, "AMBUL ECG REMOVAL", 30, "TREATMENT", "2013-03-04", "1986", "", 31, null, null], ["CDISCPILOT01", "CM", "01-701-1203", 20, "2", "TRUSOPT", "UNCODED", "", "UNCODED", 1, "TABLET", "BID", "OPHTHALMIC", 6.0, "AMBUL ECG REMOVAL", 30, "TREATMENT", "2013-03-04", "1986", "", 31, null, null], ["CDISCPILOT01", "CM", "01-701-1203", 21, "3", "ALPHAGAN", "UNCODED", "", "UNCODED", 1, "TABLET", "BID", "OPHTHALMIC", 6.0, "AMBUL ECG REMOVAL", 30, "TREATMENT", "2013-03-04", "2013-01-31", "", 31, -2, null], ["CDISCPILOT01", "CM", "01-701-1203", 22, "4", "PILOSTAT", "UNCODED", "", "UNCODED", 1, "TABLET", "BID", "OPHTHALMIC", 6.0, "AMBUL ECG REMOVAL", 30, "TREATMENT", "2013-03-04", "2013-01-31", "", 31, -2, null], ["CDISCPILOT01", "CM", "01-701-1203", 23, "1", "TIMOPTIC", "UNCODED", "", "UNCODED", 1, "TABLET", "BID", "OPHTHALMIC", 7.0, "WEEK 6", 42, "TREATMENT", "2013-03-16", "1986", "", 43, null, null], ["CDISCPILOT01", "CM", "01-701-1203", 24, "2", "TRUSOPT", "UNCODED", "", "UNCODED", 1, "TABLET", "BID", "OPHTHALMIC", 7.0, "WEEK 6", 42, "TREATMENT", "2013-03-16", "1986", "", 43, null, null], ["CDISCPILOT01", "CM", "01-701-1203", 25, "3", "ALPHAGAN", "UNCODED", "", "UNCODED", 1, "TABLET", "BID", "OPHTHALMIC", 7.0, "WEEK 6", 42, "TREATMENT", "2013-03-16", "2013-01-31", "", 43, -2, null], ["CDISCPILOT01", "CM", "01-701-1203", 26, "4", "PILOSTAT", "UNCODED", "", "UNCODED", 1, "TABLET", "BID", "OPHTHALMIC", 7.0, "WEEK 6", 42, "TREATMENT", "2013-03-16", "2013-01-31", "", 43, -2, null], ["CDISCPILOT01", "CM", "01-701-1203", 27, "1", "TIMOPTIC", "UNCODED", "", "UNCODED", 1, "TABLET", "BID", "OPHTHALMIC", 8.0, "WEEK 8", 56, "TREATMENT", "2013-03-30", "1986", "", 57, null, null], ["CDISCPILOT01", "CM", "01-701-1203", 28, "2", "TRUSOPT", "UNCODED", "", "UNCODED", 1, "TABLET", "BID", "OPHTHALMIC", 8.0, "WEEK 8", 56, "TREATMENT", "2013-03-30", "1986", "", 57, null, null], ["CDISCPILOT01", "CM", "01-701-1203", 29, "3", "ALPHAGAN", "UNCODED", "", "UNCODED", 1, "TABLET", "BID", "OPHTHALMIC", 8.0, "WEEK 8", 56, "TREATMENT", "2013-03-30", "2013-01-31", "", 57, -2, null], ["CDISCPILOT01", "CM", "01-701-1203", 30, "4", "PILOSTAT", "UNCODED", "", "UNCODED", 1, "TABLET", "BID", "OPHTHALMIC", 8.0, "WEEK 8", 56, "TREATMENT", "2013-03-30", "2013-01-31", "", 57, -2, null], ["CDISCPILOT01", "CM", "01-701-1203", 31, "1", "TIMOPTIC", "UNCODED", "", "UNCODED", 1, "TABLET", "BID", "OPHTHALMIC", 9.0, "WEEK 12", 84, "TREATMENT", "2013-05-09", "1986", "", 97, null, null], ["CDISCPILOT01", "CM", "01-701-1203", 32, "2", "TRUSOPT", "UNCODED", "", "UNCODED", 1, "TABLET", "BID", "OPHTHALMIC", 9.0, "WEEK 12", 84, "TREATMENT", "2013-05-09", "1986", "", 97, null, null], ["CDISCPILOT01", "CM", "01-701-1203", 33, "3", "ALPHAGAN", "UNCODED", "", "UNCODED", 1, "TABLET", "BID", "OPHTHALMIC", 9.0, "WEEK 12", 84, "TREATMENT", "2013-05-09", "2013-01-31", "", 97, -2, null], ["CDISCPILOT01", "CM", "01-701-1203", 34, "4", "PILOSTAT", "UNCODED", "", "UNCODED", 1, "TABLET", "BID", "OPHTHALMIC", 9.0, "WEEK 12", 84, "TREATMENT", "2013-05-09", "2013-01-31", "", 97, -2, null], ["CDISCPILOT01", "CM", "01-701-1203", 35, "1", "TIMOPTIC", "UNCODED", "", "UNCODED", 1, "TABLET", "BID", "OPHTHALMIC", 10.0, "WEEK 16", 112, "TREATMENT", "2013-05-25", "1986", "", 113, null, null], ["CDISCPILOT01", "CM", "01-701-1203", 36, "2", "TRUSOPT", "UNCODED", "", "UNCODED", 1, "TABLET", "BID", "OPHTHALMIC", 10.0, "WEEK 16", 112, "TREATMENT", "2013-05-25", "1986", "", 113, null, null], ["CDISCPILOT01", "CM", "01-701-1203", 37, "3", "ALPHAGAN", "UNCODED", "", "UNCODED", 1, "TABLET", "BID", "OPHTHALMIC", 10.0, "WEEK 16", 112, "TREATMENT", "2013-05-25", "2013-01-31", "", 113, -2, null], ["CDISCPILOT01", "CM", "01-701-1203", 38, "4", "PILOSTAT", "UNCODED", "", "UNCODED", 1, "TABLET", "BID", "OPHTHALMIC", 10.0, "WEEK 16", 112, "TREATMENT", "2013-05-25", "2013-01-31", "", 113, -2, null], ["CDISCPILOT01", "CM", "01-701-1203", 39, "1", "TIMOPTIC", "UNCODED", "", "UNCODED", 1, "TABLET", "BID", "OPHTHALMIC", 11.0, "WEEK 20", 140, "TREATMENT", "2013-06-22", "1986", "", 141, null, null], ["CDISCPILOT01", "CM", "01-701-1203", 40, "2", "TRUSOPT", "UNCODED", "", "UNCODED", 1, "TABLET", "BID", "OPHTHALMIC", 11.0, "WEEK 20", 140, "TREATMENT", "2013-06-22", "1986", "", 141, null, null], ["CDISCPILOT01", "CM", "01-701-1203", 41, "3", "ALPHAGAN", "UNCODED", "", "UNCODED", 1, "TABLET", "BID", "OPHTHALMIC", 11.0, "WEEK 20", 140, "TREATMENT", "2013-06-22", "2013-01-31", "", 141, -2, null], ["CDISCPILOT01", "CM", "01-701-1203", 42, "4", "PILOSTAT", "UNCODED", "", "UNCODED", 1, "TABLET", "BID", "OPHTHALMIC", 11.0, "WEEK 20", 140, "TREATMENT", "2013-06-22", "2013-01-31", "", 141, -2, null], ["CDISCPILOT01", "CM", "01-701-1203", 43, "1", "TIMOPTIC", "UNCODED", "", "UNCODED", 1, "TABLET", "BID", "OPHTHALMIC", 12.0, "WEEK 24", 168, "TREATMENT", "2013-07-22", "1986", "", 171, null, null], ["CDISCPILOT01", "CM", "01-701-1203", 44, "2", "TRUSOPT", "UNCODED", "", "UNCODED", 1, "TABLET", "BID", "OPHTHALMIC", 12.0, "WEEK 24", 168, "TREATMENT", "2013-07-22", "1986", "", 171, null, null], ["CDISCPILOT01", "CM", "01-701-1203", 45, "3", "ALPHAGAN", "UNCODED", "", "UNCODED", 1, "TABLET", "BID", "OPHTHALMIC", 12.0, "WEEK 24", 168, "TREATMENT", "2013-07-22", "2013-01-31", "", 171, -2, null], ["CDISCPILOT01", "CM", "01-701-1203", 46, "4", "PILOSTAT", "UNCODED", "", "UNCODED", 1, "TABLET", "BID", "OPHTHALMIC", 12.0, "WEEK 24", 168, "TREATMENT", "2013-07-22", "2013-01-31", "", 171, -2, null], ["CDISCPILOT01", "CM", "01-701-1203", 47, "5", "MOTRIN", "UNCODED", "", "UNCODED", 1, "TABLET", "PRN", "ORAL", 12.0, "WEEK 24", 168, "TREATMENT", "2013-07-22", "2013-07-04", "", 171, 153, null], ["CDISCPILOT01", "CM", "01-701-1203", 48, "6", "TYLENOL", "UNCODED", "", "UNCODED", 1, "TABLET", "PRN", "ORAL", 12.0, "WEEK 24", 168, "TREATMENT", "2013-07-22", "2013-07-04", "", 171, 153, null], ["CDISCPILOT01", "CM", "01-701-1203", 49, "1", "TIMOPTIC", "UNCODED", "", "UNCODED", 1, "TABLET", "BID", "OPHTHALMIC", 13.0, "WEEK 26", 182, "TREATMENT", "2013-08-03", "1986", "", 183, null, null], ["CDISCPILOT01", "CM", "01-701-1203", 50, "2", "TRUSOPT", "UNCODED", "", "UNCODED", 1, "TABLET", "BID", "OPHTHALMIC", 13.0, "WEEK 26", 182, "TREATMENT", "2013-08-03", "1986", "", 183, null, null], ["CDISCPILOT01", "CM", "01-701-1203", 51, "3", "ALPHAGAN", "UNCODED", "", "UNCODED", 1, "TABLET", "BID", "OPHTHALMIC", 13.0, "WEEK 26", 182, "TREATMENT", "2013-08-03", "2013-01-31", "", 183, -2, null], ["CDISCPILOT01", "CM", "01-701-1203", 52, "4", "PILOSTAT", "UNCODED", "", "UNCODED", 1, "TABLET", "BID", "OPHTHALMIC", 13.0, "WEEK 26", 182, "TREATMENT", "2013-08-03", "2013-01-31", "", 183, -2, null], ["CDISCPILOT01", "CM", "01-701-1203", 53, "5", "MOTRIN", "UNCODED", "", "UNCODED", 1, "TABLET", "PRN", "ORAL", 13.0, "WEEK 26", 182, "TREATMENT", "2013-08-03", "2013-07-04", "", 183, 153, null], ["CDISCPILOT01", "CM", "01-701-1203", 54, "6", "TYLENOL", "UNCODED", "", "UNCODED", 1, "TABLET", "PRN", "ORAL", 13.0, "WEEK 26", 182, "TREATMENT", "2013-08-03", "2013-07-04", "", 183, 153, null], ["CDISCPILOT01", "CM", "01-701-1211", 1, "1", "DEMEROL", "UNCODED", "", "UNCODED", 50, "mg", "PRN", "INTRAVENOUS", 4.0, "WEEK 2", 14, "TREATMENT", "2012-11-28", "2012-11-21", "2012-11-21", 14, 7, 7], ["CDISCPILOT01", "CM", "01-701-1211", 2, "2", "TYLENOL W/CODEINE NO. 3", "UNCODED", "", "UNCODED", 2, "TABLET", "PRN", "ORAL", 4.0, "WEEK 2", 14, "TREATMENT", "2012-11-28", "2012-11-21", "2012-11-21", 14, 7, 7], ["CDISCPILOT01", "CM", "01-701-1211", 3, "3", "HYDROCORTISONE", "HYDROCORTISONE", "", "SYSTEMIC HORMONAL PREPARATIONS, EXCL.", 1, "TABLET", "PRN", "TOPICAL", 5.0, "WEEK 4", 28, "TREATMENT", "2012-12-11", "2012-12-08", "", 27, 24, null], ["CDISCPILOT01", "CM", "01-701-1211", 4, "3", "HYDROCORTISONE", "HYDROCORTISONE", "", "SYSTEMIC HORMONAL PREPARATIONS, EXCL.", 1, "TABLET", "PRN", "TOPICAL", 6.0, "AMBUL ECG REMOVAL", 30, "TREATMENT", "2012-12-13", "2012-12-08", "", 29, 24, null], ["CDISCPILOT01", "CM", "01-701-1211", 5, "3", "HYDROCORTISONE", "HYDROCORTISONE", "", "SYSTEMIC HORMONAL PREPARATIONS, EXCL.", 1, "TABLET", "PRN", "TOPICAL", 7.0, "WEEK 6", 42, "TREATMENT", "2012-12-25", "2012-12-08", "", 41, 24, null], ["CDISCPILOT01", "CM", "01-701-1211", 6, "3", "HYDROCORTISONE", "HYDROCORTISONE", "", "SYSTEMIC HORMONAL PREPARATIONS, EXCL.", 1, "TABLET", "PRN", "TOPICAL", 8.0, "WEEK 8", 56, "TREATMENT", "2013-01-08", "2012-12-08", "", 55, 24, null], ["CDISCPILOT01", "CM", "01-701-1211", 7, "4", "LOMOTIL", "UNCODED", "", "UNCODED", 2, "mg", "QD", "ORAL", 8.0, "WEEK 8", 56, "TREATMENT", "2013-01-08", "2013-01-04", "2013-01-04", 55, 51, 51], ["CDISCPILOT01", "CM", "01-701-1211", 8, "5", "MYLANTA", "UNCODED", "", "UNCODED", 1, "TABLET", "BID", "ORAL", 8.0, "WEEK 8", 56, "TREATMENT", "2013-01-08", "2013-01-05", "", 55, 52, null], ["CDISCPILOT01", "CM", "01-701-1211", 9, "3", "HYDROCORTISONE", "HYDROCORTISONE", "", "SYSTEMIC HORMONAL PREPARATIONS, EXCL.", 1, "TABLET", "PRN", "TOPICAL", 9.0, "WEEK 12", 84, "TREATMENT", "2013-01-14", "2012-12-08", "", 61, 24, null], ["CDISCPILOT01", "CM", "01-701-1211", 10, "5", "MYLANTA", "UNCODED", "", "UNCODED", 1, "TABLET", "BID", "ORAL", 9.0, "WEEK 12", 84, "TREATMENT", "2013-01-14", "2013-01-05", "", 61, 52, null], ["CDISCPILOT01", "CM", "01-701-1234", 1, "1", "NIACIN", "UNCODED", "PROPHYLAXIS OR NON-THERAPEUTIC USE", "UNCODED", 1000, "mg", "BID", "ORAL", 1.0, "SCREENING 1", -7, "SCREENING", "2013-03-20", "2001", "", -10, null, null], ["CDISCPILOT01", "CM", "01-701-1234", 2, "1", "NIACIN", "UNCODED", "PROPHYLAXIS OR NON-THERAPEUTIC USE", "UNCODED", 1000, "mg", "BID", "ORAL", 2.0, "SCREENING 2", -1, "SCREENING", "2013-03-28", "2001", "", -2, null, null], ["CDISCPILOT01", "CM", "01-701-1234", 3, "1", "NIACIN", "UNCODED", "PROPHYLAXIS OR NON-THERAPEUTIC USE", "UNCODED", 1000, "mg", "BID", "ORAL", 3.0, "BASELINE", 1, "TREATMENT", "2013-03-30", "2001", "", 1, null, null], ["CDISCPILOT01", "CM", "01-701-1234", 4, "1", "NIACIN", "UNCODED", "PROPHYLAXIS OR NON-THERAPEUTIC USE", "UNCODED", 1000, "mg", "BID", "ORAL", 4.0, "WEEK 2", 14, "TREATMENT", "2013-04-21", "2001", "", 23, null, null], ["CDISCPILOT01", "CM", "01-701-1234", 5, "1", "NIACIN", "UNCODED", "PROPHYLAXIS OR NON-THERAPEUTIC USE", "UNCODED", 1000, "mg", "BID", "ORAL", 5.0, "WEEK 4", 28, "TREATMENT", "2013-04-28", "2001", "", 30, null, null], ["CDISCPILOT01", "CM", "01-701-1234", 6, "1", "NIACIN", "UNCODED", "PROPHYLAXIS OR NON-THERAPEUTIC USE", "UNCODED", 1000, "mg", "BID", "ORAL", 6.0, "AMBUL ECG REMOVAL", 30, "TREATMENT", "2013-04-30", "2001", "", 32, null, null], ["CDISCPILOT01", "CM", "01-701-1234", 7, "1", "NIACIN", "UNCODED", "PROPHYLAXIS OR NON-THERAPEUTIC USE", "UNCODED", 1000, "mg", "BID", "ORAL", 7.0, "WEEK 6", 42, "TREATMENT", "2013-05-08", "2001", "", 40, null, null], ["CDISCPILOT01", "CM", "01-701-1234", 8, "1", "NIACIN", "UNCODED", "PROPHYLAXIS OR NON-THERAPEUTIC USE", "UNCODED", 1000, "mg", "BID", "ORAL", 8.0, "WEEK 8", 56, "TREATMENT", "2013-05-26", "2001", "", 58, null, null], ["CDISCPILOT01", "CM", "01-701-1234", 9, "1", "NIACIN", "UNCODED", "PROPHYLAXIS OR NON-THERAPEUTIC USE", "UNCODED", 1000, "mg", "BID", "ORAL", 9.0, "WEEK 12", 84, "TREATMENT", "2013-07-07", "2001", "", 100, null, null], ["CDISCPILOT01", "CM", "01-701-1234", 10, "1", "NIACIN", "UNCODED", "PROPHYLAXIS OR NON-THERAPEUTIC USE", "UNCODED", 1000, "mg", "BID", "ORAL", 10.0, "WEEK 16", 112, "TREATMENT", "2013-07-27", "2001", "", 120, null, null], ["CDISCPILOT01", "CM", "01-701-1234", 11, "1", "NIACIN", "UNCODED", "PROPHYLAXIS OR NON-THERAPEUTIC USE", "UNCODED", 1000, "mg", "BID", "ORAL", 11.0, "WEEK 20", 140, "TREATMENT", "2013-08-18", "2001", "", 142, null, null], ["CDISCPILOT01", "CM", "01-701-1234", 12, "1", "NIACIN", "UNCODED", "PROPHYLAXIS OR NON-THERAPEUTIC USE", "UNCODED", 1000, "mg", "BID", "ORAL", 12.0, "WEEK 24", 168, "TREATMENT", "2013-09-10", "2001", "", 165, null, null], ["CDISCPILOT01", "CM", "01-701-1234", 13, "1", "NIACIN", "UNCODED", "PROPHYLAXIS OR NON-THERAPEUTIC USE", "UNCODED", 1000, "mg", "BID", "ORAL", 13.0, "WEEK 26", 182, "TREATMENT", "2013-09-22", "2001", "", 177, null, null], ["CDISCPILOT01", "CM", "01-701-1239", 1, "1", "ADVIL", "UNCODED", "", "UNCODED", 2, "TABLET", "PRN", "ORAL", 1.0, "SCREENING 1", -7, "SCREENING", "2013-12-28", "2007", "", -14, null, null], ["CDISCPILOT01", "CM", "01-701-1239", 2, "2", "MOTRIN", "UNCODED", "", "UNCODED", 2, "TABLET", "PRN", "ORAL", 1.0, "SCREENING 1", -7, "SCREENING", "2013-12-28", "2007", "", -14, null, null], ["CDISCPILOT01", "CM", "01-701-1239", 3, "1", "ADVIL", "UNCODED", "", "UNCODED", 2, "TABLET", "PRN", "ORAL", 2.0, "SCREENING 2", -1, "SCREENING", "2014-01-09", "2007", "", -2, null, null], ["CDISCPILOT01", "CM", "01-701-1239", 4, "2", "MOTRIN", "UNCODED", "", "UNCODED", 2, "TABLET", "PRN", "ORAL", 2.0, "SCREENING 2", -1, "SCREENING", "2014-01-09", "2007", "", -2, null, null], ["CDISCPILOT01", "CM", "01-701-1239", 5, "1", "ADVIL", "UNCODED", "", "UNCODED", 2, "TABLET", "PRN", "ORAL", 3.0, "BASELINE", 1, "TREATMENT", "2014-01-11", "2007", "", 1, null, null], ["CDISCPILOT01", "CM", "01-701-1239", 6, "2", "MOTRIN", "UNCODED", "", "UNCODED", 2, "TABLET", "PRN", "ORAL", 3.0, "BASELINE", 1, "TREATMENT", "2014-01-11", "2007", "", 1, null, null], ["CDISCPILOT01", "CM", "01-701-1239", 7, "1", "ADVIL", "UNCODED", "", "UNCODED", 2, "TABLET", "PRN", "ORAL", 4.0, "WEEK 2", 14, "TREATMENT", "2014-01-25", "2007", "", 15, null, null], ["CDISCPILOT01", "CM", "01-701-1239", 8, "2", "MOTRIN", "UNCODED", "", "UNCODED", 2, "TABLET", "PRN", "ORAL", 4.0, "WEEK 2", 14, "TREATMENT", "2014-01-25", "2007", "", 15, null, null], ["CDISCPILOT01", "CM", "01-701-1239", 9, "1", "ADVIL", "UNCODED", "", "UNCODED", 2, "TABLET", "PRN", "ORAL", 5.0, "WEEK 4", 28, "TREATMENT", "2014-02-08", "2007", "", 29, null, null], ["CDISCPILOT01", "CM", "01-701-1239", 10, "2", "MOTRIN", "UNCODED", "", "UNCODED", 2, "TABLET", "PRN", "ORAL", 5.0, "WEEK 4", 28, "TREATMENT", "2014-02-08", "2007", "", 29, null, null], ["CDISCPILOT01", "CM", "01-701-1239", 11, "3", "DIABETA", "UNCODED", "", "UNCODED", 2, "mg", "QD", "ORAL", 5.0, "WEEK 4", 28, "TREATMENT", "2014-02-08", "2014-02-04", "", 29, 25, null], ["CDISCPILOT01", "CM", "01-701-1239", 12, "1", "ADVIL", "UNCODED", "", "UNCODED", 2, "TABLET", "PRN", "ORAL", 6.0, "AMBUL ECG REMOVAL", 30, "TREATMENT", "2014-02-10", "2007", "", 31, null, null], ["CDISCPILOT01", "CM", "01-701-1239", 13, "2", "MOTRIN", "UNCODED", "", "UNCODED", 2, "TABLET", "PRN", "ORAL", 6.0, "AMBUL ECG REMOVAL", 30, "TREATMENT", "2014-02-10", "2007", "", 31, null, null], ["CDISCPILOT01", "CM", "01-701-1239", 14, "3", "DIABETA", "UNCODED", "", "UNCODED", 2, "mg", "QD", "ORAL", 6.0, "AMBUL ECG REMOVAL", 30, "TREATMENT", "2014-02-10", "2014-02-04", "", 31, 25, null], ["CDISCPILOT01", "CM", "01-701-1239", 15, "1", "ADVIL", "UNCODED", "", "UNCODED", 2, "TABLET", "PRN", "ORAL", 7.0, "WEEK 6", 42, "TREATMENT", "2014-02-19", "2007", "", 40, null, null], ["CDISCPILOT01", "CM", "01-701-1239", 16, "2", "MOTRIN", "UNCODED", "", "UNCODED", 2, "TABLET", "PRN", "ORAL", 7.0, "WEEK 6", 42, "TREATMENT", "2014-02-19", "2007", "", 40, null, null], ["CDISCPILOT01", "CM", "01-701-1239", 17, "3", "DIABETA", "UNCODED", "", "UNCODED", 2, "mg", "QD", "ORAL", 7.0, "WEEK 6", 42, "TREATMENT", "2014-02-19", "2014-02-04", "", 40, 25, null], ["CDISCPILOT01", "CM", "01-701-1239", 18, "1", "ADVIL", "UNCODED", "", "UNCODED", 2, "TABLET", "PRN", "ORAL", 8.0, "WEEK 8", 56, "TREATMENT", "2014-03-06", "2007", "", 55, null, null], ["CDISCPILOT01", "CM", "01-701-1239", 19, "2", "MOTRIN", "UNCODED", "", "UNCODED", 2, "TABLET", "PRN", "ORAL", 8.0, "WEEK 8", 56, "TREATMENT", "2014-03-06", "2007", "", 55, null, null], ["CDISCPILOT01", "CM", "01-701-1239", 20, "3", "DIABETA", "UNCODED", "", "UNCODED", 2, "mg", "QD", "ORAL", 8.0, "WEEK 8", 56, "TREATMENT", "2014-03-06", "2014-02-04", "", 55, 25, null], ["CDISCPILOT01", "CM", "01-701-1239", 21, "1", "ADVIL", "UNCODED", "", "UNCODED", 2, "TABLET", "PRN", "ORAL", 9.0, "WEEK 12", 84, "TREATMENT", "2014-04-02", "2007", "", 82, null, null], ["CDISCPILOT01", "CM", "01-701-1239", 22, "2", "MOTRIN", "UNCODED", "", "UNCODED", 2, "TABLET", "PRN", "ORAL", 9.0, "WEEK 12", 84, "TREATMENT", "2014-04-02", "2007", "", 82, null, null], ["CDISCPILOT01", "CM", "01-701-1239", 23, "3", "DIABETA", "UNCODED", "", "UNCODED", 2, "mg", "QD", "ORAL", 9.0, "WEEK 12", 84, "TREATMENT", "2014-04-02", "2014-02-04", "", 82, 25, null], ["CDISCPILOT01", "CM", "01-701-1239", 24, "1", "ADVIL", "UNCODED", "", "UNCODED", 2, "TABLET", "PRN", "ORAL", 10.0, "WEEK 16", 112, "TREATMENT", "2014-05-02", "2007", "", 112, null, null], ["CDISCPILOT01", "CM", "01-701-1239", 25, "2", "MOTRIN", "UNCODED", "", "UNCODED", 2, "TABLET", "PRN", "ORAL", 10.0, "WEEK 16", 112, "TREATMENT", "2014-05-02", "2007", "", 112, null, null], ["CDISCPILOT01", "CM", "01-701-1239", 26, "3", "DIABETA", "UNCODED", "", "UNCODED", 2, "mg", "QD", "ORAL", 10.0, "WEEK 16", 112, "TREATMENT", "2014-05-02", "2014-02-04", "", 112, 25, null], ["CDISCPILOT01", "CM", "01-701-1239", 27, "1", "ADVIL", "UNCODED", "", "UNCODED", 2, "TABLET", "PRN", "ORAL", 11.0, "WEEK 20", 140, "TREATMENT", "2014-05-28", "2007", "", 138, null, null], ["CDISCPILOT01", "CM", "01-701-1239", 28, "2", "MOTRIN", "UNCODED", "", "UNCODED", 2, "TABLET", "PRN", "ORAL", 11.0, "WEEK 20", 140, "TREATMENT", "2014-05-28", "2007", "", 138, null, null], ["CDISCPILOT01", "CM", "01-701-1239", 29, "3", "DIABETA", "UNCODED", "", "UNCODED", 2, "mg", "QD", "ORAL", 11.0, "WEEK 20", 140, "TREATMENT", "2014-05-28", "2014-02-04", "", 138, 25, null], ["CDISCPILOT01", "CM", "01-701-1239", 30, "1", "ADVIL", "UNCODED", "", "UNCODED", 2, "TABLET", "PRN", "ORAL", 12.0, "WEEK 24", 168, "TREATMENT", "2014-06-27", "2007", "", 168, null, null], ["CDISCPILOT01", "CM", "01-701-1239", 31, "2", "MOTRIN", "UNCODED", "", "UNCODED", 2, "TABLET", "PRN", "ORAL", 12.0, "WEEK 24", 168, "TREATMENT", "2014-06-27", "2007", "", 168, null, null], ["CDISCPILOT01", "CM", "01-701-1239", 32, "3", "DIABETA", "UNCODED", "", "UNCODED", 2, "mg", "QD", "ORAL", 12.0, "WEEK 24", 168, "TREATMENT", "2014-06-27", "2014-02-04", "", 168, 25, null], ["CDISCPILOT01", "CM", "01-701-1239", 33, "1", "ADVIL", "UNCODED", "", "UNCODED", 2, "TABLET", "PRN", "ORAL", 13.0, "WEEK 26", 182, "TREATMENT", "2014-07-11", "2007", "", 182, null, null], ["CDISCPILOT01", "CM", "01-701-1239", 34, "2", "MOTRIN", "UNCODED", "", "UNCODED", 2, "TABLET", "PRN", "ORAL", 13.0, "WEEK 26", 182, "TREATMENT", "2014-07-11", "2007", "", 182, null, null], ["CDISCPILOT01", "CM", "01-701-1239", 35, "3", "DIABETA", "UNCODED", "", "UNCODED", 2, "mg", "QD", "ORAL", 13.0, "WEEK 26", 182, "TREATMENT", "2014-07-11", "2014-02-04", "", 182, 25, null], ["CDISCPILOT01", "CM", "01-701-1275", 1, "1", "TYLENOL", "UNCODED", "", "UNCODED", 325, "mg", "PRN", "ORAL", 1.0, "SCREENING 1", -7, "SCREENING", "2014-01-25", "1997", "", -13, null, null], ["CDISCPILOT01", "CM", "01-701-1275", 2, "1", "TYLENOL", "UNCODED", "", "UNCODED", 325, "mg", "PRN", "ORAL", 2.0, "SCREENING 2", -1, "SCREENING", "2014-02-05", "1997", "", -2, null, null], ["CDISCPILOT01", "CM", "01-701-1275", 3, "1", "TYLENOL", "UNCODED", "", "UNCODED", 325, "mg", "PRN", "ORAL", 3.0, "BASELINE", 1, "TREATMENT", "2014-02-07", "1997", "", 1, null, null], ["CDISCPILOT01", "CM", "01-701-1275", 4, "1", "TYLENOL", "UNCODED", "", "UNCODED", 325, "mg", "PRN", "ORAL", 4.0, "WEEK 2", 14, "TREATMENT", "2014-02-22", "1997", "", 16, null, null], ["CDISCPILOT01", "CM", "01-701-1275", 5, "1", "TYLENOL", "UNCODED", "", "UNCODED", 325, "mg", "PRN", "ORAL", 5.0, "WEEK 4", 28, "TREATMENT", "2014-03-07", "1997", "", 29, null, null], ["CDISCPILOT01", "CM", "01-701-1275", 6, "1", "TYLENOL", "UNCODED", "", "UNCODED", 325, "mg", "PRN", "ORAL", 6.0, "AMBUL ECG REMOVAL", 30, "TREATMENT", "2014-03-08", "1997", "", 30, null, null], ["CDISCPILOT01", "CM", "01-701-1275", 7, "1", "TYLENOL", "UNCODED", "", "UNCODED", 325, "mg", "PRN", "ORAL", 7.0, "WEEK 6", 42, "TREATMENT", "2014-03-22", "1997", "", 44, null, null], ["CDISCPILOT01", "CM", "01-701-1275", 8, "2", "VITAMIN C", "UNCODED", "", "UNCODED", 500, "mg", "QD", "ORAL", 7.0, "WEEK 6", 42, "TREATMENT", "2014-03-22", "2014-03-12", "", 44, 34, null], ["CDISCPILOT01", "CM", "01-701-1275", 9, "1", "TYLENOL", "UNCODED", "", "UNCODED", 325, "mg", "PRN", "ORAL", 8.0, "WEEK 8", 56, "TREATMENT", "2014-04-05", "1997", "", 58, null, null], ["CDISCPILOT01", "CM", "01-701-1275", 10, "2", "VITAMIN C", "UNCODED", "", "UNCODED", 500, "mg", "QD", "ORAL", 8.0, "WEEK 8", 56, "TREATMENT", "2014-04-05", "2014-03-12", "", 58, 34, null], ["CDISCPILOT01", "CM", "01-701-1275", 11, "1", "TYLENOL", "UNCODED", "", "UNCODED", 325, "mg", "PRN", "ORAL", 9.0, "WEEK 12", 84, "TREATMENT", "2014-05-03", "1997", "", 86, null, null], ["CDISCPILOT01", "CM", "01-701-1275", 12, "2", "VITAMIN C", "UNCODED", "", "UNCODED", 500, "mg", "QD", "ORAL", 9.0, "WEEK 12", 84, "TREATMENT", "2014-05-03", "2014-03-12", "", 86, 34, null], ["CDISCPILOT01", "CM", "01-701-1275", 13, "1", "TYLENOL", "UNCODED", "", "UNCODED", 325, "mg", "PRN", "ORAL", 10.0, "WEEK 16", 112, "TREATMENT", "2014-06-14", "1997", "", 128, null, null], ["CDISCPILOT01", "CM", "01-701-1275", 14, "2", "VITAMIN C", "UNCODED", "", "UNCODED", 500, "mg", "QD", "ORAL", 10.0, "WEEK 16", 112, "TREATMENT", "2014-06-14", "2014-03-12", "", 128, 34, null], ["CDISCPILOT01", "CM", "01-701-1287", 1, "1", "MULTIVITAMIN", "UNCODED", "PROPHYLAXIS OR NON-THERAPEUTIC USE", "UNCODED", 1, "TABLET", "QD", "ORAL", 1.0, "SCREENING 1", -7, "SCREENING", "2014-01-17", "2001-10", "", -8, null, null], ["CDISCPILOT01", "CM", "01-701-1287", 2, "2", "PREMARIN", "ESTROGENS CONJUGATED", "PROPHYLAXIS OR NON-THERAPEUTIC USE", "GENITO URINARY SYSTEM AND SEX HORMONES", 0, "mg", "QD", "ORAL", 1.0, "SCREENING 1", -7, "SCREENING", "2014-01-17", "2013-06-28", "", -8, -211, null], ["CDISCPILOT01", "CM", "01-701-1287", 3, "1", "MULTIVITAMIN", "UNCODED", "PROPHYLAXIS OR NON-THERAPEUTIC USE", "UNCODED", 1, "TABLET", "QD", "ORAL", 2.0, "SCREENING 2", -1, "SCREENING", "2014-01-23", "2001-10", "", -2, null, null], ["CDISCPILOT01", "CM", "01-701-1287", 4, "2", "PREMARIN", "ESTROGENS CONJUGATED", "PROPHYLAXIS OR NON-THERAPEUTIC USE", "GENITO URINARY SYSTEM AND SEX HORMONES", 0, "mg", "QD", "ORAL", 2.0, "SCREENING 2", -1, "SCREENING", "2014-01-23", "2013-06-28", "", -2, -211, null], ["CDISCPILOT01", "CM", "01-701-1287", 5, "1", "MULTIVITAMIN", "UNCODED", "PROPHYLAXIS OR NON-THERAPEUTIC USE", "UNCODED", 1, "TABLET", "QD", "ORAL", 3.0, "BASELINE", 1, "TREATMENT", "2014-01-25", "2001-10", "", 1, null, null], ["CDISCPILOT01", "CM", "01-701-1287", 6, "2", "PREMARIN", "ESTROGENS CONJUGATED", "PROPHYLAXIS OR NON-THERAPEUTIC USE", "GENITO URINARY SYSTEM AND SEX HORMONES", 0, "mg", "QD", "ORAL", 3.0, "BASELINE", 1, "TREATMENT", "2014-01-25", "2013-06-28", "", 1, -211, null], ["CDISCPILOT01", "CM", "01-701-1287", 7, "1", "MULTIVITAMIN", "UNCODED", "PROPHYLAXIS OR NON-THERAPEUTIC USE", "UNCODED", 1, "TABLET", "QD", "ORAL", 4.0, "WEEK 2", 14, "TREATMENT", "2014-02-11", "2001-10", "", 18, null, null], ["CDISCPILOT01", "CM", "01-701-1287", 8, "2", "PREMARIN", "ESTROGENS CONJUGATED", "PROPHYLAXIS OR NON-THERAPEUTIC USE", "GENITO URINARY SYSTEM AND SEX HORMONES", 0, "mg", "QD", "ORAL", 4.0, "WEEK 2", 14, "TREATMENT", "2014-02-11", "2013-06-28", "", 18, -211, null], ["CDISCPILOT01", "CM", "01-701-1287", 9, "1", "MULTIVITAMIN", "UNCODED", "PROPHYLAXIS OR NON-THERAPEUTIC USE", "UNCODED", 1, "TABLET", "QD", "ORAL", 5.0, "WEEK 4", 28, "TREATMENT", "2014-02-20", "2001-10", "", 27, null, null], ["CDISCPILOT01", "CM", "01-701-1287", 10, "2", "PREMARIN", "ESTROGENS CONJUGATED", "PROPHYLAXIS OR NON-THERAPEUTIC USE", "GENITO URINARY SYSTEM AND SEX HORMONES", 0, "mg", "QD", "ORAL", 5.0, "WEEK 4", 28, "TREATMENT", "2014-02-20", "2013-06-28", "", 27, -211, null], ["CDISCPILOT01", "CM", "01-701-1287", 11, "1", "MULTIVITAMIN", "UNCODED", "PROPHYLAXIS OR NON-THERAPEUTIC USE", "UNCODED", 1, "TABLET", "QD", "ORAL", 6.0, "AMBUL ECG REMOVAL", 30, "TREATMENT", "2014-02-22", "2001-10", "", 29, null, null], ["CDISCPILOT01", "CM", "01-701-1287", 12, "2", "PREMARIN", "ESTROGENS CONJUGATED", "PROPHYLAXIS OR NON-THERAPEUTIC USE", "GENITO URINARY SYSTEM AND SEX HORMONES", 0, "mg", "QD", "ORAL", 6.0, "AMBUL ECG REMOVAL", 30, "TREATMENT", "2014-02-22", "2013-06-28", "", 29, -211, null], ["CDISCPILOT01", "CM", "01-701-1287", 13, "1", "MULTIVITAMIN", "UNCODED", "PROPHYLAXIS OR NON-THERAPEUTIC USE", "UNCODED", 1, "TABLET", "QD", "ORAL", 7.0, "WEEK 6", 42, "TREATMENT", "2014-03-06", "2001-10", "", 41, null, null], ["CDISCPILOT01", "CM", "01-701-1287", 14, "2", "PREMARIN", "ESTROGENS CONJUGATED", "PROPHYLAXIS OR NON-THERAPEUTIC USE", "GENITO URINARY SYSTEM AND SEX HORMONES", 0, "mg", "QD", "ORAL", 7.0, "WEEK 6", 42, "TREATMENT", "2014-03-06", "2013-06-28", "", 41, -211, null], ["CDISCPILOT01", "CM", "01-701-1287", 15, "1", "MULTIVITAMIN", "UNCODED", "PROPHYLAXIS OR NON-THERAPEUTIC USE", "UNCODED", 1, "TABLET", "QD", "ORAL", 8.0, "WEEK 8", 56, "TREATMENT", "2014-03-21", "2001-10", "", 56, null, null], ["CDISCPILOT01", "CM", "01-701-1287", 16, "2", "PREMARIN", "ESTROGENS CONJUGATED", "PROPHYLAXIS OR NON-THERAPEUTIC USE", "GENITO URINARY SYSTEM AND SEX HORMONES", 0, "mg", "QD", "ORAL", 8.0, "WEEK 8", 56, "TREATMENT", "2014-03-21", "2013-06-28", "", 56, -211, null], ["CDISCPILOT01", "CM", "01-701-1287", 17, "3", "ALOE VERA", "UNCODED", "", "UNCODED", 1, "TABLET", "PRN", "TOPICAL", 8.0, "WEEK 8", 56, "TREATMENT", "2014-03-21", "2014-03-09", "", 56, 44, null], ["CDISCPILOT01", "CM", "01-701-1287", 18, "1", "MULTIVITAMIN", "UNCODED", "PROPHYLAXIS OR NON-THERAPEUTIC USE", "UNCODED", 1, "TABLET", "QD", "ORAL", 9.0, "WEEK 12", 84, "TREATMENT", "2014-04-17", "2001-10", "", 83, null, null], ["CDISCPILOT01", "CM", "01-701-1287", 19, "2", "PREMARIN", "ESTROGENS CONJUGATED", "PROPHYLAXIS OR NON-THERAPEUTIC USE", "GENITO URINARY SYSTEM AND SEX HORMONES", 0, "mg", "QD", "ORAL", 9.0, "WEEK 12", 84, "TREATMENT", "2014-04-17", "2013-06-28", "", 83, -211, null], ["CDISCPILOT01", "CM", "01-701-1287", 20, "3", "ALOE VERA", "UNCODED", "", "UNCODED", 1, "TABLET", "PRN", "TOPICAL", 9.0, "WEEK 12", 84, "TREATMENT", "2014-04-17", "2014-03-09", "", 83, 44, null], ["CDISCPILOT01", "CM", "01-701-1287", 21, "1", "MULTIVITAMIN", "UNCODED", "PROPHYLAXIS OR NON-THERAPEUTIC USE", "UNCODED", 1, "TABLET", "QD", "ORAL", 10.0, "WEEK 16", 112, "TREATMENT", "2014-05-15", "2001-10", "", 111, null, null], ["CDISCPILOT01", "CM", "01-701-1287", 22, "2", "PREMARIN", "ESTROGENS CONJUGATED", "PROPHYLAXIS OR NON-THERAPEUTIC USE", "GENITO URINARY SYSTEM AND SEX HORMONES", 0, "mg", "QD", "ORAL", 10.0, "WEEK 16", 112, "TREATMENT", "2014-05-15", "2013-06-28", "", 111, -211, null], ["CDISCPILOT01", "CM", "01-701-1287", 23, "3", "ALOE VERA", "UNCODED", "", "UNCODED", 1, "TABLET", "PRN", "TOPICAL", 10.0, "WEEK 16", 112, "TREATMENT", "2014-05-15", "2014-03-09", "", 111, 44, null], ["CDISCPILOT01", "CM", "01-701-1287", 24, "4", "HYDROCORTISONE", "HYDROCORTISONE", "", "SYSTEMIC HORMONAL PREPARATIONS, EXCL.", 2, "TABLET", "QD", "TOPICAL", 10.0, "WEEK 16", 112, "TREATMENT", "2014-05-15", "2014-04-18", "", 111, 84, null], ["CDISCPILOT01", "CM", "01-701-1287", 25, "1", "MULTIVITAMIN", "UNCODED", "PROPHYLAXIS OR NON-THERAPEUTIC USE", "UNCODED", 1, "TABLET", "QD", "ORAL", 11.0, "WEEK 20", 140, "TREATMENT", "2014-06-12", "2001-10", "", 139, null, null], ["CDISCPILOT01", "CM", "01-701-1287", 26, "2", "PREMARIN", "ESTROGENS CONJUGATED", "PROPHYLAXIS OR NON-THERAPEUTIC USE", "GENITO URINARY SYSTEM AND SEX HORMONES", 0, "mg", "QD", "ORAL", 11.0, "WEEK 20", 140, "TREATMENT", "2014-06-12", "2013-06-28", "", 139, -211, null], ["CDISCPILOT01", "CM", "01-701-1287", 27, "3", "ALOE VERA", "UNCODED", "", "UNCODED", 1, "TABLET", "PRN", "TOPICAL", 11.0, "WEEK 20", 140, "TREATMENT", "2014-06-12", "2014-03-09", "", 139, 44, null], ["CDISCPILOT01", "CM", "01-701-1287", 28, "4", "HYDROCORTISONE", "HYDROCORTISONE", "", "SYSTEMIC HORMONAL PREPARATIONS, EXCL.", 2, "TABLET", "QD", "TOPICAL", 11.0, "WEEK 20", 140, "TREATMENT", "2014-06-12", "2014-04-18", "", 139, 84, null], ["CDISCPILOT01", "CM", "01-701-1287", 29, "1", "MULTIVITAMIN", "UNCODED", "PROPHYLAXIS OR NON-THERAPEUTIC USE", "UNCODED", 1, "TABLET", "QD", "ORAL", 12.0, "WEEK 24", 168, "TREATMENT", "2014-07-12", "2001-10", "", 169, null, null], ["CDISCPILOT01", "CM", "01-701-1287", 30, "2", "PREMARIN", "ESTROGENS CONJUGATED", "PROPHYLAXIS OR NON-THERAPEUTIC USE", "GENITO URINARY SYSTEM AND SEX HORMONES", 0, "mg", "QD", "ORAL", 12.0, "WEEK 24", 168, "TREATMENT", "2014-07-12", "2013-06-28", "", 169, -211, null], ["CDISCPILOT01", "CM", "01-701-1287", 31, "3", "ALOE VERA", "UNCODED", "", "UNCODED", 1, "TABLET", "PRN", "TOPICAL", 12.0, "WEEK 24", 168, "TREATMENT", "2014-07-12", "2014-03-09", "", 169, 44, null], ["CDISCPILOT01", "CM", "01-701-1287", 32, "4", "HYDROCORTISONE", "HYDROCORTISONE", "", "SYSTEMIC HORMONAL PREPARATIONS, EXCL.", 2, "TABLET", "QD", "TOPICAL", 12.0, "WEEK 24", 168, "TREATMENT", "2014-07-12", "2014-04-18", "", 169, 84, null], ["CDISCPILOT01", "CM", "01-701-1287", 33, "1", "MULTIVITAMIN", "UNCODED", "PROPHYLAXIS OR NON-THERAPEUTIC USE", "UNCODED", 1, "TABLET", "QD", "ORAL", 13.0, "WEEK 26", 182, "TREATMENT", "2014-07-26", "2001-10", "", 183, null, null], ["CDISCPILOT01", "CM", "01-701-1287", 34, "2", "PREMARIN", "ESTROGENS CONJUGATED", "PROPHYLAXIS OR NON-THERAPEUTIC USE", "GENITO URINARY SYSTEM AND SEX HORMONES", 0, "mg", "QD", "ORAL", 13.0, "WEEK 26", 182, "TREATMENT", "2014-07-26", "2013-06-28", "", 183, -211, null], ["CDISCPILOT01", "CM", "01-701-1287", 35, "3", "ALOE VERA", "UNCODED", "", "UNCODED", 1, "TABLET", "PRN", "TOPICAL", 13.0, "WEEK 26", 182, "TREATMENT", "2014-07-26", "2014-03-09", "", 183, 44, null], ["CDISCPILOT01", "CM", "01-701-1287", 36, "4", "HYDROCORTISONE", "HYDROCORTISONE", "", "SYSTEMIC HORMONAL PREPARATIONS, EXCL.", 2, "TABLET", "QD", "TOPICAL", 13.0, "WEEK 26", 182, "TREATMENT", "2014-07-26", "2014-04-18", "", 183, 84, null], ["CDISCPILOT01", "CM", "01-701-1294", 1, "1", "HISMANAL", "UNCODED", "", "UNCODED", 10, "mg", "PRN", "ORAL", 1.0, "SCREENING 1", -7, "SCREENING", "2013-03-17", "2012-03", "", -7, null, null], ["CDISCPILOT01", "CM", "01-701-1294", 2, "3", "NASACORT", "UNCODED", "", "UNCODED", 1, "TABLET", "QD", "RESPIRATORY (INHALATION)", 1.0, "SCREENING 1", -7, "SCREENING", "2013-03-17", "2012-03", "", -7, null, null], ["CDISCPILOT01", "CM", "01-701-1294", 3, "2", "MULTIVITAMIN", "UNCODED", "PROPHYLAXIS OR NON-THERAPEUTIC USE", "UNCODED", 3, "mg", "QD", "ORAL", 1.0, "SCREENING 1", -7, "SCREENING", "2013-03-17", "2012-12", "", -7, null, null], ["CDISCPILOT01", "CM", "01-701-1294", 4, "1", "HISMANAL", "UNCODED", "", "UNCODED", 10, "mg", "PRN", "ORAL", 2.0, "SCREENING 2", -1, "SCREENING", "2013-03-22", "2012-03", "", -2, null, null], ["CDISCPILOT01", "CM", "01-701-1294", 5, "3", "NASACORT", "UNCODED", "", "UNCODED", 1, "TABLET", "QD", "RESPIRATORY (INHALATION)", 2.0, "SCREENING 2", -1, "SCREENING", "2013-03-22", "2012-03", "", -2, null, null], ["CDISCPILOT01", "CM", "01-701-1294", 6, "2", "MULTIVITAMIN", "UNCODED", "PROPHYLAXIS OR NON-THERAPEUTIC USE", "UNCODED", 3, "mg", "QD", "ORAL", 2.0, "SCREENING 2", -1, "SCREENING", "2013-03-22", "2012-12", "", -2, null, null], ["CDISCPILOT01", "CM", "01-701-1294", 7, "1", "HISMANAL", "UNCODED", "", "UNCODED", 10, "mg", "PRN", "ORAL", 3.0, "BASELINE", 1, "TREATMENT", "2013-03-24", "2012-03", "", 1, null, null], ["CDISCPILOT01", "CM", "01-701-1294", 8, "3", "NASACORT", "UNCODED", "", "UNCODED", 1, "TABLET", "QD", "RESPIRATORY (INHALATION)", 3.0, "BASELINE", 1, "TREATMENT", "2013-03-24", "2012-03", "", 1, null, null], ["CDISCPILOT01", "CM", "01-701-1294", 9, "2", "MULTIVITAMIN", "UNCODED", "PROPHYLAXIS OR NON-THERAPEUTIC USE", "UNCODED", 3, "mg", "QD", "ORAL", 3.0, "BASELINE", 1, "TREATMENT", "2013-03-24", "2012-12", "", 1, null, null], ["CDISCPILOT01", "CM", "01-701-1294", 10, "1", "HISMANAL", "UNCODED", "", "UNCODED", 10, "mg", "PRN", "ORAL", 4.0, "WEEK 2", 14, "TREATMENT", "2013-04-10", "2012-03", "", 18, null, null], ["CDISCPILOT01", "CM", "01-701-1294", 11, "3", "NASACORT", "UNCODED", "", "UNCODED", 1, "TABLET", "QD", "RESPIRATORY (INHALATION)", 4.0, "WEEK 2", 14, "TREATMENT", "2013-04-10", "2012-03", "", 18, null, null], ["CDISCPILOT01", "CM", "01-701-1294", 12, "2", "MULTIVITAMIN", "UNCODED", "PROPHYLAXIS OR NON-THERAPEUTIC USE", "UNCODED", 3, "mg", "QD", "ORAL", 4.0, "WEEK 2", 14, "TREATMENT", "2013-04-10", "2012-12", "", 18, null, null], ["CDISCPILOT01", "CM", "01-701-1294", 13, "1", "HISMANAL", "UNCODED", "", "UNCODED", 10, "mg", "PRN", "ORAL", 5.0, "WEEK 4", 28, "TREATMENT", "2013-04-24", "2012-03", "", 32, null, null], ["CDISCPILOT01", "CM", "01-701-1294", 14, "3", "NASACORT", "UNCODED", "", "UNCODED", 1, "TABLET", "QD", "RESPIRATORY (INHALATION)", 5.0, "WEEK 4", 28, "TREATMENT", "2013-04-24", "2012-03", "", 32, null, null], ["CDISCPILOT01", "CM", "01-701-1294", 15, "2", "MULTIVITAMIN", "UNCODED", "PROPHYLAXIS OR NON-THERAPEUTIC USE", "UNCODED", 3, "mg", "QD", "ORAL", 5.0, "WEEK 4", 28, "TREATMENT", "2013-04-24", "2012-12", "", 32, null, null], ["CDISCPILOT01", "CM", "01-701-1294", 16, "1", "HISMANAL", "UNCODED", "", "UNCODED", 10, "mg", "PRN", "ORAL", 6.0, "AMBUL ECG REMOVAL", 30, "TREATMENT", "2013-04-26", "2012-03", "", 34, null, null], ["CDISCPILOT01", "CM", "01-701-1294", 17, "3", "NASACORT", "UNCODED", "", "UNCODED", 1, "TABLET", "QD", "RESPIRATORY (INHALATION)", 6.0, "AMBUL ECG REMOVAL", 30, "TREATMENT", "2013-04-26", "2012-03", "", 34, null, null], ["CDISCPILOT01", "CM", "01-701-1294", 18, "2", "MULTIVITAMIN", "UNCODED", "PROPHYLAXIS OR NON-THERAPEUTIC USE", "UNCODED", 3, "mg", "QD", "ORAL", 6.0, "AMBUL ECG REMOVAL", 30, "TREATMENT", "2013-04-26", "2012-12", "", 34, null, null], ["CDISCPILOT01", "CM", "01-701-1294", 19, "1", "HISMANAL", "UNCODED", "", "UNCODED", 10, "mg", "PRN", "ORAL", 7.0, "WEEK 6", 42, "TREATMENT", "2013-05-08", "2012-03", "", 46, null, null], ["CDISCPILOT01", "CM", "01-701-1294", 20, "3", "NASACORT", "UNCODED", "", "UNCODED", 1, "TABLET", "QD", "RESPIRATORY (INHALATION)", 7.0, "WEEK 6", 42, "TREATMENT", "2013-05-08", "2012-03", "", 46, null, null], ["CDISCPILOT01", "CM", "01-701-1294", 21, "2", "MULTIVITAMIN", "UNCODED", "PROPHYLAXIS OR NON-THERAPEUTIC USE", "UNCODED", 3, "mg", "QD", "ORAL", 7.0, "WEEK 6", 42, "TREATMENT", "2013-05-08", "2012-12", "", 46, null, null], ["CDISCPILOT01", "CM", "01-701-1294", 22, "1", "HISMANAL", "UNCODED", "", "UNCODED", 10, "mg", "PRN", "ORAL", 8.0, "WEEK 8", 56, "TREATMENT", "2013-05-22", "2012-03", "", 60, null, null], ["CDISCPILOT01", "CM", "01-701-1294", 23, "3", "NASACORT", "UNCODED", "", "UNCODED", 1, "TABLET", "QD", "RESPIRATORY (INHALATION)", 8.0, "WEEK 8", 56, "TREATMENT", "2013-05-22", "2012-03", "", 60, null, null], ["CDISCPILOT01", "CM", "01-701-1294", 24, "2", "MULTIVITAMIN", "UNCODED", "PROPHYLAXIS OR NON-THERAPEUTIC USE", "UNCODED", 3, "mg", "QD", "ORAL", 8.0, "WEEK 8", 56, "TREATMENT", "2013-05-22", "2012-12", "", 60, null, null], ["CDISCPILOT01", "CM", "01-701-1294", 25, "1", "HISMANAL", "UNCODED", "", "UNCODED", 10, "mg", "PRN", "ORAL", 9.0, "WEEK 12", 84, "TREATMENT", "2013-06-14", "2012-03", "", 83, null, null], ["CDISCPILOT01", "CM", "01-701-1294", 26, "3", "NASACORT", "UNCODED", "", "UNCODED", 1, "TABLET", "QD", "RESPIRATORY (INHALATION)", 9.0, "WEEK 12", 84, "TREATMENT", "2013-06-14", "2012-03", "", 83, null, null], ["CDISCPILOT01", "CM", "01-701-1294", 27, "2", "MULTIVITAMIN", "UNCODED", "PROPHYLAXIS OR NON-THERAPEUTIC USE", "UNCODED", 3, "mg", "QD", "ORAL", 9.0, "WEEK 12", 84, "TREATMENT", "2013-06-14", "2012-12", "", 83, null, null], ["CDISCPILOT01", "CM", "01-701-1294", 28, "4", "HYDROCORTISONE", "HYDROCORTISONE", "", "SYSTEMIC HORMONAL PREPARATIONS, EXCL.", 1, "TABLET", "QD", "TOPICAL", 9.0, "WEEK 12", 84, "TREATMENT", "2013-06-14", "2013-06-04", "2013-06-12", 83, 73, 81], ["CDISCPILOT01", "CM", "01-701-1294", 29, "1", "HISMANAL", "UNCODED", "", "UNCODED", 10, "mg", "PRN", "ORAL", 101.0, "AE FOLLOW-UP", null, "SCREENING", "2013-08-23", "2012-03", "", 153, null, null], ["CDISCPILOT01", "CM", "01-701-1294", 30, "3", "NASACORT", "UNCODED", "", "UNCODED", 1, "TABLET", "QD", "RESPIRATORY (INHALATION)", 101.0, "AE FOLLOW-UP", null, "SCREENING", "2013-08-23", "2012-03", "", 153, null, null], ["CDISCPILOT01", "CM", "01-701-1294", 31, "2", "MULTIVITAMIN", "UNCODED", "PROPHYLAXIS OR NON-THERAPEUTIC USE", "UNCODED", 3, "mg", "QD", "ORAL", 101.0, "AE FOLLOW-UP", null, "SCREENING", "2013-08-23", "2012-12", "", 153, null, null], ["CDISCPILOT01", "CM", "01-701-1294", 32, "1", "HISMANAL", "UNCODED", "", "UNCODED", 10, "mg", "PRN", "ORAL", 201.0, "RETRIEVAL", 168, "TREATMENT", "2013-10-08", "2012-03", "", 199, null, null], ["CDISCPILOT01", "CM", "01-701-1294", 33, "3", "NASACORT", "UNCODED", "", "UNCODED", 1, "TABLET", "QD", "RESPIRATORY (INHALATION)", 201.0, "RETRIEVAL", 168, "TREATMENT", "2013-10-08", "2012-03", "", 199, null, null], ["CDISCPILOT01", "CM", "01-701-1294", 34, "2", "MULTIVITAMIN", "UNCODED", "PROPHYLAXIS OR NON-THERAPEUTIC USE", "UNCODED", 3, "mg", "QD", "ORAL", 201.0, "RETRIEVAL", 168, "TREATMENT", "2013-10-08", "2012-12", "", 199, null, null], ["CDISCPILOT01", "CM", "01-701-1302", 1, "1", "ADVIL", "UNCODED", "", "UNCODED", 2, "TABLET", "PRN", "ORAL", 1.0, "SCREENING 1", -7, "SCREENING", "2013-08-20", "2010", "", -9, null, null], ["CDISCPILOT01", "CM", "01-701-1302", 2, "4", "MULTIVITAMINS", "UNCODED", "PROPHYLAXIS OR NON-THERAPEUTIC USE", "UNCODED", 1, "TABLET", "QD", "ORAL", 1.0, "SCREENING 1", -7, "SCREENING", "2013-08-20", "2010", "", -9, null, null], ["CDISCPILOT01", "CM", "01-701-1302", 3, "2", "EXCEDRIN", "UNCODED", "", "UNCODED", 2, "TABLET", "PRN", "ORAL", 1.0, "SCREENING 1", -7, "SCREENING", "2013-08-20", "2011", "", -9, null, null], ["CDISCPILOT01", "CM", "01-701-1302", 4, "3", "METAMUCIL", "UNCODED", "", "UNCODED", 2, "TABLET", "QD", "ORAL", 1.0, "SCREENING 1", -7, "SCREENING", "2013-08-20", "2012-03-01", "", -9, -546, null], ["CDISCPILOT01", "CM", "01-701-1302", 5, "1", "ADVIL", "UNCODED", "", "UNCODED", 2, "TABLET", "PRN", "ORAL", 2.0, "SCREENING 2", -1, "SCREENING", "2013-08-27", "2010", "", -2, null, null], ["CDISCPILOT01", "CM", "01-701-1302", 6, "4", "MULTIVITAMINS", "UNCODED", "PROPHYLAXIS OR NON-THERAPEUTIC USE", "UNCODED", 1, "TABLET", "QD", "ORAL", 2.0, "SCREENING 2", -1, "SCREENING", "2013-08-27", "2010", "", -2, null, null], ["CDISCPILOT01", "CM", "01-701-1302", 7, "2", "EXCEDRIN", "UNCODED", "", "UNCODED", 2, "TABLET", "PRN", "ORAL", 2.0, "SCREENING 2", -1, "SCREENING", "2013-08-27", "2011", "", -2, null, null], ["CDISCPILOT01", "CM", "01-701-1302", 8, "3", "METAMUCIL", "UNCODED", "", "UNCODED", 2, "TABLET", "QD", "ORAL", 2.0, "SCREENING 2", -1, "SCREENING", "2013-08-27", "2012-03-01", "", -2, -546, null], ["CDISCPILOT01", "CM", "01-701-1302", 9, "1", "ADVIL", "UNCODED", "", "UNCODED", 2, "TABLET", "PRN", "ORAL", 3.0, "BASELINE", 1, "TREATMENT", "2013-08-29", "2010", "", 1, null, null], ["CDISCPILOT01", "CM", "01-701-1302", 10, "4", "MULTIVITAMINS", "UNCODED", "PROPHYLAXIS OR NON-THERAPEUTIC USE", "UNCODED", 1, "TABLET", "QD", "ORAL", 3.0, "BASELINE", 1, "TREATMENT", "2013-08-29", "2010", "", 1, null, null], ["CDISCPILOT01", "CM", "01-701-1302", 11, "2", "EXCEDRIN", "UNCODED", "", "UNCODED", 2, "TABLET", "PRN", "ORAL", 3.0, "BASELINE", 1, "TREATMENT", "2013-08-29", "2011", "", 1, null, null], ["CDISCPILOT01", "CM", "01-701-1302", 12, "3", "METAMUCIL", "UNCODED", "", "UNCODED", 2, "TABLET", "QD", "ORAL", 3.0, "BASELINE", 1, "TREATMENT", "2013-08-29", "2012-03-01", "", 1, -546, null], ["CDISCPILOT01", "CM", "01-701-1302", 13, "1", "ADVIL", "UNCODED", "", "UNCODED", 2, "TABLET", "PRN", "ORAL", 4.0, "WEEK 2", 14, "TREATMENT", "2013-09-15", "2010", "", 18, null, null], ["CDISCPILOT01", "CM", "01-701-1302", 14, "4", "MULTIVITAMINS", "UNCODED", "PROPHYLAXIS OR NON-THERAPEUTIC USE", "UNCODED", 1, "TABLET", "QD", "ORAL", 4.0, "WEEK 2", 14, "TREATMENT", "2013-09-15", "2010", "", 18, null, null], ["CDISCPILOT01", "CM", "01-701-1302", 15, "2", "EXCEDRIN", "UNCODED", "", "UNCODED", 2, "TABLET", "PRN", "ORAL", 4.0, "WEEK 2", 14, "TREATMENT", "2013-09-15", "2011", "", 18, null, null], ["CDISCPILOT01", "CM", "01-701-1302", 16, "3", "METAMUCIL", "UNCODED", "", "UNCODED", 2, "TABLET", "QD", "ORAL", 4.0, "WEEK 2", 14, "TREATMENT", "2013-09-15", "2012-03-01", "", 18, -546, null], ["CDISCPILOT01", "CM", "01-701-1302", 17, "5", "NEO-SYNEPHRINE", "UNCODED", "", "UNCODED", 1, "TABLET", "PRN", "NASAL", 4.0, "WEEK 2", 14, "TREATMENT", "2013-09-15", "2013-09-01", "2013-09-30", 18, 4, 33], ["CDISCPILOT01", "CM", "01-701-1302", 18, "6", "PSEUDOEPHEDRINE HYDROCHLORIDE", "UNCODED", "", "UNCODED", 2, "TABLET", "Q4H", "ORAL", 4.0, "WEEK 2", 14, "TREATMENT", "2013-09-15", "2013-09-02", "2013-09-30", 18, 5, 33], ["CDISCPILOT01", "CM", "01-701-1302", 19, "1", "ADVIL", "UNCODED", "", "UNCODED", 2, "TABLET", "PRN", "ORAL", 5.0, "WEEK 4", 28, "TREATMENT", "2013-09-24", "2010", "", 27, null, null], ["CDISCPILOT01", "CM", "01-701-1302", 20, "4", "MULTIVITAMINS", "UNCODED", "PROPHYLAXIS OR NON-THERAPEUTIC USE", "UNCODED", 1, "TABLET", "QD", "ORAL", 5.0, "WEEK 4", 28, "TREATMENT", "2013-09-24", "2010", "", 27, null, null], ["CDISCPILOT01", "CM", "01-701-1302", 21, "2", "EXCEDRIN", "UNCODED", "", "UNCODED", 2, "TABLET", "PRN", "ORAL", 5.0, "WEEK 4", 28, "TREATMENT", "2013-09-24", "2011", "", 27, null, null], ["CDISCPILOT01", "CM", "01-701-1302", 22, "3", "METAMUCIL", "UNCODED", "", "UNCODED", 2, "TABLET", "QD", "ORAL", 5.0, "WEEK 4", 28, "TREATMENT", "2013-09-24", "2012-03-01", "", 27, -546, null], ["CDISCPILOT01", "CM", "01-701-1302", 23, "5", "NEO-SYNEPHRINE", "UNCODED", "", "UNCODED", 1, "TABLET", "PRN", "NASAL", 5.0, "WEEK 4", 28, "TREATMENT", "2013-09-24", "2013-09-01", "2013-09-30", 27, 4, 33], ["CDISCPILOT01", "CM", "01-701-1302", 24, "6", "PSEUDOEPHEDRINE HYDROCHLORIDE", "UNCODED", "", "UNCODED", 2, "TABLET", "Q4H", "ORAL", 5.0, "WEEK 4", 28, "TREATMENT", "2013-09-24", "2013-09-02", "2013-09-30", 27, 5, 33], ["CDISCPILOT01", "CM", "01-701-1302", 25, "1", "ADVIL", "UNCODED", "", "UNCODED", 2, "TABLET", "PRN", "ORAL", 6.0, "AMBUL ECG REMOVAL", 30, "TREATMENT", "2013-09-26", "2010", "", 29, null, null], ["CDISCPILOT01", "CM", "01-701-1302", 26, "4", "MULTIVITAMINS", "UNCODED", "PROPHYLAXIS OR NON-THERAPEUTIC USE", "UNCODED", 1, "TABLET", "QD", "ORAL", 6.0, "AMBUL ECG REMOVAL", 30, "TREATMENT", "2013-09-26", "2010", "", 29, null, null], ["CDISCPILOT01", "CM", "01-701-1302", 27, "2", "EXCEDRIN", "UNCODED", "", "UNCODED", 2, "TABLET", "PRN", "ORAL", 6.0, "AMBUL ECG REMOVAL", 30, "TREATMENT", "2013-09-26", "2011", "", 29, null, null], ["CDISCPILOT01", "CM", "01-701-1302", 28, "3", "METAMUCIL", "UNCODED", "", "UNCODED", 2, "TABLET", "QD", "ORAL", 6.0, "AMBUL ECG REMOVAL", 30, "TREATMENT", "2013-09-26", "2012-03-01", "", 29, -546, null], ["CDISCPILOT01", "CM", "01-701-1302", 29, "5", "NEO-SYNEPHRINE", "UNCODED", "", "UNCODED", 1, "TABLET", "PRN", "NASAL", 6.0, "AMBUL ECG REMOVAL", 30, "TREATMENT", "2013-09-26", "2013-09-01", "2013-09-30", 29, 4, 33], ["CDISCPILOT01", "CM", "01-701-1302", 30, "6", "PSEUDOEPHEDRINE HYDROCHLORIDE", "UNCODED", "", "UNCODED", 2, "TABLET", "Q4H", "ORAL", 6.0, "AMBUL ECG REMOVAL", 30, "TREATMENT", "2013-09-26", "2013-09-02", "2013-09-30", 29, 5, 33], ["CDISCPILOT01", "CM", "01-701-1302", 31, "1", "ADVIL", "UNCODED", "", "UNCODED", 2, "TABLET", "PRN", "ORAL", 7.0, "WEEK 6", 42, "TREATMENT", "2013-10-08", "2010", "", 41, null, null], ["CDISCPILOT01", "CM", "01-701-1302", 32, "4", "MULTIVITAMINS", "UNCODED", "PROPHYLAXIS OR NON-THERAPEUTIC USE", "UNCODED", 1, "TABLET", "QD", "ORAL", 7.0, "WEEK 6", 42, "TREATMENT", "2013-10-08", "2010", "", 41, null, null], ["CDISCPILOT01", "CM", "01-701-1302", 33, "2", "EXCEDRIN", "UNCODED", "", "UNCODED", 2, "TABLET", "PRN", "ORAL", 7.0, "WEEK 6", 42, "TREATMENT", "2013-10-08", "2011", "", 41, null, null], ["CDISCPILOT01", "CM", "01-701-1302", 34, "3", "METAMUCIL", "UNCODED", "", "UNCODED", 2, "TABLET", "QD", "ORAL", 7.0, "WEEK 6", 42, "TREATMENT", "2013-10-08", "2012-03-01", "", 41, -546, null], ["CDISCPILOT01", "CM", "01-701-1302", 35, "5", "NEO-SYNEPHRINE", "UNCODED", "", "UNCODED", 1, "TABLET", "PRN", "NASAL", 7.0, "WEEK 6", 42, "TREATMENT", "2013-10-08", "2013-09-01", "2013-09-30", 41, 4, 33], ["CDISCPILOT01", "CM", "01-701-1302", 36, "6", "PSEUDOEPHEDRINE HYDROCHLORIDE", "UNCODED", "", "UNCODED", 2, "TABLET", "Q4H", "ORAL", 7.0, "WEEK 6", 42, "TREATMENT", "2013-10-08", "2013-09-02", "2013-09-30", 41, 5, 33], ["CDISCPILOT01", "CM", "01-701-1302", 37, "1", "ADVIL", "UNCODED", "", "UNCODED", 2, "TABLET", "PRN", "ORAL", 8.0, "WEEK 8", 56, "TREATMENT", "2013-10-22", "2010", "", 55, null, null], ["CDISCPILOT01", "CM", "01-701-1302", 38, "4", "MULTIVITAMINS", "UNCODED", "PROPHYLAXIS OR NON-THERAPEUTIC USE", "UNCODED", 1, "TABLET", "QD", "ORAL", 8.0, "WEEK 8", 56, "TREATMENT", "2013-10-22", "2010", "", 55, null, null], ["CDISCPILOT01", "CM", "01-701-1302", 39, "2", "EXCEDRIN", "UNCODED", "", "UNCODED", 2, "TABLET", "PRN", "ORAL", 8.0, "WEEK 8", 56, "TREATMENT", "2013-10-22", "2011", "", 55, null, null], ["CDISCPILOT01", "CM", "01-701-1302", 40, "3", "METAMUCIL", "UNCODED", "", "UNCODED", 2, "TABLET", "QD", "ORAL", 8.0, "WEEK 8", 56, "TREATMENT", "2013-10-22", "2012-03-01", "", 55, -546, null], ["CDISCPILOT01", "CM", "01-701-1302", 41, "1", "ADVIL", "UNCODED", "", "UNCODED", 2, "TABLET", "PRN", "ORAL", 9.0, "WEEK 12", 84, "TREATMENT", "2013-11-05", "2010", "", 69, null, null], ["CDISCPILOT01", "CM", "01-701-1302", 42, "4", "MULTIVITAMINS", "UNCODED", "PROPHYLAXIS OR NON-THERAPEUTIC USE", "UNCODED", 1, "TABLET", "QD", "ORAL", 9.0, "WEEK 12", 84, "TREATMENT", "2013-11-05", "2010", "", 69, null, null], ["CDISCPILOT01", "CM", "01-701-1302", 43, "2", "EXCEDRIN", "UNCODED", "", "UNCODED", 2, "TABLET", "PRN", "ORAL", 9.0, "WEEK 12", 84, "TREATMENT", "2013-11-05", "2011", "", 69, null, null], ["CDISCPILOT01", "CM", "01-701-1302", 44, "3", "METAMUCIL", "UNCODED", "", "UNCODED", 2, "TABLET", "QD", "ORAL", 9.0, "WEEK 12", 84, "TREATMENT", "2013-11-05", "2012-03-01", "", 69, -546, null], ["CDISCPILOT01", "CM", "01-701-1302", 45, "1", "ADVIL", "UNCODED", "", "UNCODED", 2, "TABLET", "PRN", "ORAL", 101.0, "AE FOLLOW-UP", null, "SCREENING", "2013-12-16", "2010", "", 110, null, null], ["CDISCPILOT01", "CM", "01-701-1302", 46, "4", "MULTIVITAMINS", "UNCODED", "PROPHYLAXIS OR NON-THERAPEUTIC USE", "UNCODED", 1, "TABLET", "QD", "ORAL", 101.0, "AE FOLLOW-UP", null, "SCREENING", "2013-12-16", "2010", "", 110, null, null], ["CDISCPILOT01", "CM", "01-701-1302", 47, "2", "EXCEDRIN", "UNCODED", "", "UNCODED", 2, "TABLET", "PRN", "ORAL", 101.0, "AE FOLLOW-UP", null, "SCREENING", "2013-12-16", "2011", "", 110, null, null], ["CDISCPILOT01", "CM", "01-701-1302", 48, "3", "METAMUCIL", "UNCODED", "", "UNCODED", 2, "TABLET", "QD", "ORAL", 101.0, "AE FOLLOW-UP", null, "SCREENING", "2013-12-16", "2012-03-01", "", 110, -546, null], ["CDISCPILOT01", "CM", "01-701-1302", 49, "1", "ADVIL", "UNCODED", "", "UNCODED", 2, "TABLET", "PRN", "ORAL", 201.0, "RETRIEVAL", 168, "TREATMENT", "2014-02-13", "2010", "", 169, null, null], ["CDISCPILOT01", "CM", "01-701-1302", 50, "4", "MULTIVITAMINS", "UNCODED", "PROPHYLAXIS OR NON-THERAPEUTIC USE", "UNCODED", 1, "TABLET", "QD", "ORAL", 201.0, "RETRIEVAL", 168, "TREATMENT", "2014-02-13", "2010", "", 169, null, null], ["CDISCPILOT01", "CM", "01-701-1302", 51, "2", "EXCEDRIN", "UNCODED", "", "UNCODED", 2, "TABLET", "PRN", "ORAL", 201.0, "RETRIEVAL", 168, "TREATMENT", "2014-02-13", "2011", "", 169, null, null], ["CDISCPILOT01", "CM", "01-701-1302", 52, "3", "METAMUCIL", "UNCODED", "", "UNCODED", 2, "TABLET", "QD", "ORAL", 201.0, "RETRIEVAL", 168, "TREATMENT", "2014-02-13", "2012-03-01", "", 169, -546, null], ["CDISCPILOT01", "CM", "01-701-1317", 1, "3", "MULTIVITAMIN", "UNCODED", "PROPHYLAXIS OR NON-THERAPEUTIC USE", "UNCODED", 1, "TABLET", "QD", "ORAL", 1.0, "SCREENING 1", -7, "SCREENING", "2014-05-10", "2009", "", -12, null, null], ["CDISCPILOT01", "CM", "01-701-1317", 2, "6", "VITAMIN E", "UNCODED", "PROPHYLAXIS OR NON-THERAPEUTIC USE", "UNCODED", 400, "mg", "QD", "ORAL", 1.0, "SCREENING 1", -7, "SCREENING", "2014-05-10", "2009", "", -12, null, null], ["CDISCPILOT01", "CM", "01-701-1317", 3, "5", "TUMS", "UNCODED", "", "UNCODED", 1, "TABLET", "PRN", "ORAL", 1.0, "SCREENING 1", -7, "SCREENING", "2014-05-10", "2012", "", -12, null, null], ["CDISCPILOT01", "CM", "01-701-1317", 4, "1", "ASPIRIN", "ACETYLSALICYLIC ACID", "PROPHYLAXIS OR NON-THERAPEUTIC USE", "NERVOUS SYSTEM", 1, "TABLET", "QD", "ORAL", 1.0, "SCREENING 1", -7, "SCREENING", "2014-05-10", "2013", "", -12, null, null], ["CDISCPILOT01", "CM", "01-701-1317", 5, "2", "FOLIC ACID", "UNCODED", "PROPHYLAXIS OR NON-THERAPEUTIC USE", "UNCODED", 1, "TABLET", "QD", "ORAL", 1.0, "SCREENING 1", -7, "SCREENING", "2014-05-10", "2013", "", -12, null, null], ["CDISCPILOT01", "CM", "01-701-1317", 6, "4", "PSYLLIUM HYDROPHILIC MUCILLOID", "UNCODED", "PROPHYLAXIS OR NON-THERAPEUTIC USE", "UNCODED", 1, "TABLET", "QD", "ORAL", 1.0, "SCREENING 1", -7, "SCREENING", "2014-05-10", "2014-04", "", -12, null, null], ["CDISCPILOT01", "CM", "01-701-1317", 7, "3", "MULTIVITAMIN", "UNCODED", "PROPHYLAXIS OR NON-THERAPEUTIC USE", "UNCODED", 1, "TABLET", "QD", "ORAL", 2.0, "SCREENING 2", -1, "SCREENING", "2014-05-20", "2009", "", -2, null, null], ["CDISCPILOT01", "CM", "01-701-1317", 8, "6", "VITAMIN E",