{"datasetJSONCreationDateTime": "2025-10-13T16:29:09", "datasetJSONVersion": "1.1.0", "fileOID": "UpdatedCDISCPILOT.CDISC SDTM.3.2.LBCH", "studyOID": "UpdatedCDISCPILOT.CDISC SDTM.3.2", "metaDataVersionOID": "MDV.UpdatedCDISCPILOT.CDISC SDTM.3.2", "itemGroupOID": "{LBCH", "records": 32740, "name": "LBCH", "label": "Laboratory Tests Results", "columns": [{"itemOID": "IT.LBCH.STUDYID", "name": "STUDYID", "label": "Study Identifier", "dataType": "string", "length": 12, "keySequence": 1}, {"itemOID": "IT.LBCH.DOMAIN", "name": "DOMAIN", "label": "Domain Abbreviation", "dataType": "string", "length": 2}, {"itemOID": "IT.LBCH.USUBJID", "name": "USUBJID", "label": "Unique Subject Identifier", "dataType": "string", "length": 11, "keySequence": 2}, {"itemOID": "IT.LBCH.LBSEQ", "name": "LBSEQ", "label": "Sequence Number", "dataType": "integer", "length": 8}, {"itemOID": "IT.LBCH.LBTESTCD", "name": "LBTESTCD", "label": "Lab Test or Examination Short Name", "dataType": "string", "length": 7, "keySequence": 3}, {"itemOID": "IT.LBCH.LBTEST", "name": "LBTEST", "label": "Lab Test or Examination Name", "dataType": "string", "length": 200}, {"itemOID": "IT.LBCH.LBCAT", "name": "LBCAT", "label": "Category for Lab Test", "dataType": "string", "length": 10}, {"itemOID": "IT.LBCH.LBORRES", "name": "LBORRES", "label": "Result or Finding in Original Units", "dataType": "string", "length": 5}, {"itemOID": "IT.LBCH.LBORRESU", "name": "LBORRESU", "label": "Original Units", "dataType": "string", "length": 8}, {"itemOID": "IT.LBCH.LBORNRLO", "name": "LBORNRLO", "label": "Reference Range Lower Limit in Orig Unit", "dataType": "string", "length": 5}, {"itemOID": "IT.LBCH.LBORNRHI", "name": "LBORNRHI", "label": "Reference Range Upper Limit in Orig Unit", "dataType": "string", "length": 7}, {"itemOID": "IT.LBCH.LBSTRESC", "name": "LBSTRESC", "label": "Character Result/Finding in Std Format", "dataType": "string", "length": 8}, {"itemOID": "IT.LBCH.LBSTRESN", "name": "LBSTRESN", "label": "Numeric Result/Finding in Standard Units", "dataType": "integer", "length": 8}, {"itemOID": "IT.LBCH.LBSTRESU", "name": "LBSTRESU", "label": "Standard Units", "dataType": "string", "length": 8}, {"itemOID": "IT.LBCH.LBSTNRLO", "name": "LBSTNRLO", "label": "Reference Range Lower Limit-Std Units", "dataType": "integer", "length": 8}, {"itemOID": "IT.LBCH.LBSTNRHI", "name": "LBSTNRHI", "label": "Reference Range Upper Limit-Std Units", "dataType": "integer", "length": 8}, {"itemOID": "IT.LBCH.LBNRIND", "name": "LBNRIND", "label": "Reference Range Indicator", "dataType": "string", "length": 200}, {"itemOID": "IT.LBCH.LBBLFL", "name": "LBBLFL", "label": "Baseline Flag", "dataType": "string", "length": 1}, {"itemOID": "IT.LBCH.VISITNUM", "name": "VISITNUM", "label": "Visit Number", "dataType": "double", "length": 8, "keySequence": 4}, {"itemOID": "IT.LBCH.VISIT", "name": "VISIT", "label": "Visit Name", "dataType": "string", "length": 19}, {"itemOID": "IT.LBCH.VISITDY", "name": "VISITDY", "label": "Planned Study Day of Visit", "dataType": "integer", "length": 8}, {"itemOID": "IT.LBCH.EPOCH", "name": "EPOCH", "label": "Epoch", "dataType": "string", "length": 9}, {"itemOID": "IT.LBCH.LBDTC", "name": "LBDTC", "label": "Date/Time of Specimen Collection", "dataType": "string", "length": 16}, {"itemOID": "IT.LBCH.LBDY", "name": "LBDY", "label": "Study Day of Specimen Collection", "dataType": "integer", "length": 8}], "rows": [["CDISCPILOT01", "LB", "01-701-1015", 1, "ALB", "Albumin", "CHEMISTRY", "3.8", "g/dL", "3.3", "4.9", "38", 38, "g/L", 33, 49, "NORMAL", "Y", 1.0, "SCREENING 1", -7, "SCREENING", "2013-12-26T14:45", -7], ["CDISCPILOT01", "LB", "01-701-1015", 39, "ALB", "Albumin", "CHEMISTRY", "3.9", "g/dL", "3.3", "4.9", "39", 39, "g/L", 33, 49, "NORMAL", "", 4.0, "WEEK 2", 14, "TREATMENT", "2014-01-16T13:17", 15], ["CDISCPILOT01", "LB", "01-701-1015", 74, "ALB", "Albumin", "CHEMISTRY", "3.8", "g/dL", "3.3", "4.9", "38", 38, "g/L", 33, 49, "NORMAL", "", 5.0, "WEEK 4", 28, "TREATMENT", "2014-01-30T08:50", 29], ["CDISCPILOT01", "LB", "01-701-1015", 104, "ALB", "Albumin", "CHEMISTRY", "3.7", "g/dL", "3.3", "4.9", "37", 37, "g/L", 33, 49, "NORMAL", "", 7.0, "WEEK 6", 42, "TREATMENT", "2014-02-12T12:56", 42], ["CDISCPILOT01", "LB", "01-701-1015", 134, "ALB", "Albumin", "CHEMISTRY", "3.8", "g/dL", "3.3", "4.9", "38", 38, "g/L", 33, 49, "NORMAL", "", 8.0, "WEEK 8", 56, "TREATMENT", "2014-03-05T12:25", 63], ["CDISCPILOT01", "LB", "01-701-1015", 164, "ALB", "Albumin", "CHEMISTRY", "3.8", "g/dL", "3.3", "4.9", "38", 38, "g/L", 33, 49, "NORMAL", "", 9.0, "WEEK 12", 84, "TREATMENT", "2014-03-26T15:15", 84], ["CDISCPILOT01", "LB", "01-701-1015", 199, "ALB", "Albumin", "CHEMISTRY", "3.7", "g/dL", "3.3", "4.9", "37", 37, "g/L", 33, 49, "NORMAL", "", 10.0, "WEEK 16", 112, "TREATMENT", "2014-05-07T11:21", 126], ["CDISCPILOT01", "LB", "01-701-1015", 229, "ALB", "Albumin", "CHEMISTRY", "3.7", "g/dL", "3.3", "4.9", "37", 37, "g/L", 33, 49, "NORMAL", "", 11.0, "WEEK 20", 140, "TREATMENT", "2014-05-21T10:58", 140], ["CDISCPILOT01", "LB", "01-701-1015", 259, "ALB", "Albumin", "CHEMISTRY", "3.8", "g/dL", "3.3", "4.9", "38", 38, "g/L", 33, 49, "NORMAL", "", 12.0, "WEEK 24", 168, "TREATMENT", "2014-06-18T13:00", 168], ["CDISCPILOT01", "LB", "01-701-1015", 294, "ALB", "Albumin", "CHEMISTRY", "3.8", "g/dL", "3.3", "4.9", "38", 38, "g/L", 33, 49, "NORMAL", "", 13.0, "WEEK 26", 182, "TREATMENT", "2014-07-02T11:45", 182], ["CDISCPILOT01", "LB", "01-701-1015", 2, "ALP", "Alkaline Phosphatase", "CHEMISTRY", "34", "U/L", "35", "115", "34", 34, "U/L", 35, 115, "LOW", "Y", 1.0, "SCREENING 1", -7, "SCREENING", "2013-12-26T14:45", -7], ["CDISCPILOT01", "LB", "01-701-1015", 40, "ALP", "Alkaline Phosphatase", "CHEMISTRY", "50", "U/L", "35", "115", "50", 50, "U/L", 35, 115, "NORMAL", "", 4.0, "WEEK 2", 14, "TREATMENT", "2014-01-16T13:17", 15], ["CDISCPILOT01", "LB", "01-701-1015", 75, "ALP", "Alkaline Phosphatase", "CHEMISTRY", "41", "U/L", "35", "115", "41", 41, "U/L", 35, 115, "NORMAL", "", 5.0, "WEEK 4", 28, "TREATMENT", "2014-01-30T08:50", 29], ["CDISCPILOT01", "LB", "01-701-1015", 105, "ALP", "Alkaline Phosphatase", "CHEMISTRY", "43", "U/L", "35", "115", "43", 43, "U/L", 35, 115, "NORMAL", "", 7.0, "WEEK 6", 42, "TREATMENT", "2014-02-12T12:56", 42], ["CDISCPILOT01", "LB", "01-701-1015", 135, "ALP", "Alkaline Phosphatase", "CHEMISTRY", "47", "U/L", "35", "115", "47", 47, "U/L", 35, 115, "NORMAL", "", 8.0, "WEEK 8", 56, "TREATMENT", "2014-03-05T12:25", 63], ["CDISCPILOT01", "LB", "01-701-1015", 165, "ALP", "Alkaline Phosphatase", "CHEMISTRY", "53", "U/L", "35", "115", "53", 53, "U/L", 35, 115, "NORMAL", "", 9.0, "WEEK 12", 84, "TREATMENT", "2014-03-26T15:15", 84], ["CDISCPILOT01", "LB", "01-701-1015", 200, "ALP", "Alkaline Phosphatase", "CHEMISTRY", "41", "U/L", "35", "115", "41", 41, "U/L", 35, 115, "NORMAL", "", 10.0, "WEEK 16", 112, "TREATMENT", "2014-05-07T11:21", 126], ["CDISCPILOT01", "LB", "01-701-1015", 230, "ALP", "Alkaline Phosphatase", "CHEMISTRY", "45", "U/L", "35", "115", "45", 45, "U/L", 35, 115, "NORMAL", "", 11.0, "WEEK 20", 140, "TREATMENT", "2014-05-21T10:58", 140], ["CDISCPILOT01", "LB", "01-701-1015", 260, "ALP", "Alkaline Phosphatase", "CHEMISTRY", "46", "U/L", "35", "115", "46", 46, "U/L", 35, 115, "NORMAL", "", 12.0, "WEEK 24", 168, "TREATMENT", "2014-06-18T13:00", 168], ["CDISCPILOT01", "LB", "01-701-1015", 295, "ALP", "Alkaline Phosphatase", "CHEMISTRY", "44", "U/L", "35", "115", "44", 44, "U/L", 35, 115, "NORMAL", "", 13.0, "WEEK 26", 182, "TREATMENT", "2014-07-02T11:45", 182], ["CDISCPILOT01", "LB", "01-701-1015", 3, "ALT", "Alanine Aminotransferase", "CHEMISTRY", "27", "U/L", "6", "34", "27", 27, "U/L", 6, 34, "NORMAL", "Y", 1.0, "SCREENING 1", -7, "SCREENING", "2013-12-26T14:45", -7], ["CDISCPILOT01", "LB", "01-701-1015", 41, "ALT", "Alanine Aminotransferase", "CHEMISTRY", "41", "U/L", "6", "34", "41", 41, "U/L", 6, 34, "HIGH", "", 4.0, "WEEK 2", 14, "TREATMENT", "2014-01-16T13:17", 15], ["CDISCPILOT01", "LB", "01-701-1015", 76, "ALT", "Alanine Aminotransferase", "CHEMISTRY", "18", "U/L", "6", "34", "18", 18, "U/L", 6, 34, "NORMAL", "", 5.0, "WEEK 4", 28, "TREATMENT", "2014-01-30T08:50", 29], ["CDISCPILOT01", "LB", "01-701-1015", 106, "ALT", "Alanine Aminotransferase", "CHEMISTRY", "26", "U/L", "6", "34", "26", 26, "U/L", 6, 34, "NORMAL", "", 7.0, "WEEK 6", 42, "TREATMENT", "2014-02-12T12:56", 42], ["CDISCPILOT01", "LB", "01-701-1015", 136, "ALT", "Alanine Aminotransferase", "CHEMISTRY", "22", "U/L", "6", "34", "22", 22, "U/L", 6, 34, "NORMAL", "", 8.0, "WEEK 8", 56, "TREATMENT", "2014-03-05T12:25", 63], ["CDISCPILOT01", "LB", "01-701-1015", 166, "ALT", "Alanine Aminotransferase", "CHEMISTRY", "27", "U/L", "6", "34", "27", 27, "U/L", 6, 34, "NORMAL", "", 9.0, "WEEK 12", 84, "TREATMENT", "2014-03-26T15:15", 84], ["CDISCPILOT01", "LB", "01-701-1015", 201, "ALT", "Alanine Aminotransferase", "CHEMISTRY", "17", "U/L", "6", "34", "17", 17, "U/L", 6, 34, "NORMAL", "", 10.0, "WEEK 16", 112, "TREATMENT", "2014-05-07T11:21", 126], ["CDISCPILOT01", "LB", "01-701-1015", 231, "ALT", "Alanine Aminotransferase", "CHEMISTRY", "21", "U/L", "6", "34", "21", 21, "U/L", 6, 34, "NORMAL", "", 11.0, "WEEK 20", 140, "TREATMENT", "2014-05-21T10:58", 140], ["CDISCPILOT01", "LB", "01-701-1015", 261, "ALT", "Alanine Aminotransferase", "CHEMISTRY", "23", "U/L", "6", "34", "23", 23, "U/L", 6, 34, "NORMAL", "", 12.0, "WEEK 24", 168, "TREATMENT", "2014-06-18T13:00", 168], ["CDISCPILOT01", "LB", "01-701-1015", 296, "ALT", "Alanine Aminotransferase", "CHEMISTRY", "23", "U/L", "6", "34", "23", 23, "U/L", 6, 34, "NORMAL", "", 13.0, "WEEK 26", 182, "TREATMENT", "2014-07-02T11:45", 182], ["CDISCPILOT01", "LB", "01-701-1015", 5, "AST", "Aspartate Aminotransferase", "CHEMISTRY", "40", "U/L", "9", "34", "40", 40, "U/L", 9, 34, "HIGH", "Y", 1.0, "SCREENING 1", -7, "SCREENING", "2013-12-26T14:45", -7], ["CDISCPILOT01", "LB", "01-701-1015", 42, "AST", "Aspartate Aminotransferase", "CHEMISTRY", "33", "U/L", "9", "34", "33", 33, "U/L", 9, 34, "NORMAL", "", 4.0, "WEEK 2", 14, "TREATMENT", "2014-01-16T13:17", 15], ["CDISCPILOT01", "LB", "01-701-1015", 77, "AST", "Aspartate Aminotransferase", "CHEMISTRY", "21", "U/L", "9", "34", "21", 21, "U/L", 9, 34, "NORMAL", "", 5.0, "WEEK 4", 28, "TREATMENT", "2014-01-30T08:50", 29], ["CDISCPILOT01", "LB", "01-701-1015", 107, "AST", "Aspartate Aminotransferase", "CHEMISTRY", "26", "U/L", "9", "34", "26", 26, "U/L", 9, 34, "NORMAL", "", 7.0, "WEEK 6", 42, "TREATMENT", "2014-02-12T12:56", 42], ["CDISCPILOT01", "LB", "01-701-1015", 137, "AST", "Aspartate Aminotransferase", "CHEMISTRY", "21", "U/L", "9", "34", "21", 21, "U/L", 9, 34, "NORMAL", "", 8.0, "WEEK 8", 56, "TREATMENT", "2014-03-05T12:25", 63], ["CDISCPILOT01", "LB", "01-701-1015", 167, "AST", "Aspartate Aminotransferase", "CHEMISTRY", "22", "U/L", "9", "34", "22", 22, "U/L", 9, 34, "NORMAL", "", 9.0, "WEEK 12", 84, "TREATMENT", "2014-03-26T15:15", 84], ["CDISCPILOT01", "LB", "01-701-1015", 202, "AST", "Aspartate Aminotransferase", "CHEMISTRY", "23", "U/L", "9", "34", "23", 23, "U/L", 9, 34, "NORMAL", "", 10.0, "WEEK 16", 112, "TREATMENT", "2014-05-07T11:21", 126], ["CDISCPILOT01", "LB", "01-701-1015", 232, "AST", "Aspartate Aminotransferase", "CHEMISTRY", "19", "U/L", "9", "34", "19", 19, "U/L", 9, 34, "NORMAL", "", 11.0, "WEEK 20", 140, "TREATMENT", "2014-05-21T10:58", 140], ["CDISCPILOT01", "LB", "01-701-1015", 262, "AST", "Aspartate Aminotransferase", "CHEMISTRY", "23", "U/L", "9", "34", "23", 23, "U/L", 9, 34, "NORMAL", "", 12.0, "WEEK 24", 168, "TREATMENT", "2014-06-18T13:00", 168], ["CDISCPILOT01", "LB", "01-701-1015", 297, "AST", "Aspartate Aminotransferase", "CHEMISTRY", "19", "U/L", "9", "34", "19", 19, "U/L", 9, 34, "NORMAL", "", 13.0, "WEEK 26", 182, "TREATMENT", "2014-07-02T11:45", 182], ["CDISCPILOT01", "LB", "01-701-1015", 7, "BILI", "Bilirubin", "CHEMISTRY", "0.6", "mg/dL", "0.2", "1.2", "10.26", 10, "umol/L", 3, 21, "NORMAL", "Y", 1.0, "SCREENING 1", -7, "SCREENING", "2013-12-26T14:45", -7], ["CDISCPILOT01", "LB", "01-701-1015", 44, "BILI", "Bilirubin", "CHEMISTRY", "0.5", "mg/dL", "0.2", "1.2", "8.55", 8, "umol/L", 3, 21, "NORMAL", "", 4.0, "WEEK 2", 14, "TREATMENT", "2014-01-16T13:17", 15], ["CDISCPILOT01", "LB", "01-701-1015", 79, "BILI", "Bilirubin", "CHEMISTRY", "0.4", "mg/dL", "0.2", "1.2", "6.84", 6, "umol/L", 3, 21, "NORMAL", "", 5.0, "WEEK 4", 28, "TREATMENT", "2014-01-30T08:50", 29], ["CDISCPILOT01", "LB", "01-701-1015", 109, "BILI", "Bilirubin", "CHEMISTRY", "0.3", "mg/dL", "0.2", "1.2", "5.13", 5, "umol/L", 3, 21, "NORMAL", "", 7.0, "WEEK 6", 42, "TREATMENT", "2014-02-12T12:56", 42], ["CDISCPILOT01", "LB", "01-701-1015", 139, "BILI", "Bilirubin", "CHEMISTRY", "0.5", "mg/dL", "0.2", "1.2", "8.55", 8, "umol/L", 3, 21, "NORMAL", "", 8.0, "WEEK 8", 56, "TREATMENT", "2014-03-05T12:25", 63], ["CDISCPILOT01", "LB", "01-701-1015", 169, "BILI", "Bilirubin", "CHEMISTRY", "0.4", "mg/dL", "0.2", "1.2", "6.84", 6, "umol/L", 3, 21, "NORMAL", "", 9.0, "WEEK 12", 84, "TREATMENT", "2014-03-26T15:15", 84], ["CDISCPILOT01", "LB", "01-701-1015", 204, "BILI", "Bilirubin", "CHEMISTRY", "0.4", "mg/dL", "0.2", "1.2", "6.84", 6, "umol/L", 3, 21, "NORMAL", "", 10.0, "WEEK 16", 112, "TREATMENT", "2014-05-07T11:21", 126], ["CDISCPILOT01", "LB", "01-701-1015", 234, "BILI", "Bilirubin", "CHEMISTRY", "0.4", "mg/dL", "0.2", "1.2", "6.84", 6, "umol/L", 3, 21, "NORMAL", "", 11.0, "WEEK 20", 140, "TREATMENT", "2014-05-21T10:58", 140], ["CDISCPILOT01", "LB", "01-701-1015", 264, "BILI", "Bilirubin", "CHEMISTRY", "0.4", "mg/dL", "0.2", "1.2", "6.84", 6, "umol/L", 3, 21, "NORMAL", "", 12.0, "WEEK 24", 168, "TREATMENT", "2014-06-18T13:00", 168], ["CDISCPILOT01", "LB", "01-701-1015", 299, "BILI", "Bilirubin", "CHEMISTRY", "0.3", "mg/dL", "0.2", "1.2", "5.13", 5, "umol/L", 3, 21, "NORMAL", "", 13.0, "WEEK 26", 182, "TREATMENT", "2014-07-02T11:45", 182], ["CDISCPILOT01", "LB", "01-701-1015", 8, "UREAN", "Urea Nitrogen", "CHEMISTRY", "10", "mg/dL", "4", "24", "3.57", 3, "mmol/L", 1, 8, "NORMAL", "Y", 1.0, "SCREENING 1", -7, "SCREENING", "2013-12-26T14:45", -7], ["CDISCPILOT01", "LB", "01-701-1015", 45, "UREAN", "Urea Nitrogen", "CHEMISTRY", "10", "mg/dL", "4", "24", "3.57", 3, "mmol/L", 1, 8, "NORMAL", "", 4.0, "WEEK 2", 14, "TREATMENT", "2014-01-16T13:17", 15], ["CDISCPILOT01", "LB", "01-701-1015", 80, "UREAN", "Urea Nitrogen", "CHEMISTRY", "8", "mg/dL", "4", "24", "2.856", 2, "mmol/L", 1, 8, "NORMAL", "", 5.0, "WEEK 4", 28, "TREATMENT", "2014-01-30T08:50", 29], ["CDISCPILOT01", "LB", "01-701-1015", 110, "UREAN", "Urea Nitrogen", "CHEMISTRY", "12", "mg/dL", "4", "24", "4.284", 4, "mmol/L", 1, 8, "NORMAL", "", 7.0, "WEEK 6", 42, "TREATMENT", "2014-02-12T12:56", 42], ["CDISCPILOT01", "LB", "01-701-1015", 140, "UREAN", "Urea Nitrogen", "CHEMISTRY", "11", "mg/dL", "4", "24", "3.927", 3, "mmol/L", 1, 8, "NORMAL", "", 8.0, "WEEK 8", 56, "TREATMENT", "2014-03-05T12:25", 63], ["CDISCPILOT01", "LB", "01-701-1015", 170, "UREAN", "Urea Nitrogen", "CHEMISTRY", "10", "mg/dL", "4", "24", "3.57", 3, "mmol/L", 1, 8, "NORMAL", "", 9.0, "WEEK 12", 84, "TREATMENT", "2014-03-26T15:15", 84], ["CDISCPILOT01", "LB", "01-701-1015", 205, "UREAN", "Urea Nitrogen", "CHEMISTRY", "10", "mg/dL", "4", "24", "3.57", 3, "mmol/L", 1, 8, "NORMAL", "", 10.0, "WEEK 16", 112, "TREATMENT", "2014-05-07T11:21", 126], ["CDISCPILOT01", "LB", "01-701-1015", 235, "UREAN", "Urea Nitrogen", "CHEMISTRY", "11", "mg/dL", "4", "24", "3.927", 3, "mmol/L", 1, 8, "NORMAL", "", 11.0, "WEEK 20", 140, "TREATMENT", "2014-05-21T10:58", 140], ["CDISCPILOT01", "LB", "01-701-1015", 265, "UREAN", "Urea Nitrogen", "CHEMISTRY", "12", "mg/dL", "4", "24", "4.284", 4, "mmol/L", 1, 8, "NORMAL", "", 12.0, "WEEK 24", 168, "TREATMENT", "2014-06-18T13:00", 168], ["CDISCPILOT01", "LB", "01-701-1015", 300, "UREAN", "Urea Nitrogen", "CHEMISTRY", "11", "mg/dL", "4", "24", "3.927", 3, "mmol/L", 1, 8, "NORMAL", "", 13.0, "WEEK 26", 182, "TREATMENT", "2014-07-02T11:45", 182], ["CDISCPILOT01", "LB", "01-701-1015", 9, "CA", "Calcium", "CHEMISTRY", "8.8", "mg/dL", "8.4", "10.3", "2.1956", 2, "mmol/L", 2, 2, "NORMAL", "Y", 1.0, "SCREENING 1", -7, "SCREENING", "2013-12-26T14:45", -7], ["CDISCPILOT01", "LB", "01-701-1015", 46, "CA", "Calcium", "CHEMISTRY", "9.4", "mg/dL", "8.4", "10.3", "2.3453", 2, "mmol/L", 2, 2, "NORMAL", "", 4.0, "WEEK 2", 14, "TREATMENT", "2014-01-16T13:17", 15], ["CDISCPILOT01", "LB", "01-701-1015", 81, "CA", "Calcium", "CHEMISTRY", "9.1", "mg/dL", "8.4", "10.3", "2.27045", 2, "mmol/L", 2, 2, "NORMAL", "", 5.0, "WEEK 4", 28, "TREATMENT", "2014-01-30T08:50", 29], ["CDISCPILOT01", "LB", "01-701-1015", 111, "CA", "Calcium", "CHEMISTRY", "9.2", "mg/dL", "8.4", "10.3", "2.2954", 2, "mmol/L", 2, 2, "NORMAL", "", 7.0, "WEEK 6", 42, "TREATMENT", "2014-02-12T12:56", 42], ["CDISCPILOT01", "LB", "01-701-1015", 141, "CA", "Calcium", "CHEMISTRY", "8.9", "mg/dL", "8.4", "10.3", "2.22055", 2, "mmol/L", 2, 2, "NORMAL", "", 8.0, "WEEK 8", 56, "TREATMENT", "2014-03-05T12:25", 63], ["CDISCPILOT01", "LB", "01-701-1015", 171, "CA", "Calcium", "CHEMISTRY", "9.4", "mg/dL", "8.4", "10.3", "2.3453", 2, "mmol/L", 2, 2, "NORMAL", "", 9.0, "WEEK 12", 84, "TREATMENT", "2014-03-26T15:15", 84], ["CDISCPILOT01", "LB", "01-701-1015", 206, "CA", "Calcium", "CHEMISTRY", "8.8", "mg/dL", "8.4", "10.3", "2.1956", 2, "mmol/L", 2, 2, "NORMAL", "", 10.0, "WEEK 16", 112, "TREATMENT", "2014-05-07T11:21", 126], ["CDISCPILOT01", "LB", "01-701-1015", 236, "CA", "Calcium", "CHEMISTRY", "8.7", "mg/dL", "8.4", "10.3", "2.17065", 2, "mmol/L", 2, 2, "NORMAL", "", 11.0, "WEEK 20", 140, "TREATMENT", "2014-05-21T10:58", 140], ["CDISCPILOT01", "LB", "01-701-1015", 266, "CA", "Calcium", "CHEMISTRY", "8.9", "mg/dL", "8.4", "10.3", "2.22055", 2, "mmol/L", 2, 2, "NORMAL", "", 12.0, "WEEK 24", 168, "TREATMENT", "2014-06-18T13:00", 168], ["CDISCPILOT01", "LB", "01-701-1015", 301, "CA", "Calcium", "CHEMISTRY", "8.8", "mg/dL", "8.4", "10.3", "2.1956", 2, "mmol/L", 2, 2, "NORMAL", "", 13.0, "WEEK 26", 182, "TREATMENT", "2014-07-02T11:45", 182], ["CDISCPILOT01", "LB", "01-701-1015", 10, "CHOL", "Cholesterol", "CHEMISTRY", "230", "mg/dL", "156", "300", "5.9478", 5, "mmol/L", 4, 7, "NORMAL", "Y", 1.0, "SCREENING 1", -7, "SCREENING", "2013-12-26T14:45", -7], ["CDISCPILOT01", "LB", "01-701-1015", 47, "CHOL", "Cholesterol", "CHEMISTRY", "212", "mg/dL", "156", "300", "5.48232", 5, "mmol/L", 4, 7, "NORMAL", "", 4.0, "WEEK 2", 14, "TREATMENT", "2014-01-16T13:17", 15], ["CDISCPILOT01", "LB", "01-701-1015", 82, "CHOL", "Cholesterol", "CHEMISTRY", "193", "mg/dL", "156", "300", "4.99098", 4, "mmol/L", 4, 7, "NORMAL", "", 5.0, "WEEK 4", 28, "TREATMENT", "2014-01-30T08:50", 29], ["CDISCPILOT01", "LB", "01-701-1015", 112, "CHOL", "Cholesterol", "CHEMISTRY", "218", "mg/dL", "156", "300", "5.63748", 5, "mmol/L", 4, 7, "NORMAL", "", 7.0, "WEEK 6", 42, "TREATMENT", "2014-02-12T12:56", 42], ["CDISCPILOT01", "LB", "01-701-1015", 142, "CHOL", "Cholesterol", "CHEMISTRY", "214", "mg/dL", "156", "300", "5.53404", 5, "mmol/L", 4, 7, "NORMAL", "", 8.0, "WEEK 8", 56, "TREATMENT", "2014-03-05T12:25", 63], ["CDISCPILOT01", "LB", "01-701-1015", 172, "CHOL", "Cholesterol", "CHEMISTRY", "218", "mg/dL", "156", "300", "5.63748", 5, "mmol/L", 4, 7, "NORMAL", "", 9.0, "WEEK 12", 84, "TREATMENT", "2014-03-26T15:15", 84], ["CDISCPILOT01", "LB", "01-701-1015", 207, "CHOL", "Cholesterol", "CHEMISTRY", "213", "mg/dL", "156", "300", "5.50818", 5, "mmol/L", 4, 7, "NORMAL", "", 10.0, "WEEK 16", 112, "TREATMENT", "2014-05-07T11:21", 126], ["CDISCPILOT01", "LB", "01-701-1015", 237, "CHOL", "Cholesterol", "CHEMISTRY", "207", "mg/dL", "156", "300", "5.35302", 5, "mmol/L", 4, 7, "NORMAL", "", 11.0, "WEEK 20", 140, "TREATMENT", "2014-05-21T10:58", 140], ["CDISCPILOT01", "LB", "01-701-1015", 267, "CHOL", "Cholesterol", "CHEMISTRY", "201", "mg/dL", "156", "300", "5.19786", 5, "mmol/L", 4, 7, "NORMAL", "", 12.0, "WEEK 24", 168, "TREATMENT", "2014-06-18T13:00", 168], ["CDISCPILOT01", "LB", "01-701-1015", 302, "CHOL", "Cholesterol", "CHEMISTRY", "214", "mg/dL", "156", "300", "5.53404", 5, "mmol/L", 4, 7, "NORMAL", "", 13.0, "WEEK 26", 182, "TREATMENT", "2014-07-02T11:45", 182], ["CDISCPILOT01", "LB", "01-701-1015", 11, "CK", "Creatine Kinase", "CHEMISTRY", "70", "U/L", "21", "169", "70", 70, "U/L", 21, 169, "NORMAL", "Y", 1.0, "SCREENING 1", -7, "SCREENING", "2013-12-26T14:45", -7], ["CDISCPILOT01", "LB", "01-701-1015", 48, "CK", "Creatine Kinase", "CHEMISTRY", "54", "U/L", "21", "169", "54", 54, "U/L", 21, 169, "NORMAL", "", 4.0, "WEEK 2", 14, "TREATMENT", "2014-01-16T13:17", 15], ["CDISCPILOT01", "LB", "01-701-1015", 83, "CK", "Creatine Kinase", "CHEMISTRY", "45", "U/L", "21", "169", "45", 45, "U/L", 21, 169, "NORMAL", "", 5.0, "WEEK 4", 28, "TREATMENT", "2014-01-30T08:50", 29], ["CDISCPILOT01", "LB", "01-701-1015", 113, "CK", "Creatine Kinase", "CHEMISTRY", "64", "U/L", "21", "169", "64", 64, "U/L", 21, 169, "NORMAL", "", 7.0, "WEEK 6", 42, "TREATMENT", "2014-02-12T12:56", 42], ["CDISCPILOT01", "LB", "01-701-1015", 143, "CK", "Creatine Kinase", "CHEMISTRY", "49", "U/L", "21", "169", "49", 49, "U/L", 21, 169, "NORMAL", "", 8.0, "WEEK 8", 56, "TREATMENT", "2014-03-05T12:25", 63], ["CDISCPILOT01", "LB", "01-701-1015", 173, "CK", "Creatine Kinase", "CHEMISTRY", "56", "U/L", "21", "169", "56", 56, "U/L", 21, 169, "NORMAL", "", 9.0, "WEEK 12", 84, "TREATMENT", "2014-03-26T15:15", 84], ["CDISCPILOT01", "LB", "01-701-1015", 208, "CK", "Creatine Kinase", "CHEMISTRY", "50", "U/L", "21", "169", "50", 50, "U/L", 21, 169, "NORMAL", "", 10.0, "WEEK 16", 112, "TREATMENT", "2014-05-07T11:21", 126], ["CDISCPILOT01", "LB", "01-701-1015", 238, "CK", "Creatine Kinase", "CHEMISTRY", "50", "U/L", "21", "169", "50", 50, "U/L", 21, 169, "NORMAL", "", 11.0, "WEEK 20", 140, "TREATMENT", "2014-05-21T10:58", 140], ["CDISCPILOT01", "LB", "01-701-1015", 268, "CK", "Creatine Kinase", "CHEMISTRY", "42", "U/L", "21", "169", "42", 42, "U/L", 21, 169, "NORMAL", "", 12.0, "WEEK 24", 168, "TREATMENT", "2014-06-18T13:00", 168], ["CDISCPILOT01", "LB", "01-701-1015", 303, "CK", "Creatine Kinase", "CHEMISTRY", "44", "U/L", "21", "169", "44", 44, "U/L", 21, 169, "NORMAL", "", 13.0, "WEEK 26", 182, "TREATMENT", "2014-07-02T11:45", 182], ["CDISCPILOT01", "LB", "01-701-1015", 12, "CL", "Chloride", "CHEMISTRY", "106", "mEq/L", "94", "112", "106", 106, "mmol/L", 94, 112, "NORMAL", "Y", 1.0, "SCREENING 1", -7, "SCREENING", "2013-12-26T14:45", -7], ["CDISCPILOT01", "LB", "01-701-1015", 49, "CL", "Chloride", "CHEMISTRY", "103", "mEq/L", "94", "112", "103", 103, "mmol/L", 94, 112, "NORMAL", "", 4.0, "WEEK 2", 14, "TREATMENT", "2014-01-16T13:17", 15], ["CDISCPILOT01", "LB", "01-701-1015", 84, "CL", "Chloride", "CHEMISTRY", "107", "mEq/L", "94", "112", "107", 107, "mmol/L", 94, 112, "NORMAL", "", 5.0, "WEEK 4", 28, "TREATMENT", "2014-01-30T08:50", 29], ["CDISCPILOT01", "LB", "01-701-1015", 114, "CL", "Chloride", "CHEMISTRY", "105", "mEq/L", "94", "112", "105", 105, "mmol/L", 94, 112, "NORMAL", "", 7.0, "WEEK 6", 42, "TREATMENT", "2014-02-12T12:56", 42], ["CDISCPILOT01", "LB", "01-701-1015", 144, "CL", "Chloride", "CHEMISTRY", "105", "mEq/L", "94", "112", "105", 105, "mmol/L", 94, 112, "NORMAL", "", 8.0, "WEEK 8", 56, "TREATMENT", "2014-03-05T12:25", 63], ["CDISCPILOT01", "LB", "01-701-1015", 174, "CL", "Chloride", "CHEMISTRY", "99", "mEq/L", "94", "112", "99", 99, "mmol/L", 94, 112, "NORMAL", "", 9.0, "WEEK 12", 84, "TREATMENT", "2014-03-26T15:15", 84], ["CDISCPILOT01", "LB", "01-701-1015", 209, "CL", "Chloride", "CHEMISTRY", "103", "mEq/L", "94", "112", "103", 103, "mmol/L", 94, 112, "NORMAL", "", 10.0, "WEEK 16", 112, "TREATMENT", "2014-05-07T11:21", 126], ["CDISCPILOT01", "LB", "01-701-1015", 239, "CL", "Chloride", "CHEMISTRY", "108", "mEq/L", "94", "112", "108", 108, "mmol/L", 94, 112, "NORMAL", "", 11.0, "WEEK 20", 140, "TREATMENT", "2014-05-21T10:58", 140], ["CDISCPILOT01", "LB", "01-701-1015", 269, "CL", "Chloride", "CHEMISTRY", "103", "mEq/L", "94", "112", "103", 103, "mmol/L", 94, 112, "NORMAL", "", 12.0, "WEEK 24", 168, "TREATMENT", "2014-06-18T13:00", 168], ["CDISCPILOT01", "LB", "01-701-1015", 304, "CL", "Chloride", "CHEMISTRY", "104", "mEq/L", "94", "112", "104", 104, "mmol/L", 94, 112, "NORMAL", "", 13.0, "WEEK 26", 182, "TREATMENT", "2014-07-02T11:45", 182], ["CDISCPILOT01", "LB", "01-701-1015", 14, "CREAT", "Creatinine", "CHEMISTRY", "0.9", "mg/dL", "0.7", "1.4", "79.56", 79, "umol/L", 62, 124, "NORMAL", "Y", 1.0, "SCREENING 1", -7, "SCREENING", "2013-12-26T14:45", -7], ["CDISCPILOT01", "LB", "01-701-1015", 51, "CREAT", "Creatinine", "CHEMISTRY", "1.0", "mg/dL", "0.7", "1.4", "88.4", 88, "umol/L", 62, 124, "NORMAL", "", 4.0, "WEEK 2", 14, "TREATMENT", "2014-01-16T13:17", 15], ["CDISCPILOT01", "LB", "01-701-1015", 85, "CREAT", "Creatinine", "CHEMISTRY", "0.8", "mg/dL", "0.7", "1.4", "70.72", 70, "umol/L", 62, 124, "NORMAL", "", 5.0, "WEEK 4", 28, "TREATMENT", "2014-01-30T08:50", 29], ["CDISCPILOT01", "LB", "01-701-1015", 115, "CREAT", "Creatinine", "CHEMISTRY", "1.0", "mg/dL", "0.7", "1.4", "88.4", 88, "umol/L", 62, 124, "NORMAL", "", 7.0, "WEEK 6", 42, "TREATMENT", "2014-02-12T12:56", 42], ["CDISCPILOT01", "LB", "01-701-1015", 145, "CREAT", "Creatinine", "CHEMISTRY", "1.0", "mg/dL", "0.7", "1.4", "88.4", 88, "umol/L", 62, 124, "NORMAL", "", 8.0, "WEEK 8", 56, "TREATMENT", "2014-03-05T12:25", 63], ["CDISCPILOT01", "LB", "01-701-1015", 176, "CREAT", "Creatinine", "CHEMISTRY", "0.9", "mg/dL", "0.7", "1.4", "79.56", 79, "umol/L", 62, 124, "NORMAL", "", 9.0, "WEEK 12", 84, "TREATMENT", "2014-03-26T15:15", 84], ["CDISCPILOT01", "LB", "01-701-1015", 210, "CREAT", "Creatinine", "CHEMISTRY", "1.0", "mg/dL", "0.7", "1.4", "88.4", 88, "umol/L", 62, 124, "NORMAL", "", 10.0, "WEEK 16", 112, "TREATMENT", "2014-05-07T11:21", 126], ["CDISCPILOT01", "LB", "01-701-1015", 240, "CREAT", "Creatinine", "CHEMISTRY", "0.9", "mg/dL", "0.7", "1.4", "79.56", 79, "umol/L", 62, 124, "NORMAL", "", 11.0, "WEEK 20", 140, "TREATMENT", "2014-05-21T10:58", 140], ["CDISCPILOT01", "LB", "01-701-1015", 271, "CREAT", "Creatinine", "CHEMISTRY", "0.9", "mg/dL", "0.7", "1.4", "79.56", 79, "umol/L", 62, 124, "NORMAL", "", 12.0, "WEEK 24", 168, "TREATMENT", "2014-06-18T13:00", 168], ["CDISCPILOT01", "LB", "01-701-1015", 305, "CREAT", "Creatinine", "CHEMISTRY", "1.0", "mg/dL", "0.7", "1.4", "88.4", 88, "umol/L", 62, 124, "NORMAL", "", 13.0, "WEEK 26", 182, "TREATMENT", "2014-07-02T11:45", 182], ["CDISCPILOT01", "LB", "01-701-1015", 16, "GGT", "Gamma Glutamyl Transferase", "CHEMISTRY", "15", "U/L", "5", "50", "15", 15, "U/L", 5, 50, "NORMAL", "Y", 1.0, "SCREENING 1", -7, "SCREENING", "2013-12-26T14:45", -7], ["CDISCPILOT01", "LB", "01-701-1015", 53, "GGT", "Gamma Glutamyl Transferase", "CHEMISTRY", "19", "U/L", "5", "50", "19", 19, "U/L", 5, 50, "NORMAL", "", 4.0, "WEEK 2", 14, "TREATMENT", "2014-01-16T13:17", 15], ["CDISCPILOT01", "LB", "01-701-1015", 87, "GGT", "Gamma Glutamyl Transferase", "CHEMISTRY", "15", "U/L", "5", "50", "15", 15, "U/L", 5, 50, "NORMAL", "", 5.0, "WEEK 4", 28, "TREATMENT", "2014-01-30T08:50", 29], ["CDISCPILOT01", "LB", "01-701-1015", 117, "GGT", "Gamma Glutamyl Transferase", "CHEMISTRY", "14", "U/L", "5", "50", "14", 14, "U/L", 5, 50, "NORMAL", "", 7.0, "WEEK 6", 42, "TREATMENT", "2014-02-12T12:56", 42], ["CDISCPILOT01", "LB", "01-701-1015", 147, "GGT", "Gamma Glutamyl Transferase", "CHEMISTRY", "14", "U/L", "5", "50", "14", 14, "U/L", 5, 50, "NORMAL", "", 8.0, "WEEK 8", 56, "TREATMENT", "2014-03-05T12:25", 63], ["CDISCPILOT01", "LB", "01-701-1015", 178, "GGT", "Gamma Glutamyl Transferase", "CHEMISTRY", "23", "U/L", "5", "50", "23", 23, "U/L", 5, 50, "NORMAL", "", 9.0, "WEEK 12", 84, "TREATMENT", "2014-03-26T15:15", 84], ["CDISCPILOT01", "LB", "01-701-1015", 212, "GGT", "Gamma Glutamyl Transferase", "CHEMISTRY", "15", "U/L", "5", "50", "15", 15, "U/L", 5, 50, "NORMAL", "", 10.0, "WEEK 16", 112, "TREATMENT", "2014-05-07T11:21", 126], ["CDISCPILOT01", "LB", "01-701-1015", 242, "GGT", "Gamma Glutamyl Transferase", "CHEMISTRY", "17", "U/L", "5", "50", "17", 17, "U/L", 5, 50, "NORMAL", "", 11.0, "WEEK 20", 140, "TREATMENT", "2014-05-21T10:58", 140], ["CDISCPILOT01", "LB", "01-701-1015", 273, "GGT", "Gamma Glutamyl Transferase", "CHEMISTRY", "20", "U/L", "5", "50", "20", 20, "U/L", 5, 50, "NORMAL", "", 12.0, "WEEK 24", 168, "TREATMENT", "2014-06-18T13:00", 168], ["CDISCPILOT01", "LB", "01-701-1015", 307, "GGT", "Gamma Glutamyl Transferase", "CHEMISTRY", "16", "U/L", "5", "50", "16", 16, "U/L", 5, 50, "NORMAL", "", 13.0, "WEEK 26", 182, "TREATMENT", "2014-07-02T11:45", 182], ["CDISCPILOT01", "LB", "01-701-1015", 17, "GLUC", "Glucose", "CHEMISTRY", "85", "mg/dL", "50", "250", "4.71835", 4, "mmol/L", 2, 13, "NORMAL", "Y", 1.0, "SCREENING 1", -7, "SCREENING", "2013-12-26T14:45", -7], ["CDISCPILOT01", "LB", "01-701-1015", 54, "GLUC", "Glucose", "CHEMISTRY", "84", "mg/dL", "50", "250", "4.66284", 4, "mmol/L", 2, 13, "NORMAL", "", 4.0, "WEEK 2", 14, "TREATMENT", "2014-01-16T13:17", 15], ["CDISCPILOT01", "LB", "01-701-1015", 88, "GLUC", "Glucose", "CHEMISTRY", "79", "mg/dL", "50", "250", "4.38529", 4, "mmol/L", 2, 13, "NORMAL", "", 5.0, "WEEK 4", 28, "TREATMENT", "2014-01-30T08:50", 29], ["CDISCPILOT01", "LB", "01-701-1015", 118, "GLUC", "Glucose", "CHEMISTRY", "92", "mg/dL", "50", "250", "5.10692", 5, "mmol/L", 2, 13, "NORMAL", "", 7.0, "WEEK 6", 42, "TREATMENT", "2014-02-12T12:56", 42], ["CDISCPILOT01", "LB", "01-701-1015", 148, "GLUC", "Glucose", "CHEMISTRY", "82", "mg/dL", "50", "250", "4.55182", 4, "mmol/L", 2, 13, "NORMAL", "", 8.0, "WEEK 8", 56, "TREATMENT", "2014-03-05T12:25", 63], ["CDISCPILOT01", "LB", "01-701-1015", 179, "GLUC", "Glucose", "CHEMISTRY", "87", "mg/dL", "50", "250", "4.82937", 4, "mmol/L", 2, 13, "NORMAL", "", 9.0, "WEEK 12", 84, "TREATMENT", "2014-03-26T15:15", 84], ["CDISCPILOT01", "LB", "01-701-1015", 213, "GLUC", "Glucose", "CHEMISTRY", "86", "mg/dL", "50", "250", "4.77386", 4, "mmol/L", 2, 13, "NORMAL", "", 10.0, "WEEK 16", 112, "TREATMENT", "2014-05-07T11:21", 126], ["CDISCPILOT01", "LB", "01-701-1015", 243, "GLUC", "Glucose", "CHEMISTRY", "88", "mg/dL", "50", "250", "4.88488", 4, "mmol/L", 2, 13, "NORMAL", "", 11.0, "WEEK 20", 140, "TREATMENT", "2014-05-21T10:58", 140], ["CDISCPILOT01", "LB", "01-701-1015", 274, "GLUC", "Glucose", "CHEMISTRY", "81", "mg/dL", "50", "250", "4.49631", 4, "mmol/L", 2, 13, "NORMAL", "", 12.0, "WEEK 24", 168, "TREATMENT", "2014-06-18T13:00", 168], ["CDISCPILOT01", "LB", "01-701-1015", 308, "GLUC", "Glucose", "CHEMISTRY", "92", "mg/dL", "50", "250", "5.10692", 5, "mmol/L", 2, 13, "NORMAL", "", 13.0, "WEEK 26", 182, "TREATMENT", "2014-07-02T11:45", 182], ["CDISCPILOT01", "LB", "01-701-1015", 20, "K", "Potassium", "CHEMISTRY", "4.5", "mEq/L", "3.4", "5.4", "4.5", 4, "mmol/L", 3, 5, "NORMAL", "Y", 1.0, "SCREENING 1", -7, "SCREENING", "2013-12-26T14:45", -7], ["CDISCPILOT01", "LB", "01-701-1015", 57, "K", "Potassium", "CHEMISTRY", "4.4", "mEq/L", "3.4", "5.4", "4.4", 4, "mmol/L", 3, 5, "NORMAL", "", 4.0, "WEEK 2", 14, "TREATMENT", "2014-01-16T13:17", 15], ["CDISCPILOT01", "LB", "01-701-1015", 91, "K", "Potassium", "CHEMISTRY", "4.5", "mEq/L", "3.4", "5.4", "4.5", 4, "mmol/L", 3, 5, "NORMAL", "", 5.0, "WEEK 4", 28, "TREATMENT", "2014-01-30T08:50", 29], ["CDISCPILOT01", "LB", "01-701-1015", 121, "K", "Potassium", "CHEMISTRY", "4.6", "mEq/L", "3.4", "5.4", "4.6", 4, "mmol/L", 3, 5, "NORMAL", "", 7.0, "WEEK 6", 42, "TREATMENT", "2014-02-12T12:56", 42], ["CDISCPILOT01", "LB", "01-701-1015", 151, "K", "Potassium", "CHEMISTRY", "4.1", "mEq/L", "3.4", "5.4", "4.1", 4, "mmol/L", 3, 5, "NORMAL", "", 8.0, "WEEK 8", 56, "TREATMENT", "2014-03-05T12:25", 63], ["CDISCPILOT01", "LB", "01-701-1015", 182, "K", "Potassium", "CHEMISTRY", "3.6", "mEq/L", "3.4", "5.4", "3.6", 3, "mmol/L", 3, 5, "NORMAL", "", 9.0, "WEEK 12", 84, "TREATMENT", "2014-03-26T15:15", 84], ["CDISCPILOT01", "LB", "01-701-1015", 216, "K", "Potassium", "CHEMISTRY", "4.1", "mEq/L", "3.4", "5.4", "4.1", 4, "mmol/L", 3, 5, "NORMAL", "", 10.0, "WEEK 16", 112, "TREATMENT", "2014-05-07T11:21", 126], ["CDISCPILOT01", "LB", "01-701-1015", 246, "K", "Potassium", "CHEMISTRY", "4.3", "mEq/L", "3.4", "5.4", "4.3", 4, "mmol/L", 3, 5, "NORMAL", "", 11.0, "WEEK 20", 140, "TREATMENT", "2014-05-21T10:58", 140], ["CDISCPILOT01", "LB", "01-701-1015", 277, "K", "Potassium", "CHEMISTRY", "4.1", "mEq/L", "3.4", "5.4", "4.1", 4, "mmol/L", 3, 5, "NORMAL", "", 12.0, "WEEK 24", 168, "TREATMENT", "2014-06-18T13:00", 168], ["CDISCPILOT01", "LB", "01-701-1015", 311, "K", "Potassium", "CHEMISTRY", "4.5", "mEq/L", "3.4", "5.4", "4.5", 4, "mmol/L", 3, 5, "NORMAL", "", 13.0, "WEEK 26", 182, "TREATMENT", "2014-07-02T11:45", 182], ["CDISCPILOT01", "LB", "01-701-1015", 27, "SODIUM", "Sodium", "CHEMISTRY", "140", "mEq/L", "135", "145", "140", 140, "mmol/L", 135, 145, "NORMAL", "Y", 1.0, "SCREENING 1", -7, "SCREENING", "2013-12-26T14:45", -7], ["CDISCPILOT01", "LB", "01-701-1015", 64, "SODIUM", "Sodium", "CHEMISTRY", "142", "mEq/L", "135", "145", "142", 142, "mmol/L", 135, 145, "NORMAL", "", 4.0, "WEEK 2", 14, "TREATMENT", "2014-01-16T13:17", 15], ["CDISCPILOT01", "LB", "01-701-1015", 97, "SODIUM", "Sodium", "CHEMISTRY", "140", "mEq/L", "135", "145", "140", 140, "mmol/L", 135, 145, "NORMAL", "", 5.0, "WEEK 4", 28, "TREATMENT", "2014-01-30T08:50", 29], ["CDISCPILOT01", "LB", "01-701-1015", 127, "SODIUM", "Sodium", "CHEMISTRY", "140", "mEq/L", "135", "145", "140", 140, "mmol/L", 135, 145, "NORMAL", "", 7.0, "WEEK 6", 42, "TREATMENT", "2014-02-12T12:56", 42], ["CDISCPILOT01", "LB", "01-701-1015", 157, "SODIUM", "Sodium", "CHEMISTRY", "141", "mEq/L", "135", "145", "141", 141, "mmol/L", 135, 145, "NORMAL", "", 8.0, "WEEK 8", 56, "TREATMENT", "2014-03-05T12:25", 63], ["CDISCPILOT01", "LB", "01-701-1015", 189, "SODIUM", "Sodium", "CHEMISTRY", "139", "mEq/L", "135", "145", "139", 139, "mmol/L", 135, 145, "NORMAL", "", 9.0, "WEEK 12", 84, "TREATMENT", "2014-03-26T15:15", 84], ["CDISCPILOT01", "LB", "01-701-1015", 222, "SODIUM", "Sodium", "CHEMISTRY", "141", "mEq/L", "135", "145", "141", 141, "mmol/L", 135, 145, "NORMAL", "", 10.0, "WEEK 16", 112, "TREATMENT", "2014-05-07T11:21", 126], ["CDISCPILOT01", "LB", "01-701-1015", 252, "SODIUM", "Sodium", "CHEMISTRY", "142", "mEq/L", "135", "145", "142", 142, "mmol/L", 135, 145, "NORMAL", "", 11.0, "WEEK 20", 140, "TREATMENT", "2014-05-21T10:58", 140], ["CDISCPILOT01", "LB", "01-701-1015", 284, "SODIUM", "Sodium", "CHEMISTRY", "140", "mEq/L", "135", "145", "140", 140, "mmol/L", 135, 145, "NORMAL", "", 12.0, "WEEK 24", 168, "TREATMENT", "2014-06-18T13:00", 168], ["CDISCPILOT01", "LB", "01-701-1015", 317, "SODIUM", "Sodium", "CHEMISTRY", "140", "mEq/L", "135", "145", "140", 140, "mmol/L", 135, 145, "NORMAL", "", 13.0, "WEEK 26", 182, "TREATMENT", "2014-07-02T11:45", 182], ["CDISCPILOT01", "LB", "01-701-1015", 29, "PHOS", "Phosphate", "CHEMISTRY", "3.8", "mg/dL", "2.2", "5.1", "1.22702", 1, "mmol/L", 0, 1, "NORMAL", "Y", 1.0, "SCREENING 1", -7, "SCREENING", "2013-12-26T14:45", -7], ["CDISCPILOT01", "LB", "01-701-1015", 66, "PHOS", "Phosphate", "CHEMISTRY", "3.9", "mg/dL", "2.2", "5.1", "1.25931", 1, "mmol/L", 0, 1, "NORMAL", "", 4.0, "WEEK 2", 14, "TREATMENT", "2014-01-16T13:17", 15], ["CDISCPILOT01", "LB", "01-701-1015", 98, "PHOS", "Phosphate", "CHEMISTRY", "3.5", "mg/dL", "2.2", "5.1", "1.13015", 1, "mmol/L", 0, 1, "NORMAL", "", 5.0, "WEEK 4", 28, "TREATMENT", "2014-01-30T08:50", 29], ["CDISCPILOT01", "LB", "01-701-1015", 128, "PHOS", "Phosphate", "CHEMISTRY", "3.8", "mg/dL", "2.2", "5.1", "1.22702", 1, "mmol/L", 0, 1, "NORMAL", "", 7.0, "WEEK 6", 42, "TREATMENT", "2014-02-12T12:56", 42], ["CDISCPILOT01", "LB", "01-701-1015", 158, "PHOS", "Phosphate", "CHEMISTRY", "3.6", "mg/dL", "2.2", "5.1", "1.16244", 1, "mmol/L", 0, 1, "NORMAL", "", 8.0, "WEEK 8", 56, "TREATMENT", "2014-03-05T12:25", 63], ["CDISCPILOT01", "LB", "01-701-1015", 191, "PHOS", "Phosphate", "CHEMISTRY", "3.8", "mg/dL", "2.2", "5.1", "1.22702", 1, "mmol/L", 0, 1, "NORMAL", "", 9.0, "WEEK 12", 84, "TREATMENT", "2014-03-26T15:15", 84], ["CDISCPILOT01", "LB", "01-701-1015", 223, "PHOS", "Phosphate", "CHEMISTRY", "4.0", "mg/dL", "2.2", "5.1", "1.2916", 1, "mmol/L", 0, 1, "NORMAL", "", 10.0, "WEEK 16", 112, "TREATMENT", "2014-05-07T11:21", 126], ["CDISCPILOT01", "LB", "01-701-1015", 253, "PHOS", "Phosphate", "CHEMISTRY", "3.4", "mg/dL", "2.2", "5.1", "1.09786", 1, "mmol/L", 0, 1, "NORMAL", "", 11.0, "WEEK 20", 140, "TREATMENT", "2014-05-21T10:58", 140], ["CDISCPILOT01", "LB", "01-701-1015", 286, "PHOS", "Phosphate", "CHEMISTRY", "3.9", "mg/dL", "2.2", "5.1", "1.25931", 1, "mmol/L", 0, 1, "NORMAL", "", 12.0, "WEEK 24", 168, "TREATMENT", "2014-06-18T13:00", 168], ["CDISCPILOT01", "LB", "01-701-1015", 318, "PHOS", "Phosphate", "CHEMISTRY", "4.2", "mg/dL", "2.2", "5.1", "1.35618", 1, "mmol/L", 0, 1, "NORMAL", "", 13.0, "WEEK 26", 182, "TREATMENT", "2014-07-02T11:45", 182], ["CDISCPILOT01", "LB", "01-701-1015", 31, "PROT", "Protein", "CHEMISTRY", "6.1", "g/dL", "6", "8", "61", 61, "g/L", 60, 80, "NORMAL", "Y", 1.0, "SCREENING 1", -7, "SCREENING", "2013-12-26T14:45", -7], ["CDISCPILOT01", "LB", "01-701-1015", 68, "PROT", "Protein", "CHEMISTRY", "7.7", "g/dL", "6", "8", "77", 77, "g/L", 60, 80, "NORMAL", "", 4.0, "WEEK 2", 14, "TREATMENT", "2014-01-16T13:17", 15], ["CDISCPILOT01", "LB", "01-701-1015", 100, "PROT", "Protein", "CHEMISTRY", "6.9", "g/dL", "6", "8", "69", 69, "g/L", 60, 80, "NORMAL", "", 5.0, "WEEK 4", 28, "TREATMENT", "2014-01-30T08:50", 29], ["CDISCPILOT01", "LB", "01-701-1015", 130, "PROT", "Protein", "CHEMISTRY", "6.8", "g/dL", "6", "8", "68", 68, "g/L", 60, 80, "NORMAL", "", 7.0, "WEEK 6", 42, "TREATMENT", "2014-02-12T12:56", 42], ["CDISCPILOT01", "LB", "01-701-1015", 160, "PROT", "Protein", "CHEMISTRY", "6.9", "g/dL", "6", "8", "69", 69, "g/L", 60, 80, "NORMAL", "", 8.0, "WEEK 8", 56, "TREATMENT", "2014-03-05T12:25", 63], ["CDISCPILOT01", "LB", "01-701-1015", 193, "PROT", "Protein", "CHEMISTRY", "7.0", "g/dL", "6", "8", "70", 70, "g/L", 60, 80, "NORMAL", "", 9.0, "WEEK 12", 84, "TREATMENT", "2014-03-26T15:15", 84], ["CDISCPILOT01", "LB", "01-701-1015", 225, "PROT", "Protein", "CHEMISTRY", "6.8", "g/dL", "6", "8", "68", 68, "g/L", 60, 80, "NORMAL", "", 10.0, "WEEK 16", 112, "TREATMENT", "2014-05-07T11:21", 126], ["CDISCPILOT01", "LB", "01-701-1015", 255, "PROT", "Protein", "CHEMISTRY", "6.8", "g/dL", "6", "8", "68", 68, "g/L", 60, 80, "NORMAL", "", 11.0, "WEEK 20", 140, "TREATMENT", "2014-05-21T10:58", 140], ["CDISCPILOT01", "LB", "01-701-1015", 288, "PROT", "Protein", "CHEMISTRY", "6.6", "g/dL", "6", "8", "66", 66, "g/L", 60, 80, "NORMAL", "", 12.0, "WEEK 24", 168, "TREATMENT", "2014-06-18T13:00", 168], ["CDISCPILOT01", "LB", "01-701-1015", 320, "PROT", "Protein", "CHEMISTRY", "6.9", "g/dL", "6", "8", "69", 69, "g/L", 60, 80, "NORMAL", "", 13.0, "WEEK 26", 182, "TREATMENT", "2014-07-02T11:45", 182], ["CDISCPILOT01", "LB", "01-701-1015", 35, "URATE", "Urate", "CHEMISTRY", "4.5", "mg/dL", "2.5", "7.5", "267.66", 267, "umol/L", 149, 446, "NORMAL", "Y", 1.0, "SCREENING 1", -7, "SCREENING", "2013-12-26T14:45", -7], ["CDISCPILOT01", "LB", "01-701-1015", 71, "URATE", "Urate", "CHEMISTRY", "4.9", "mg/dL", "2.5", "7.5", "291.452", 291, "umol/L", 149, 446, "NORMAL", "", 4.0, "WEEK 2", 14, "TREATMENT", "2014-01-16T13:17", 15], ["CDISCPILOT01", "LB", "01-701-1015", 102, "URATE", "Urate", "CHEMISTRY", "4.4", "mg/dL", "2.5", "7.5", "261.712", 261, "umol/L", 149, 446, "NORMAL", "", 5.0, "WEEK 4", 28, "TREATMENT", "2014-01-30T08:50", 29], ["CDISCPILOT01", "LB", "01-701-1015", 132, "URATE", "Urate", "CHEMISTRY", "4.6", "mg/dL", "2.5", "7.5", "273.608", 273, "umol/L", 149, 446, "NORMAL", "", 7.0, "WEEK 6", 42, "TREATMENT", "2014-02-12T12:56", 42], ["CDISCPILOT01", "LB", "01-701-1015", 162, "URATE", "Urate", "CHEMISTRY", "4.6", "mg/dL", "2.5", "7.5", "273.608", 273, "umol/L", 149, 446, "NORMAL", "", 8.0, "WEEK 8", 56, "TREATMENT", "2014-03-05T12:25", 63], ["CDISCPILOT01", "LB", "01-701-1015", 196, "URATE", "Urate", "CHEMISTRY", "4.4", "mg/dL", "2.5", "7.5", "261.712", 261, "umol/L", 149, 446, "NORMAL", "", 9.0, "WEEK 12", 84, "TREATMENT", "2014-03-26T15:15", 84], ["CDISCPILOT01", "LB", "01-701-1015", 227, "URATE", "Urate", "CHEMISTRY", "4.3", "mg/dL", "2.5", "7.5", "255.764", 255, "umol/L", 149, 446, "NORMAL", "", 10.0, "WEEK 16", 112, "TREATMENT", "2014-05-07T11:21", 126], ["CDISCPILOT01", "LB", "01-701-1015", 257, "URATE", "Urate", "CHEMISTRY", "4.7", "mg/dL", "2.5", "7.5", "279.556", 279, "umol/L", 149, 446, "NORMAL", "", 11.0, "WEEK 20", 140, "TREATMENT", "2014-05-21T10:58", 140], ["CDISCPILOT01", "LB", "01-701-1015", 291, "URATE", "Urate", "CHEMISTRY", "5.1", "mg/dL", "2.5", "7.5", "303.348", 303, "umol/L", 149, 446, "NORMAL", "", 12.0, "WEEK 24", 168, "TREATMENT", "2014-06-18T13:00", 168], ["CDISCPILOT01", "LB", "01-701-1015", 322, "URATE", "Urate", "CHEMISTRY", "5.2", "mg/dL", "2.5", "7.5", "309.296", 309, "umol/L", 149, 446, "NORMAL", "", 13.0, "WEEK 26", 182, "TREATMENT", "2014-07-02T11:45", 182], ["CDISCPILOT01", "LB", "01-701-1023", 1, "ALB", "Albumin", "CHEMISTRY", "4.0", "g/dL", "3.3", "4.9", "40", 40, "g/L", 33, 49, "NORMAL", "Y", 1.0, "SCREENING 1", -7, "SCREENING", "2012-07-22T12:13", -14], ["CDISCPILOT01", "LB", "01-701-1023", 38, "ALB", "Albumin", "CHEMISTRY", "3.6", "g/dL", "3.3", "4.9", "36", 36, "g/L", 33, 49, "NORMAL", "", 4.0, "WEEK 2", 14, "TREATMENT", "2012-08-27T15:47", 23], ["CDISCPILOT01", "LB", "01-701-1023", 73, "ALB", "Albumin", "CHEMISTRY", "3.5", "g/dL", "3.3", "4.9", "35", 35, "g/L", 33, 49, "NORMAL", "", 5.0, "WEEK 4", 28, "TREATMENT", "2012-09-02T10:15", 29], ["CDISCPILOT01", "LB", "01-701-1023", 2, "ALP", "Alkaline Phosphatase", "CHEMISTRY", "98", "U/L", "35", "115", "98", 98, "U/L", 35, 115, "NORMAL", "Y", 1.0, "SCREENING 1", -7, "SCREENING", "2012-07-22T12:13", -14], ["CDISCPILOT01", "LB", "01-701-1023", 39, "ALP", "Alkaline Phosphatase", "CHEMISTRY", "90", "U/L", "35", "115", "90", 90, "U/L", 35, 115, "NORMAL", "", 4.0, "WEEK 2", 14, "TREATMENT", "2012-08-27T15:47", 23], ["CDISCPILOT01", "LB", "01-701-1023", 74, "ALP", "Alkaline Phosphatase", "CHEMISTRY", "99", "U/L", "35", "115", "99", 99, "U/L", 35, 115, "NORMAL", "", 5.0, "WEEK 4", 28, "TREATMENT", "2012-09-02T10:15", 29], ["CDISCPILOT01", "LB", "01-701-1023", 3, "ALT", "Alanine Aminotransferase", "CHEMISTRY", "23", "U/L", "6", "43", "23", 23, "U/L", 6, 43, "NORMAL", "Y", 1.0, "SCREENING 1", -7, "SCREENING", "2012-07-22T12:13", -14], ["CDISCPILOT01", "LB", "01-701-1023", 40, "ALT", "Alanine Aminotransferase", "CHEMISTRY", "30", "U/L", "6", "43", "30", 30, "U/L", 6, 43, "NORMAL", "", 4.0, "WEEK 2", 14, "TREATMENT", "2012-08-27T15:47", 23], ["CDISCPILOT01", "LB", "01-701-1023", 75, "ALT", "Alanine Aminotransferase", "CHEMISTRY", "38", "U/L", "6", "43", "38", 38, "U/L", 6, 43, "NORMAL", "", 5.0, "WEEK 4", 28, "TREATMENT", "2012-09-02T10:15", 29], ["CDISCPILOT01", "LB", "01-701-1023", 4, "AST", "Aspartate Aminotransferase", "CHEMISTRY", "21", "U/L", "11", "36", "21", 21, "U/L", 11, 36, "NORMAL", "Y", 1.0, "SCREENING 1", -7, "SCREENING", "2012-07-22T12:13", -14], ["CDISCPILOT01", "LB", "01-701-1023", 41, "AST", "Aspartate Aminotransferase", "CHEMISTRY", "25", "U/L", "11", "36", "25", 25, "U/L", 11, 36, "NORMAL", "", 4.0, "WEEK 2", 14, "TREATMENT", "2012-08-27T15:47", 23], ["CDISCPILOT01", "LB", "01-701-1023", 76, "AST", "Aspartate Aminotransferase", "CHEMISTRY", "30", "U/L", "11", "36", "30", 30, "U/L", 11, 36, "NORMAL", "", 5.0, "WEEK 4", 28, "TREATMENT", "2012-09-02T10:15", 29], ["CDISCPILOT01", "LB", "01-701-1023", 6, "BILI", "Bilirubin", "CHEMISTRY", "0.7", "mg/dL", "0.2", "1.2", "11.97", 11, "umol/L", 3, 21, "NORMAL", "Y", 1.0, "SCREENING 1", -7, "SCREENING", "2012-07-22T12:13", -14], ["CDISCPILOT01", "LB", "01-701-1023", 43, "BILI", "Bilirubin", "CHEMISTRY", "0.4", "mg/dL", "0.2", "1.2", "6.84", 6, "umol/L", 3, 21, "NORMAL", "", 4.0, "WEEK 2", 14, "TREATMENT", "2012-08-27T15:47", 23], ["CDISCPILOT01", "LB", "01-701-1023", 78, "BILI", "Bilirubin", "CHEMISTRY", "0.5", "mg/dL", "0.2", "1.2", "8.55", 8, "umol/L", 3, 21, "NORMAL", "", 5.0, "WEEK 4", 28, "TREATMENT", "2012-09-02T10:15", 29], ["CDISCPILOT01", "LB", "01-701-1023", 7, "UREAN", "Urea Nitrogen", "CHEMISTRY", "18", "mg/dL", "4", "24", "6.426", 6, "mmol/L", 1, 8, "NORMAL", "Y", 1.0, "SCREENING 1", -7, "SCREENING", "2012-07-22T12:13", -14], ["CDISCPILOT01", "LB", "01-701-1023", 44, "UREAN", "Urea Nitrogen", "CHEMISTRY", "21", "mg/dL", "4", "24", "7.497", 7, "mmol/L", 1, 8, "NORMAL", "", 4.0, "WEEK 2", 14, "TREATMENT", "2012-08-27T15:47", 23], ["CDISCPILOT01", "LB", "01-701-1023", 79, "UREAN", "Urea Nitrogen", "CHEMISTRY", "17", "mg/dL", "4", "24", "6.069", 6, "mmol/L", 1, 8, "NORMAL", "", 5.0, "WEEK 4", 28, "TREATMENT", "2012-09-02T10:15", 29], ["CDISCPILOT01", "LB", "01-701-1023", 8, "CA", "Calcium", "CHEMISTRY", "9.9", "mg/dL", "8.4", "10.3", "2.47005", 2, "mmol/L", 2, 2, "NORMAL", "Y", 1.0, "SCREENING 1", -7, "SCREENING", "2012-07-22T12:13", -14], ["CDISCPILOT01", "LB", "01-701-1023", 45, "CA", "Calcium", "CHEMISTRY", "9.4", "mg/dL", "8.4", "10.3", "2.3453", 2, "mmol/L", 2, 2, "NORMAL", "", 4.0, "WEEK 2", 14, "TREATMENT", "2012-08-27T15:47", 23], ["CDISCPILOT01", "LB", "01-701-1023", 80, "CA", "Calcium", "CHEMISTRY", "9.5", "mg/dL", "8.4", "10.3", "2.37025", 2, "mmol/L", 2, 2, "NORMAL", "", 5.0, "WEEK 4", 28, "TREATMENT", "2012-09-02T10:15", 29], ["CDISCPILOT01", "LB", "01-701-1023", 9, "CHOL", "Cholesterol", "CHEMISTRY", "262", "mg/dL", "149", "286", "6.77532", 6, "mmol/L", 3, 7, "NORMAL", "Y", 1.0, "SCREENING 1", -7, "SCREENING", "2012-07-22T12:13", -14], ["CDISCPILOT01", "LB", "01-701-1023", 46, "CHOL", "Cholesterol", "CHEMISTRY", "237", "mg/dL", "149", "286", "6.12882", 6, "mmol/L", 3, 7, "NORMAL", "", 4.0, "WEEK 2", 14, "TREATMENT", "2012-08-27T15:47", 23], ["CDISCPILOT01", "LB", "01-701-1023", 81, "CHOL", "Cholesterol", "CHEMISTRY", "235", "mg/dL", "149", "286", "6.0771", 6, "mmol/L", 3, 7, "NORMAL", "", 5.0, "WEEK 4", 28, "TREATMENT", "2012-09-02T10:15", 29], ["CDISCPILOT01", "LB", "01-701-1023", 10, "CK", "Creatine Kinase", "CHEMISTRY", "85", "U/L", "22", "198", "85", 85, "U/L", 22, 198, "NORMAL", "Y", 1.0, "SCREENING 1", -7, "SCREENING", "2012-07-22T12:13", -14], ["CDISCPILOT01", "LB", "01-701-1023", 47, "CK", "Creatine Kinase", "CHEMISTRY", "77", "U/L", "22", "198", "77", 77, "U/L", 22, 198, "NORMAL", "", 4.0, "WEEK 2", 14, "TREATMENT", "2012-08-27T15:47", 23], ["CDISCPILOT01", "LB", "01-701-1023", 82, "CK", "Creatine Kinase", "CHEMISTRY", "76", "U/L", "22", "198", "76", 76, "U/L", 22, 198, "NORMAL", "", 5.0, "WEEK 4", 28, "TREATMENT", "2012-09-02T10:15", 29], ["CDISCPILOT01", "LB", "01-701-1023", 11, "CL", "Chloride", "CHEMISTRY", "106", "mEq/L", "94", "112", "106", 106, "mmol/L", 94, 112, "NORMAL", "Y", 1.0, "SCREENING 1", -7, "SCREENING", "2012-07-22T12:13", -14], ["CDISCPILOT01", "LB", "01-701-1023", 48, "CL", "Chloride", "CHEMISTRY", "108", "mEq/L", "94", "112", "108", 108, "mmol/L", 94, 112, "NORMAL", "", 4.0, "WEEK 2", 14, "TREATMENT", "2012-08-27T15:47", 23], ["CDISCPILOT01", "LB", "01-701-1023", 83, "CL", "Chloride", "CHEMISTRY", "106", "mEq/L", "94", "112", "106", 106, "mmol/L", 94, 112, "NORMAL", "", 5.0, "WEEK 4", 28, "TREATMENT", "2012-09-02T10:15", 29], ["CDISCPILOT01", "LB", "01-701-1023", 13, "CREAT", "Creatinine", "CHEMISTRY", "1.4", "mg/dL", "0.8", "1.6", "123.76", 123, "umol/L", 71, 141, "NORMAL", "Y", 1.0, "SCREENING 1", -7, "SCREENING", "2012-07-22T12:13", -14], ["CDISCPILOT01", "LB", "01-701-1023", 50, "CREAT", "Creatinine", "CHEMISTRY", "1.5", "mg/dL", "0.8", "1.6", "132.6", 132, "umol/L", 71, 141, "NORMAL", "", 4.0, "WEEK 2", 14, "TREATMENT", "2012-08-27T15:47", 23], ["CDISCPILOT01", "LB", "01-701-1023", 85, "CREAT", "Creatinine", "CHEMISTRY", "1.3", "mg/dL", "0.8", "1.6", "114.92", 114, "umol/L", 71, 141, "NORMAL", "", 5.0, "WEEK 4", 28, "TREATMENT", "2012-09-02T10:15", 29], ["CDISCPILOT01", "LB", "01-701-1023", 15, "GGT", "Gamma Glutamyl Transferase", "CHEMISTRY", "18", "U/L", "10", "50", "18", 18, "U/L", 10, 50, "NORMAL", "Y", 1.0, "SCREENING 1", -7, "SCREENING", "2012-07-22T12:13", -14], ["CDISCPILOT01", "LB", "01-701-1023", 52, "GGT", "Gamma Glutamyl Transferase", "CHEMISTRY", "22", "U/L", "10", "50", "22", 22, "U/L", 10, 50, "NORMAL", "", 4.0, "WEEK 2", 14, "TREATMENT", "2012-08-27T15:47", 23], ["CDISCPILOT01", "LB", "01-701-1023", 87, "GGT", "Gamma Glutamyl Transferase", "CHEMISTRY", "22", "U/L", "10", "50", "22", 22, "U/L", 10, 50, "NORMAL", "", 5.0, "WEEK 4", 28, "TREATMENT", "2012-09-02T10:15", 29], ["CDISCPILOT01", "LB", "01-701-1023", 16, "GLUC", "Glucose", "CHEMISTRY", "96", "mg/dL", "50", "250", "5.32896", 5, "mmol/L", 2, 13, "NORMAL", "Y", 1.0, "SCREENING 1", -7, "SCREENING", "2012-07-22T12:13", -14], ["CDISCPILOT01", "LB", "01-701-1023", 53, "GLUC", "Glucose", "CHEMISTRY", "104", "mg/dL", "50", "250", "5.77304", 5, "mmol/L", 2, 13, "NORMAL", "", 4.0, "WEEK 2", 14, "TREATMENT", "2012-08-27T15:47", 23], ["CDISCPILOT01", "LB", "01-701-1023", 88, "GLUC", "Glucose", "CHEMISTRY", "98", "mg/dL", "50", "250", "5.43998", 5, "mmol/L", 2, 13, "NORMAL", "", 5.0, "WEEK 4", 28, "TREATMENT", "2012-09-02T10:15", 29], ["CDISCPILOT01", "LB", "01-701-1023", 19, "K", "Potassium", "CHEMISTRY", "4.9", "mEq/L", "3.4", "5.4", "4.9", 4, "mmol/L", 3, 5, "NORMAL", "Y", 1.0, "SCREENING 1", -7, "SCREENING", "2012-07-22T12:13", -14], ["CDISCPILOT01", "LB", "01-701-1023", 56, "K", "Potassium", "CHEMISTRY", "4.8", "mEq/L", "3.4", "5.4", "4.8", 4, "mmol/L", 3, 5, "NORMAL", "", 4.0, "WEEK 2", 14, "TREATMENT", "2012-08-27T15:47", 23], ["CDISCPILOT01", "LB", "01-701-1023", 91, "K", "Potassium", "CHEMISTRY", "4.7", "mEq/L", "3.4", "5.4", "4.7", 4, "mmol/L", 3, 5, "NORMAL", "", 5.0, "WEEK 4", 28, "TREATMENT", "2012-09-02T10:15", 29], ["CDISCPILOT01", "LB", "01-701-1023", 26, "SODIUM", "Sodium", "CHEMISTRY", "142", "mEq/L", "135", "145", "142", 142, "mmol/L", 135, 145, "NORMAL", "Y", 1.0, "SCREENING 1", -7, "SCREENING", "2012-07-22T12:13", -14], ["CDISCPILOT01", "LB", "01-701-1023", 63, "SODIUM", "Sodium", "CHEMISTRY", "140", "mEq/L", "135", "145", "140", 140, "mmol/L", 135, 145, "NORMAL", "", 4.0, "WEEK 2", 14, "TREATMENT", "2012-08-27T15:47", 23], ["CDISCPILOT01", "LB", "01-701-1023", 98, "SODIUM", "Sodium", "CHEMISTRY", "141", "mEq/L", "135", "145", "141", 141, "mmol/L", 135, 145, "NORMAL", "", 5.0, "WEEK 4", 28, "TREATMENT", "2012-09-02T10:15", 29], ["CDISCPILOT01", "LB", "01-701-1023", 28, "PHOS", "Phosphate", "CHEMISTRY", "4.0", "mg/dL", "2.2", "5.1", "1.2916", 1, "mmol/L", 0, 1, "NORMAL", "Y", 1.0, "SCREENING 1", -7, "SCREENING", "2012-07-22T12:13", -14], ["CDISCPILOT01", "LB", "01-701-1023", 65, "PHOS", "Phosphate", "CHEMISTRY", "3.7", "mg/dL", "2.2", "5.1", "1.19473", 1, "mmol/L", 0, 1, "NORMAL", "", 4.0, "WEEK 2", 14, "TREATMENT", "2012-08-27T15:47", 23], ["CDISCPILOT01", "LB", "01-701-1023", 100, "PHOS", "Phosphate", "CHEMISTRY", "3.4", "mg/dL", "2.2", "5.1", "1.09786", 1, "mmol/L", 0, 1, "NORMAL", "", 5.0, "WEEK 4", 28, "TREATMENT", "2012-09-02T10:15", 29], ["CDISCPILOT01", "LB", "01-701-1023", 30, "PROT", "Protein", "CHEMISTRY", "7.4", "g/dL", "6", "8", "74", 74, "g/L", 60, 80, "NORMAL", "Y", 1.0, "SCREENING 1", -7, "SCREENING", "2012-07-22T12:13", -14], ["CDISCPILOT01", "LB", "01-701-1023", 67, "PROT", "Protein", "CHEMISTRY", "6.9", "g/dL", "6", "8", "69", 69, "g/L", 60, 80, "NORMAL", "", 4.0, "WEEK 2", 14, "TREATMENT", "2012-08-27T15:47", 23], ["CDISCPILOT01", "LB", "01-701-1023", 102, "PROT", "Protein", "CHEMISTRY", "7.1", "g/dL", "6", "8", "71", 71, "g/L", 60, 80, "NORMAL", "", 5.0, "WEEK 4", 28, "TREATMENT", "2012-09-02T10:15", 29], ["CDISCPILOT01", "LB", "01-701-1023", 34, "URATE", "Urate", "CHEMISTRY", "6.7", "mg/dL", "2.5", "7.5", "398.516", 398, "umol/L", 149, 446, "NORMAL", "Y", 1.0, "SCREENING 1", -7, "SCREENING", "2012-07-22T12:13", -14], ["CDISCPILOT01", "LB", "01-701-1023", 70, "URATE", "Urate", "CHEMISTRY", "6.2", "mg/dL", "2.5", "7.5", "368.776", 368, "umol/L", 149, 446, "NORMAL", "", 4.0, "WEEK 2", 14, "TREATMENT", "2012-08-27T15:47", 23], ["CDISCPILOT01", "LB", "01-701-1023", 105, "URATE", "Urate", "CHEMISTRY", "6.1", "mg/dL", "2.5", "7.5", "362.828", 362, "umol/L", 149, 446, "NORMAL", "", 5.0, "WEEK 4", 28, "TREATMENT", "2012-09-02T10:15", 29], ["CDISCPILOT01", "LB", "01-701-1028", 1, "ALB", "Albumin", "CHEMISTRY", "4.4", "g/dL", "3.5", "4.6", "44", 44, "g/L", 35, 46, "NORMAL", "Y", 1.0, "SCREENING 1", -7, "SCREENING", "2013-07-11T12:02", -8], ["CDISCPILOT01", "LB", "01-701-1028", 38, "ALB", "Albumin", "CHEMISTRY", "4.2", "g/dL", "3.5", "4.6", "42", 42, "g/L", 35, 46, "NORMAL", "", 4.0, "WEEK 2", 14, "TREATMENT", "2013-08-01T09:15", 14], ["CDISCPILOT01", "LB", "01-701-1028", 73, "ALB", "Albumin", "CHEMISTRY", "4.1", "g/dL", "3.5", "4.6", "41", 41, "g/L", 35, 46, "NORMAL", "", 5.0, "WEEK 4", 28, "TREATMENT", "2013-08-14T13:24", 27], ["CDISCPILOT01", "LB", "01-701-1028", 103, "ALB", "Albumin", "CHEMISTRY", "4.0", "g/dL", "3.5", "4.6", "40", 40, "g/L", 35, 46, "NORMAL", "", 7.0, "WEEK 6", 42, "TREATMENT", "2013-08-29T11:54", 42], ["CDISCPILOT01", "LB", "01-701-1028", 133, "ALB", "Albumin", "CHEMISTRY", "3.9", "g/dL", "3.5", "4.6", "39", 39, "g/L", 35, 46, "NORMAL", "", 8.0, "WEEK 8", 56, "TREATMENT", "2013-09-10T09:13", 54], ["CDISCPILOT01", "LB", "01-701-1028", 163, "ALB", "Albumin", "CHEMISTRY", "4.4", "g/dL", "3.5", "4.6", "44", 44, "g/L", 35, 46, "NORMAL", "", 9.0, "WEEK 12", 84, "TREATMENT", "2013-10-09T08:42", 83], ["CDISCPILOT01", "LB", "01-701-1028", 198, "ALB", "Albumin", "CHEMISTRY", "3.7", "g/dL", "3.5", "4.6", "37", 37, "g/L", 35, 46, "NORMAL", "", 10.0, "WEEK 16", 112, "TREATMENT", "2013-11-06T10:08", 111], ["CDISCPILOT01", "LB", "01-701-1028", 230, "ALB", "Albumin", "CHEMISTRY", "4.0", "g/dL", "3.5", "4.6", "40", 40, "g/L", 35, 46, "NORMAL", "", 11.0, "WEEK 20", 140, "TREATMENT", "2013-12-04T15:10", 139], ["CDISCPILOT01", "LB", "01-701-1028", 261, "ALB", "Albumin", "CHEMISTRY", "4.2", "g/dL", "3.5", "4.6", "42", 42, "g/L", 35, 46, "NORMAL", "", 12.0, "WEEK 24", 168, "TREATMENT", "2014-01-06T10:00", 172], ["CDISCPILOT01", "LB", "01-701-1028", 298, "ALB", "Albumin", "CHEMISTRY", "4.5", "g/dL", "3.5", "4.6", "45", 45, "g/L", 35, 46, "NORMAL", "", 13.0, "WEEK 26", 182, "TREATMENT", "2014-01-14T11:10", 180], ["CDISCPILOT01", "LB", "01-701-1028", 2, "ALP", "Alkaline Phosphatase", "CHEMISTRY", "44", "U/L", "35", "115", "44", 44, "U/L", 35, 115, "NORMAL", "Y", 1.0, "SCREENING 1", -7, "SCREENING", "2013-07-11T12:02", -8], ["CDISCPILOT01", "LB", "01-701-1028", 39, "ALP", "Alkaline Phosphatase", "CHEMISTRY", "46", "U/L", "35", "115", "46", 46, "U/L", 35, 115, "NORMAL", "", 4.0, "WEEK 2", 14, "TREATMENT", "2013-08-01T09:15", 14], ["CDISCPILOT01", "LB", "01-701-1028", 74, "ALP", "Alkaline Phosphatase", "CHEMISTRY", "38", "U/L", "35", "115", "38", 38, "U/L", 35, 115, "NORMAL", "", 5.0, "WEEK 4", 28, "TREATMENT", "2013-08-14T13:24", 27], ["CDISCPILOT01", "LB", "01-701-1028", 104, "ALP", "Alkaline Phosphatase", "CHEMISTRY", "40", "U/L", "35", "115", "40", 40, "U/L", 35, 115, "NORMAL", "", 7.0, "WEEK 6", 42, "TREATMENT", "2013-08-29T11:54", 42], ["CDISCPILOT01", "LB", "01-701-1028", 134, "ALP", "Alkaline Phosphatase", "CHEMISTRY", "40", "U/L", "35", "115", "40", 40, "U/L", 35, 115, "NORMAL", "", 8.0, "WEEK 8", 56, "TREATMENT", "2013-09-10T09:13", 54], ["CDISCPILOT01", "LB", "01-701-1028", 164, "ALP", "Alkaline Phosphatase", "CHEMISTRY", "41", "U/L", "35", "115", "41", 41, "U/L", 35, 115, "NORMAL", "", 9.0, "WEEK 12", 84, "TREATMENT", "2013-10-09T08:42", 83], ["CDISCPILOT01", "LB", "01-701-1028", 199, "ALP", "Alkaline Phosphatase", "CHEMISTRY", "36", "U/L", "35", "115", "36", 36, "U/L", 35, 115, "NORMAL", "", 10.0, "WEEK 16", 112, "TREATMENT", "2013-11-06T10:08", 111], ["CDISCPILOT01", "LB", "01-701-1028", 231, "ALP", "Alkaline Phosphatase", "CHEMISTRY", "43", "U/L", "35", "115", "43", 43, "U/L", 35, 115, "NORMAL", "", 11.0, "WEEK 20", 140, "TREATMENT", "2013-12-04T15:10", 139], ["CDISCPILOT01", "LB", "01-701-1028", 262, "ALP", "Alkaline Phosphatase", "CHEMISTRY", "47", "U/L", "35", "115", "47", 47, "U/L", 35, 115, "NORMAL", "", 12.0, "WEEK 24", 168, "TREATMENT", "2014-01-06T10:00", 172], ["CDISCPILOT01", "LB", "01-701-1028", 299, "ALP", "Alkaline Phosphatase", "CHEMISTRY", "40", "U/L", "35", "115", "40", 40, "U/L", 35, 115, "NORMAL", "", 13.0, "WEEK 26", 182, "TREATMENT", "2014-01-14T11:10", 180], ["CDISCPILOT01", "LB", "01-701-1028", 3, "ALT", "Alanine Aminotransferase", "CHEMISTRY", "26", "U/L", "6", "35", "26", 26, "U/L", 6, 35, "NORMAL", "Y", 1.0, "SCREENING 1", -7, "SCREENING", "2013-07-11T12:02", -8], ["CDISCPILOT01", "LB", "01-701-1028", 40, "ALT", "Alanine Aminotransferase", "CHEMISTRY", "30", "U/L", "6", "35", "30", 30, "U/L", 6, 35, "NORMAL", "", 4.0, "WEEK 2", 14, "TREATMENT", "2013-08-01T09:15", 14], ["CDISCPILOT01", "LB", "01-701-1028", 75, "ALT", "Alanine Aminotransferase", "CHEMISTRY", "29", "U/L", "6", "35", "29", 29, "U/L", 6, 35, "NORMAL", "", 5.0, "WEEK 4", 28, "TREATMENT", "2013-08-14T13:24", 27], ["CDISCPILOT01", "LB", "01-701-1028", 105, "ALT", "Alanine Aminotransferase", "CHEMISTRY", "32", "U/L", "6", "35", "32", 32, "U/L", 6, 35, "NORMAL", "", 7.0, "WEEK 6", 42, "TREATMENT", "2013-08-29T11:54", 42], ["CDISCPILOT01", "LB", "01-701-1028", 135, "ALT", "Alanine Aminotransferase", "CHEMISTRY", "33", "U/L", "6", "35", "33", 33, "U/L", 6, 35, "NORMAL", "", 8.0, "WEEK 8", 56, "TREATMENT", "2013-09-10T09:13", 54], ["CDISCPILOT01", "LB", "01-701-1028", 165, "ALT", "Alanine Aminotransferase", "CHEMISTRY", "29", "U/L", "6", "35", "29", 29, "U/L", 6, 35, "NORMAL", "", 9.0, "WEEK 12", 84, "TREATMENT", "2013-10-09T08:42", 83], ["CDISCPILOT01", "LB", "01-701-1028", 200, "ALT", "Alanine Aminotransferase", "CHEMISTRY", "24", "U/L", "6", "35", "24", 24, "U/L", 6, 35, "NORMAL", "", 10.0, "WEEK 16", 112, "TREATMENT", "2013-11-06T10:08", 111], ["CDISCPILOT01", "LB", "01-701-1028", 232, "ALT", "Alanine Aminotransferase", "CHEMISTRY", "22", "U/L", "6", "35", "22", 22, "U/L", 6, 35, "NORMAL", "", 11.0, "WEEK 20", 140, "TREATMENT", "2013-12-04T15:10", 139], ["CDISCPILOT01", "LB", "01-701-1028", 263, "ALT", "Alanine Aminotransferase", "CHEMISTRY", "24", "U/L", "6", "35", "24", 24, "U/L", 6, 35, "NORMAL", "", 12.0, "WEEK 24", 168, "TREATMENT", "2014-01-06T10:00", 172], ["CDISCPILOT01", "LB", "01-701-1028", 300, "ALT", "Alanine Aminotransferase", "CHEMISTRY", "26", "U/L", "6", "35", "26", 26, "U/L", 6, 35, "NORMAL", "", 13.0, "WEEK 26", 182, "TREATMENT", "2014-01-14T11:10", 180], ["CDISCPILOT01", "LB", "01-701-1028", 4, "AST", "Aspartate Aminotransferase", "CHEMISTRY", "24", "U/L", "11", "36", "24", 24, "U/L", 11, 36, "NORMAL", "Y", 1.0, "SCREENING 1", -7, "SCREENING", "2013-07-11T12:02", -8], ["CDISCPILOT01", "LB", "01-701-1028", 41, "AST", "Aspartate Aminotransferase", "CHEMISTRY", "23", "U/L", "11", "36", "23", 23, "U/L", 11, 36, "NORMAL", "", 4.0, "WEEK 2", 14, "TREATMENT", "2013-08-01T09:15", 14], ["CDISCPILOT01", "LB", "01-701-1028", 76, "AST", "Aspartate Aminotransferase", "CHEMISTRY", "24", "U/L", "11", "36", "24", 24, "U/L", 11, 36, "NORMAL", "", 5.0, "WEEK 4", 28, "TREATMENT", "2013-08-14T13:24", 27], ["CDISCPILOT01", "LB", "01-701-1028", 106, "AST", "Aspartate Aminotransferase", "CHEMISTRY", "26", "U/L", "11", "36", "26", 26, "U/L", 11, 36, "NORMAL", "", 7.0, "WEEK 6", 42, "TREATMENT", "2013-08-29T11:54", 42], ["CDISCPILOT01", "LB", "01-701-1028", 136, "AST", "Aspartate Aminotransferase", "CHEMISTRY", "28", "U/L", "11", "36", "28", 28, "U/L", 11, 36, "NORMAL", "", 8.0, "WEEK 8", 56, "TREATMENT", "2013-09-10T09:13", 54], ["CDISCPILOT01", "LB", "01-701-1028", 166, "AST", "Aspartate Aminotransferase", "CHEMISTRY", "28", "U/L", "11", "36", "28", 28, "U/L", 11, 36, "NORMAL", "", 9.0, "WEEK 12", 84, "TREATMENT", "2013-10-09T08:42", 83], ["CDISCPILOT01", "LB", "01-701-1028", 202, "AST", "Aspartate Aminotransferase", "CHEMISTRY", "18", "U/L", "11", "36", "18", 18, "U/L", 11, 36, "NORMAL", "", 10.0, "WEEK 16", 112, "TREATMENT", "2013-11-06T10:08", 111], ["CDISCPILOT01", "LB", "01-701-1028", 234, "AST", "Aspartate Aminotransferase", "CHEMISTRY", "21", "U/L", "11", "36", "21", 21, "U/L", 11, 36, "NORMAL", "", 11.0, "WEEK 20", 140, "TREATMENT", "2013-12-04T15:10", 139], ["CDISCPILOT01", "LB", "01-701-1028", 264, "AST", "Aspartate Aminotransferase", "CHEMISTRY", "23", "U/L", "11", "36", "23", 23, "U/L", 11, 36, "NORMAL", "", 12.0, "WEEK 24", 168, "TREATMENT", "2014-01-06T10:00", 172], ["CDISCPILOT01", "LB", "01-701-1028", 301, "AST", "Aspartate Aminotransferase", "CHEMISTRY", "24", "U/L", "11", "36", "24", 24, "U/L", 11, 36, "NORMAL", "", 13.0, "WEEK 26", 182, "TREATMENT", "2014-01-14T11:10", 180], ["CDISCPILOT01", "LB", "01-701-1028", 6, "BILI", "Bilirubin", "CHEMISTRY", "1.1", "mg/dL", "0.2", "1.2", "18.81", 18, "umol/L", 3, 21, "NORMAL", "Y", 1.0, "SCREENING 1", -7, "SCREENING", "2013-07-11T12:02", -8], ["CDISCPILOT01", "LB", "01-701-1028", 43, "BILI", "Bilirubin", "CHEMISTRY", "0.7", "mg/dL", "0.2", "1.2", "11.97", 11, "umol/L", 3, 21, "NORMAL", "", 4.0, "WEEK 2", 14, "TREATMENT", "2013-08-01T09:15", 14], ["CDISCPILOT01", "LB", "01-701-1028", 78, "BILI", "Bilirubin", "CHEMISTRY", "0.8", "mg/dL", "0.2", "1.2", "13.68", 13, "umol/L", 3, 21, "NORMAL", "", 5.0, "WEEK 4", 28, "TREATMENT", "2013-08-14T13:24", 27], ["CDISCPILOT01", "LB", "01-701-1028", 108, "BILI", "Bilirubin", "CHEMISTRY", "0.7", "mg/dL", "0.2", "1.2", "11.97", 11, "umol/L", 3, 21, "NORMAL", "", 7.0, "WEEK 6", 42, "TREATMENT", "2013-08-29T11:54", 42], ["CDISCPILOT01", "LB", "01-701-1028", 138, "BILI", "Bilirubin", "CHEMISTRY", "0.8", "mg/dL", "0.2", "1.2", "13.68", 13, "umol/L", 3, 21, "NORMAL", "", 8.0, "WEEK 8", 56, "TREATMENT", "2013-09-10T09:13", 54], ["CDISCPILOT01", "LB", "01-701-1028", 168, "BILI", "Bilirubin", "CHEMISTRY", "0.8", "mg/dL", "0.2", "1.2", "13.68", 13, "umol/L", 3, 21, "NORMAL", "", 9.0, "WEEK 12", 84, "TREATMENT", "2013-10-09T08:42", 83], ["CDISCPILOT01", "LB", "01-701-1028", 204, "BILI", "Bilirubin", "CHEMISTRY", "0.7", "mg/dL", "0.2", "1.2", "11.97", 11, "umol/L", 3, 21, "NORMAL", "", 10.0, "WEEK 16", 112, "TREATMENT", "2013-11-06T10:08", 111], ["CDISCPILOT01", "LB", "01-701-1028", 236, "BILI", "Bilirubin", "CHEMISTRY", "0.8", "mg/dL", "0.2", "1.2", "13.68", 13, "umol/L", 3, 21, "NORMAL", "", 11.0, "WEEK 20", 140, "TREATMENT", "2013-12-04T15:10", 139], ["CDISCPILOT01", "LB", "01-701-1028", 266, "BILI", "Bilirubin", "CHEMISTRY", "0.9", "mg/dL", "0.2", "1.2", "15.39", 15, "umol/L", 3, 21, "NORMAL", "", 12.0, "WEEK 24", 168, "TREATMENT", "2014-01-06T10:00", 172], ["CDISCPILOT01", "LB", "01-701-1028", 303, "BILI", "Bilirubin", "CHEMISTRY", "0.8", "mg/dL", "0.2", "1.2", "13.68", 13, "umol/L", 3, 21, "NORMAL", "", 13.0, "WEEK 26", 182, "TREATMENT", "2014-01-14T11:10", 180], ["CDISCPILOT01", "LB", "01-701-1028", 7, "UREAN", "Urea Nitrogen", "CHEMISTRY", "12", "mg/dL", "4", "24", "4.284", 4, "mmol/L", 1, 8, "NORMAL", "Y", 1.0, "SCREENING 1", -7, "SCREENING", "2013-07-11T12:02", -8], ["CDISCPILOT01", "LB", "01-701-1028", 44, "UREAN", "Urea Nitrogen", "CHEMISTRY", "16", "mg/dL", "4", "24", "5.712", 5, "mmol/L", 1, 8, "NORMAL", "", 4.0, "WEEK 2", 14, "TREATMENT", "2013-08-01T09:15", 14], ["CDISCPILOT01", "LB", "01-701-1028", 79, "UREAN", "Urea Nitrogen", "CHEMISTRY", "18", "mg/dL", "4", "24", "6.426", 6, "mmol/L", 1, 8, "NORMAL", "", 5.0, "WEEK 4", 28, "TREATMENT", "2013-08-14T13:24", 27], ["CDISCPILOT01", "LB", "01-701-1028", 109, "UREAN", "Urea Nitrogen", "CHEMISTRY", "15", "mg/dL", "4", "24", "5.355", 5, "mmol/L", 1, 8, "NORMAL", "", 7.0, "WEEK 6", 42, "TREATMENT", "2013-08-29T11:54", 42], ["CDISCPILOT01", "LB", "01-701-1028", 139, "UREAN", "Urea Nitrogen", "CHEMISTRY", "18", "mg/dL", "4", "24", "6.426", 6, "mmol/L", 1, 8, "NORMAL", "", 8.0, "WEEK 8", 56, "TREATMENT", "2013-09-10T09:13", 54], ["CDISCPILOT01", "LB", "01-701-1028", 169, "UREAN", "Urea Nitrogen", "CHEMISTRY", "17", "mg/dL", "4", "24", "6.069", 6, "mmol/L", 1, 8, "NORMAL", "", 9.0, "WEEK 12", 84, "TREATMENT", "2013-10-09T08:42", 83], ["CDISCPILOT01", "LB", "01-701-1028", 205, "UREAN", "Urea Nitrogen", "CHEMISTRY", "15", "mg/dL", "4", "24", "5.355", 5, "mmol/L", 1, 8, "NORMAL", "", 10.0, "WEEK 16", 112, "TREATMENT", "2013-11-06T10:08", 111], ["CDISCPILOT01", "LB", "01-701-1028", 237, "UREAN", "Urea Nitrogen", "CHEMISTRY", "15", "mg/dL", "4", "24", "5.355", 5, "mmol/L", 1, 8, "NORMAL", "", 11.0, "WEEK 20", 140, "TREATMENT", "2013-12-04T15:10", 139], ["CDISCPILOT01", "LB", "01-701-1028", 267, "UREAN", "Urea Nitrogen", "CHEMISTRY", "13", "mg/dL", "4", "24", "4.641", 4, "mmol/L", 1, 8, "NORMAL", "", 12.0, "WEEK 24", 168, "TREATMENT", "2014-01-06T10:00", 172], ["CDISCPILOT01", "LB", "01-701-1028", 304, "UREAN", "Urea Nitrogen", "CHEMISTRY", "17", "mg/dL", "4", "24", "6.069", 6, "mmol/L", 1, 8, "NORMAL", "", 13.0, "WEEK 26", 182, "TREATMENT", "2014-01-14T11:10", 180], ["CDISCPILOT01", "LB", "01-701-1028", 8, "CA", "Calcium", "CHEMISTRY", "9.2", "mg/dL", "8.4", "10.3", "2.2954", 2, "mmol/L", 2, 2, "NORMAL", "Y", 1.0, "SCREENING 1", -7, "SCREENING", "2013-07-11T12:02", -8], ["CDISCPILOT01", "LB", "01-701-1028", 45, "CA", "Calcium", "CHEMISTRY", "8.9", "mg/dL", "8.4", "10.3", "2.22055", 2, "mmol/L", 2, 2, "NORMAL", "", 4.0, "WEEK 2", 14, "TREATMENT", "2013-08-01T09:15", 14], ["CDISCPILOT01", "LB", "01-701-1028", 80, "CA", "Calcium", "CHEMISTRY", "8.7", "mg/dL", "8.4", "10.3", "2.17065", 2, "mmol/L", 2, 2, "NORMAL", "", 5.0, "WEEK 4", 28, "TREATMENT", "2013-08-14T13:24", 27], ["CDISCPILOT01", "LB", "01-701-1028", 110, "CA", "Calcium", "CHEMISTRY", "8.8", "mg/dL", "8.4", "10.3", "2.1956", 2, "mmol/L", 2, 2, "NORMAL", "", 7.0, "WEEK 6", 42, "TREATMENT", "2013-08-29T11:54", 42], ["CDISCPILOT01", "LB", "01-701-1028", 140, "CA", "Calcium", "CHEMISTRY", "8.6", "mg/dL", "8.4", "10.3", "2.1457", 2, "mmol/L", 2, 2, "NORMAL", "", 8.0, "WEEK 8", 56, "TREATMENT", "2013-09-10T09:13", 54], ["CDISCPILOT01", "LB", "01-701-1028", 170, "CA", "Calcium", "CHEMISTRY", "8.9", "mg/dL", "8.4", "10.3", "2.22055", 2, "mmol/L", 2, 2, "NORMAL", "", 9.0, "WEEK 12", 84, "TREATMENT", "2013-10-09T08:42", 83], ["CDISCPILOT01", "LB", "01-701-1028", 206, "CA", "Calcium", "CHEMISTRY", "8.0", "mg/dL", "8.4", "10.3", "1.996", 1, "mmol/L", 2, 2, "LOW", "", 10.0, "WEEK 16", 112, "TREATMENT", "2013-11-06T10:08", 111], ["CDISCPILOT01", "LB", "01-701-1028", 238, "CA", "Calcium", "CHEMISTRY", "8.5", "mg/dL", "8.4", "10.3", "2.12075", 2, "mmol/L", 2, 2, "NORMAL", "", 11.0, "WEEK 20", 140, "TREATMENT", "2013-12-04T15:10", 139], ["CDISCPILOT01", "LB", "01-701-1028", 268, "CA", "Calcium", "CHEMISTRY", "8.4", "mg/dL", "8.4", "10.3", "2.0958", 2, "mmol/L", 2, 2, "NORMAL", "", 12.0, "WEEK 24", 168, "TREATMENT", "2014-01-06T10:00", 172], ["CDISCPILOT01", "LB", "01-701-1028", 305, "CA", "Calcium", "CHEMISTRY", "8.9", "mg/dL", "8.4", "10.3", "2.22055", 2, "mmol/L", 2, 2, "NORMAL", "", 13.0, "WEEK 26", 182, "TREATMENT", "2014-01-14T11:10", 180], ["CDISCPILOT01", "LB", "01-701-1028", 9, "CHOL", "Cholesterol", "CHEMISTRY", "186", "mg/dL", "149", "286", "4.80996", 4, "mmol/L", 3, 7, "NORMAL", "Y", 1.0, "SCREENING 1", -7, "SCREENING", "2013-07-11T12:02", -8], ["CDISCPILOT01", "LB", "01-701-1028", 46, "CHOL", "Cholesterol", "CHEMISTRY", "182", "mg/dL", "149", "286", "4.70652", 4, "mmol/L", 3, 7, "NORMAL", "", 4.0, "WEEK 2", 14, "TREATMENT", "2013-08-01T09:15", 14], ["CDISCPILOT01", "LB", "01-701-1028", 81, "CHOL", "Cholesterol", "CHEMISTRY", "169", "mg/dL", "149", "286", "4.37034", 4, "mmol/L", 3, 7, "NORMAL", "", 5.0, "WEEK 4", 28, "TREATMENT", "2013-08-14T13:24", 27], ["CDISCPILOT01", "LB", "01-701-1028", 111, "CHOL", "Cholesterol", "CHEMISTRY", "165", "mg/dL", "149", "286", "4.2669", 4, "mmol/L", 3, 7, "NORMAL", "", 7.0, "WEEK 6", 42, "TREATMENT", "2013-08-29T11:54", 42], ["CDISCPILOT01", "LB", "01-701-1028", 141, "CHOL", "Cholesterol", "CHEMISTRY", "171", "mg/dL", "149", "286", "4.42206", 4, "mmol/L", 3, 7, "NORMAL", "", 8.0, "WEEK 8", 56, "TREATMENT", "2013-09-10T09:13", 54], ["CDISCPILOT01", "LB", "01-701-1028", 171, "CHOL", "Cholesterol", "CHEMISTRY", "196", "mg/dL", "149", "286", "5.06856", 5, "mmol/L", 3, 7, "NORMAL", "", 9.0, "WEEK 12", 84, "TREATMENT", "2013-10-09T08:42", 83], ["CDISCPILOT01", "LB", "01-701-1028", 207, "CHOL", "Cholesterol", "CHEMISTRY", "152", "mg/dL", "149", "286", "3.93072", 3, "mmol/L", 3, 7, "NORMAL", "", 10.0, "WEEK 16", 112, "TREATMENT", "2013-11-06T10:08", 111], ["CDISCPILOT01", "LB", "01-701-1028", 239, "CHOL", "Cholesterol", "CHEMISTRY", "170", "mg/dL", "149", "286", "4.3962", 4, "mmol/L", 3, 7, "NORMAL", "", 11.0, "WEEK 20", 140, "TREATMENT", "2013-12-04T15:10", 139], ["CDISCPILOT01", "LB", "01-701-1028", 269, "CHOL", "Cholesterol", "CHEMISTRY", "164", "mg/dL", "149", "286", "4.24104", 4, "mmol/L", 3, 7, "NORMAL", "", 12.0, "WEEK 24", 168, "TREATMENT", "2014-01-06T10:00", 172], ["CDISCPILOT01", "LB", "01-701-1028", 306, "CHOL", "Cholesterol", "CHEMISTRY", "181", "mg/dL", "149", "286", "4.68066", 4, "mmol/L", 3, 7, "NORMAL", "", 13.0, "WEEK 26", 182, "TREATMENT", "2014-01-14T11:10", 180], ["CDISCPILOT01", "LB", "01-701-1028", 10, "CK", "Creatine Kinase", "CHEMISTRY", "144", "U/L", "22", "198", "144", 144, "U/L", 22, 198, "NORMAL", "Y", 1.0, "SCREENING 1", -7, "SCREENING", "2013-07-11T12:02", -8], ["CDISCPILOT01", "LB", "01-701-1028", 47, "CK", "Creatine Kinase", "CHEMISTRY", "160", "U/L", "22", "198", "160", 160, "U/L", 22, 198, "NORMAL", "", 4.0, "WEEK 2", 14, "TREATMENT", "2013-08-01T09:15", 14], ["CDISCPILOT01", "LB", "01-701-1028", 82, "CK", "Creatine Kinase", "CHEMISTRY", "176", "U/L", "22", "198", "176", 176, "U/L", 22, 198, "NORMAL", "", 5.0, "WEEK 4", 28, "TREATMENT", "2013-08-14T13:24", 27], ["CDISCPILOT01", "LB", "01-701-1028", 112, "CK", "Creatine Kinase", "CHEMISTRY", "186", "U/L", "22", "198", "186", 186, "U/L", 22, 198, "NORMAL", "", 7.0, "WEEK 6", 42, "TREATMENT", "2013-08-29T11:54", 42], ["CDISCPILOT01", "LB", "01-701-1028", 142, "CK", "Creatine Kinase", "CHEMISTRY", "317", "U/L", "22", "198", "317", 317, "U/L", 22, 198, "HIGH", "", 8.0, "WEEK 8", 56, "TREATMENT", "2013-09-10T09:13", 54], ["CDISCPILOT01", "LB", "01-701-1028", 172, "CK", "Creatine Kinase", "CHEMISTRY", "127", "U/L", "22", "198", "127", 127, "U/L", 22, 198, "NORMAL", "", 9.0, "WEEK 12", 84, "TREATMENT", "2013-10-09T08:42", 83], ["CDISCPILOT01", "LB", "01-701-1028", 208, "CK", "Creatine Kinase", "CHEMISTRY", "103", "U/L", "22", "198", "103", 103, "U/L", 22, 198, "NORMAL", "", 10.0, "WEEK 16", 112, "TREATMENT", "2013-11-06T10:08", 111], ["CDISCPILOT01", "LB", "01-701-1028", 240, "CK", "Creatine Kinase", "CHEMISTRY", "161", "U/L", "22", "198", "161", 161, "U/L", 22, 198, "NORMAL", "", 11.0, "WEEK 20", 140, "TREATMENT", "2013-12-04T15:10", 139], ["CDISCPILOT01", "LB", "01-701-1028", 270, "CK", "Creatine Kinase", "CHEMISTRY", "160", "U/L", "22", "198", "160", 160, "U/L", 22, 198, "NORMAL", "", 12.0, "WEEK 24", 168, "TREATMENT", "2014-01-06T10:00", 172], ["CDISCPILOT01", "LB", "01-701-1028", 307, "CK", "Creatine Kinase", "CHEMISTRY", "130", "U/L", "22", "198", "130", 130, "U/L", 22, 198, "NORMAL", "", 13.0, "WEEK 26", 182, "TREATMENT", "2014-01-14T11:10", 180], ["CDISCPILOT01", "LB", "01-701-1028", 11, "CL", "Chloride", "CHEMISTRY", "103", "mEq/L", "94", "112", "103", 103, "mmol/L", 94, 112, "NORMAL", "Y", 1.0, "SCREENING 1", -7, "SCREENING", "2013-07-11T12:02", -8], ["CDISCPILOT01", "LB", "01-701-1028", 48, "CL", "Chloride", "CHEMISTRY", "103", "mEq/L", "94", "112", "103", 103, "mmol/L", 94, 112, "NORMAL", "", 4.0, "WEEK 2", 14, "TREATMENT", "2013-08-01T09:15", 14], ["CDISCPILOT01", "LB", "01-701-1028", 83, "CL", "Chloride", "CHEMISTRY", "111", "mEq/L", "94", "112", "111", 111, "mmol/L", 94, 112, "NORMAL", "", 5.0, "WEEK 4", 28, "TREATMENT", "2013-08-14T13:24", 27], ["CDISCPILOT01", "LB", "01-701-1028", 113, "CL", "Chloride", "CHEMISTRY", "107", "mEq/L", "94", "112", "107", 107, "mmol/L", 94, 112, "NORMAL", "", 7.0, "WEEK 6", 42, "TREATMENT", "2013-08-29T11:54", 42], ["CDISCPILOT01", "LB", "01-701-1028", 143, "CL", "Chloride", "CHEMISTRY", "105", "mEq/L", "94", "112", "105", 105, "mmol/L", 94, 112, "NORMAL", "", 8.0, "WEEK 8", 56, "TREATMENT", "2013-09-10T09:13", 54], ["CDISCPILOT01", "LB", "01-701-1028", 173, "CL", "Chloride", "CHEMISTRY", "105", "mEq/L", "94", "112", "105", 105, "mmol/L", 94, 112, "NORMAL", "", 9.0, "WEEK 12", 84, "TREATMENT", "2013-10-09T08:42", 83], ["CDISCPILOT01", "LB", "01-701-1028", 209, "CL", "Chloride", "CHEMISTRY", "108", "mEq/L", "94", "112", "108", 108, "mmol/L", 94, 112, "NORMAL", "", 10.0, "WEEK 16", 112, "TREATMENT", "2013-11-06T10:08", 111], ["CDISCPILOT01", "LB", "01-701-1028", 241, "CL", "Chloride", "CHEMISTRY", "105", "mEq/L", "94", "112", "105", 105, "mmol/L", 94, 112, "NORMAL", "", 11.0, "WEEK 20", 140, "TREATMENT", "2013-12-04T15:10", 139], ["CDISCPILOT01", "LB", "01-701-1028", 271, "CL", "Chloride", "CHEMISTRY", "107", "mEq/L", "94", "112", "107", 107, "mmol/L", 94, 112, "NORMAL", "", 12.0, "WEEK 24", 168, "TREATMENT", "2014-01-06T10:00", 172], ["CDISCPILOT01", "LB", "01-701-1028", 308, "CL", "Chloride", "CHEMISTRY", "103", "mEq/L", "94", "112", "103", 103, "mmol/L", 94, 112, "NORMAL", "", 13.0, "WEEK 26", 182, "TREATMENT", "2014-01-14T11:10", 180], ["CDISCPILOT01", "LB", "01-701-1028", 13, "CREAT", "Creatinine", "CHEMISTRY", "1.4", "mg/dL", "0.8", "1.6", "123.76", 123, "umol/L", 71, 141, "NORMAL", "Y", 1.0, "SCREENING 1", -7, "SCREENING", "2013-07-11T12:02", -8], ["CDISCPILOT01", "LB", "01-701-1028", 50, "CREAT", "Creatinine", "CHEMISTRY", "1.5", "mg/dL", "0.8", "1.6", "132.6", 132, "umol/L", 71, 141, "NORMAL", "", 4.0, "WEEK 2", 14, "TREATMENT", "2013-08-01T09:15", 14], ["CDISCPILOT01", "LB", "01-701-1028", 84, "CREAT", "Creatinine", "CHEMISTRY", "1.6", "mg/dL", "0.8", "1.6", "141.44", 141, "umol/L", 71, 141, "NORMAL", "", 5.0, "WEEK 4", 28, "TREATMENT", "2013-08-14T13:24", 27], ["CDISCPILOT01", "LB", "01-701-1028", 114, "CREAT", "Creatinine", "CHEMISTRY", "1.4", "mg/dL", "0.8", "1.6", "123.76", 123, "umol/L", 71, 141, "NORMAL", "", 7.0, "WEEK 6", 42, "TREATMENT", "2013-08-29T11:54", 42], ["CDISCPILOT01", "LB", "01-701-1028", 144, "CREAT", "Creatinine", "CHEMISTRY", "1.5", "mg/dL", "0.8", "1.6", "132.6", 132, "umol/L", 71, 141, "NORMAL", "", 8.0, "WEEK 8", 56, "TREATMENT", "2013-09-10T09:13", 54], ["CDISCPILOT01", "LB", "01-701-1028", 175, "CREAT", "Creatinine", "CHEMISTRY", "1.5", "mg/dL", "0.8", "1.6", "132.6", 132, "umol/L", 71, 141, "NORMAL", "", 9.0, "WEEK 12", 84, "TREATMENT", "2013-10-09T08:42", 83], ["CDISCPILOT01", "LB", "01-701-1028", 210, "CREAT", "Creatinine", "CHEMISTRY", "1.3", "mg/dL", "0.8", "1.6", "114.92", 114, "umol/L", 71, 141, "NORMAL", "", 10.0, "WEEK 16", 112, "TREATMENT", "2013-11-06T10:08", 111], ["CDISCPILOT01", "LB", "01-701-1028", 242, "CREAT", "Creatinine", "CHEMISTRY", "1.4", "mg/dL", "0.8", "1.6", "123.76", 123, "umol/L", 71, 141, "NORMAL", "", 11.0, "WEEK 20", 140, "TREATMENT", "2013-12-04T15:10", 139], ["CDISCPILOT01", "LB", "01-701-1028", 273, "CREAT", "Creatinine", "CHEMISTRY", "1.5", "mg/dL", "0.8", "1.6", "132.6", 132, "umol/L", 71, 141, "NORMAL", "", 12.0, "WEEK 24", 168, "TREATMENT", "2014-01-06T10:00", 172], ["CDISCPILOT01", "LB", "01-701-1028", 309, "CREAT", "Creatinine", "CHEMISTRY", "1.5", "mg/dL", "0.8", "1.6", "132.6", 132, "umol/L", 71, 141, "NORMAL", "", 13.0, "WEEK 26", 182, "TREATMENT", "2014-01-14T11:10", 180], ["CDISCPILOT01", "LB", "01-701-1028", 15, "GGT", "Gamma Glutamyl Transferase", "CHEMISTRY", "24", "U/L", "10", "50", "24", 24, "U/L", 10, 50, "NORMAL", "Y", 1.0, "SCREENING 1", -7, "SCREENING", "2013-07-11T12:02", -8], ["CDISCPILOT01", "LB", "01-701-1028", 52, "GGT", "Gamma Glutamyl Transferase", "CHEMISTRY", "28", "U/L", "10", "50", "28", 28, "U/L", 10, 50, "NORMAL", "", 4.0, "WEEK 2", 14, "TREATMENT", "2013-08-01T09:15", 14], ["CDISCPILOT01", "LB", "01-701-1028", 86, "GGT", "Gamma Glutamyl Transferase", "CHEMISTRY", "23", "U/L", "10", "50", "23", 23, "U/L", 10, 50, "NORMAL", "", 5.0, "WEEK 4", 28, "TREATMENT", "2013-08-14T13:24", 27], ["CDISCPILOT01", "LB", "01-701-1028", 116, "GGT", "Gamma Glutamyl Transferase", "CHEMISTRY", "24", "U/L", "10", "50", "24", 24, "U/L", 10, 50, "NORMAL", "", 7.0, "WEEK 6", 42, "TREATMENT", "2013-08-29T11:54", 42], ["CDISCPILOT01", "LB", "01-701-1028", 146, "GGT", "Gamma Glutamyl Transferase", "CHEMISTRY", "24", "U/L", "10", "50", "24", 24, "U/L", 10, 50, "NORMAL", "", 8.0, "WEEK 8", 56, "TREATMENT", "2013-09-10T09:13", 54], ["CDISCPILOT01", "LB", "01-701-1028", 177, "GGT", "Gamma Glutamyl Transferase", "CHEMISTRY", "23", "U/L", "10", "50", "23", 23, "U/L", 10, 50, "NORMAL", "", 9.0, "WEEK 12", 84, "TREATMENT", "2013-10-09T08:42", 83], ["CDISCPILOT01", "LB", "01-701-1028", 212, "GGT", "Gamma Glutamyl Transferase", "CHEMISTRY", "19", "U/L", "10", "50", "19", 19, "U/L", 10, 50, "NORMAL", "", 10.0, "WEEK 16", 112, "TREATMENT", "2013-11-06T10:08", 111], ["CDISCPILOT01", "LB", "01-701-1028", 244, "GGT", "Gamma Glutamyl Transferase", "CHEMISTRY", "20", "U/L", "10", "50", "20", 20, "U/L", 10, 50, "NORMAL", "", 11.0, "WEEK 20", 140, "TREATMENT", "2013-12-04T15:10", 139], ["CDISCPILOT01", "LB", "01-701-1028", 275, "GGT", "Gamma Glutamyl Transferase", "CHEMISTRY", "23", "U/L", "10", "50", "23", 23, "U/L", 10, 50, "NORMAL", "", 12.0, "WEEK 24", 168, "TREATMENT", "2014-01-06T10:00", 172], ["CDISCPILOT01", "LB", "01-701-1028", 311, "GGT", "Gamma Glutamyl Transferase", "CHEMISTRY", "23", "U/L", "10", "50", "23", 23, "U/L", 10, 50, "NORMAL", "", 13.0, "WEEK 26", 182, "TREATMENT", "2014-01-14T11:10", 180], ["CDISCPILOT01", "LB", "01-701-1028", 16, "GLUC", "Glucose", "CHEMISTRY", "86", "mg/dL", "50", "250", "4.77386", 4, "mmol/L", 2, 13, "NORMAL", "Y", 1.0, "SCREENING 1", -7, "SCREENING", "2013-07-11T12:02", -8], ["CDISCPILOT01", "LB", "01-701-1028", 53, "GLUC", "Glucose", "CHEMISTRY", "75", "mg/dL", "50", "250", "4.16325", 4, "mmol/L", 2, 13, "NORMAL", "", 4.0, "WEEK 2", 14, "TREATMENT", "2013-08-01T09:15", 14], ["CDISCPILOT01", "LB", "01-701-1028", 87, "GLUC", "Glucose", "CHEMISTRY", "80", "mg/dL", "50", "250", "4.4408", 4, "mmol/L", 2, 13, "NORMAL", "", 5.0, "WEEK 4", 28, "TREATMENT", "2013-08-14T13:24", 27], ["CDISCPILOT01", "LB", "01-701-1028", 117, "GLUC", "Glucose", "CHEMISTRY", "76", "mg/dL", "50", "250", "4.21876", 4, "mmol/L", 2, 13, "NORMAL", "", 7.0, "WEEK 6", 42, "TREATMENT", "2013-08-29T11:54", 42], ["CDISCPILOT01", "LB", "01-701-1028", 147, "GLUC", "Glucose", "CHEMISTRY", "92", "mg/dL", "50", "250", "5.10692", 5, "mmol/L", 2, 13, "NORMAL", "", 8.0, "WEEK 8", 56, "TREATMENT", "2013-09-10T09:13", 54], ["CDISCPILOT01", "LB", "01-701-1028", 178, "GLUC", "Glucose", "CHEMISTRY", "87", "mg/dL", "50", "250", "4.82937", 4, "mmol/L", 2, 13, "NORMAL", "", 9.0, "WEEK 12", 84, "TREATMENT", "2013-10-09T08:42", 83], ["CDISCPILOT01", "LB", "01-701-1028", 213, "GLUC", "Glucose", "CHEMISTRY", "87", "mg/dL", "50", "250", "4.82937", 4, "mmol/L", 2, 13, "NORMAL", "", 10.0, "WEEK 16", 112, "TREATMENT", "2013-11-06T10:08", 111], ["CDISCPILOT01", "LB", "01-701-1028", 245, "GLUC", "Glucose", "CHEMISTRY", "82", "mg/dL", "50", "250", "4.55182", 4, "mmol/L", 2, 13, "NORMAL", "", 11.0, "WEEK 20", 140, "TREATMENT", "2013-12-04T15:10", 139], ["CDISCPILOT01", "LB", "01-701-1028", 276, "GLUC", "Glucose", "CHEMISTRY", "98", "mg/dL", "50", "250", "5.43998", 5, "mmol/L", 2, 13, "NORMAL", "", 12.0, "WEEK 24", 168, "TREATMENT", "2014-01-06T10:00", 172], ["CDISCPILOT01", "LB", "01-701-1028", 312, "GLUC", "Glucose", "CHEMISTRY", "88", "mg/dL", "50", "250", "4.88488", 4, "mmol/L", 2, 13, "NORMAL", "", 13.0, "WEEK 26", 182, "TREATMENT", "2014-01-14T11:10", 180], ["CDISCPILOT01", "LB", "01-701-1028", 19, "K", "Potassium", "CHEMISTRY", "4.4", "mEq/L", "3.4", "5.4", "4.4", 4, "mmol/L", 3, 5, "NORMAL", "Y", 1.0, "SCREENING 1", -7, "SCREENING", "2013-07-11T12:02", -8], ["CDISCPILOT01", "LB", "01-701-1028", 56, "K", "Potassium", "CHEMISTRY", "4.6", "mEq/L", "3.4", "5.4", "4.6", 4, "mmol/L", 3, 5, "NORMAL", "", 4.0, "WEEK 2", 14, "TREATMENT", "2013-08-01T09:15", 14], ["CDISCPILOT01", "LB", "01-701-1028", 90, "K", "Potassium", "CHEMISTRY", "4.6", "mEq/L", "3.4", "5.4", "4.6", 4, "mmol/L", 3, 5, "NORMAL", "", 5.0, "WEEK 4", 28, "TREATMENT", "2013-08-14T13:24", 27], ["CDISCPILOT01", "LB", "01-701-1028", 120, "K", "Potassium", "CHEMISTRY", "4.4", "mEq/L", "3.4", "5.4", "4.4", 4, "mmol/L", 3, 5, "NORMAL", "", 7.0, "WEEK 6", 42, "TREATMENT", "2013-08-29T11:54", 42], ["CDISCPILOT01", "LB", "01-701-1028", 150, "K", "Potassium", "CHEMISTRY", "4.0", "mEq/L", "3.4", "5.4", "4", 4, "mmol/L", 3, 5, "NORMAL", "", 8.0, "WEEK 8", 56, "TREATMENT", "2013-09-10T09:13", 54], ["CDISCPILOT01", "LB", "01-701-1028", 181, "K", "Potassium", "CHEMISTRY", "4.4", "mEq/L", "3.4", "5.4", "4.4", 4, "mmol/L", 3, 5, "NORMAL", "", 9.0, "WEEK 12", 84, "TREATMENT", "2013-10-09T08:42", 83], ["CDISCPILOT01", "LB", "01-701-1028", 216, "K", "Potassium", "CHEMISTRY", "4.2", "mEq/L", "3.4", "5.4", "4.2", 4, "mmol/L", 3, 5, "NORMAL", "", 10.0, "WEEK 16", 112, "TREATMENT", "2013-11-06T10:08", 111], ["CDISCPILOT01", "LB", "01-701-1028", 248, "K", "Potassium", "CHEMISTRY", "4.2", "mEq/L", "3.4", "5.4", "4.2", 4, "mmol/L", 3, 5, "NORMAL", "", 11.0, "WEEK 20", 140, "TREATMENT", "2013-12-04T15:10", 139], ["CDISCPILOT01", "LB", "01-701-1028", 279, "K", "Potassium", "CHEMISTRY", "4.6", "mEq/L", "3.4", "5.4", "4.6", 4, "mmol/L", 3, 5, "NORMAL", "", 12.0, "WEEK 24", 168, "TREATMENT", "2014-01-06T10:00", 172], ["CDISCPILOT01", "LB", "01-701-1028", 315, "K", "Potassium", "CHEMISTRY", "4.4", "mEq/L", "3.4", "5.4", "4.4", 4, "mmol/L", 3, 5, "NORMAL", "", 13.0, "WEEK 26", 182, "TREATMENT", "2014-01-14T11:10", 180], ["CDISCPILOT01", "LB", "01-701-1028", 26, "SODIUM", "Sodium", "CHEMISTRY", "139", "mEq/L", "135", "145", "139", 139, "mmol/L", 135, 145, "NORMAL", "Y", 1.0, "SCREENING 1", -7, "SCREENING", "2013-07-11T12:02", -8], ["CDISCPILOT01", "LB", "01-701-1028", 63, "SODIUM", "Sodium", "CHEMISTRY", "137", "mEq/L", "135", "145", "137", 137, "mmol/L", 135, 145, "NORMAL", "", 4.0, "WEEK 2", 14, "TREATMENT", "2013-08-01T09:15", 14], ["CDISCPILOT01", "LB", "01-701-1028", 96, "SODIUM", "Sodium", "CHEMISTRY", "139", "mEq/L", "135", "145", "139", 139, "mmol/L", 135, 145, "NORMAL", "", 5.0, "WEEK 4", 28, "TREATMENT", "2013-08-14T13:24", 27], ["CDISCPILOT01", "LB", "01-701-1028", 126, "SODIUM", "Sodium", "CHEMISTRY", "138", "mEq/L", "135", "145", "138", 138, "mmol/L", 135, 145, "NORMAL", "", 7.0, "WEEK 6", 42, "TREATMENT", "2013-08-29T11:54", 42], ["CDISCPILOT01", "LB", "01-701-1028", 156, "SODIUM", "Sodium", "CHEMISTRY", "136", "mEq/L", "135", "145", "136", 136, "mmol/L", 135, 145, "NORMAL", "", 8.0, "WEEK 8", 56, "TREATMENT", "2013-09-10T09:13", 54], ["CDISCPILOT01", "LB", "01-701-1028", 188, "SODIUM", "Sodium", "CHEMISTRY", "140", "mEq/L", "135", "145", "140", 140, "mmol/L", 135, 145, "NORMAL", "", 9.0, "WEEK 12", 84, "TREATMENT", "2013-10-09T08:42", 83], ["CDISCPILOT01", "LB", "01-701-1028", 223, "SODIUM", "Sodium", "CHEMISTRY", "140", "mEq/L", "135", "145", "140", 140, "mmol/L", 135, 145, "NORMAL", "", 10.0, "WEEK 16", 112, "TREATMENT", "2013-11-06T10:08", 111], ["CDISCPILOT01", "LB", "01-701-1028", 254, "SODIUM", "Sodium", "CHEMISTRY", "137", "mEq/L", "135", "145", "137", 137, "mmol/L", 135, 145, "NORMAL", "", 11.0, "WEEK 20", 140, "TREATMENT", "2013-12-04T15:10", 139], ["CDISCPILOT01", "LB", "01-701-1028", 287, "SODIUM", "Sodium", "CHEMISTRY", "140", "mEq/L", "135", "145", "140", 140, "mmol/L", 135, 145, "NORMAL", "", 12.0, "WEEK 24", 168, "TREATMENT", "2014-01-06T10:00", 172], ["CDISCPILOT01", "LB", "01-701-1028", 322, "SODIUM", "Sodium", "CHEMISTRY", "138", "mEq/L", "135", "145", "138", 138, "mmol/L", 135, 145, "NORMAL", "", 13.0, "WEEK 26", 182, "TREATMENT", "2014-01-14T11:10", 180], ["CDISCPILOT01", "LB", "01-701-1028", 28, "PHOS", "Phosphate", "CHEMISTRY", "3.4", "mg/dL", "2.2", "5.1", "1.09786", 1, "mmol/L", 0, 1, "NORMAL", "Y", 1.0, "SCREENING 1", -7, "SCREENING", "2013-07-11T12:02", -8], ["CDISCPILOT01", "LB", "01-701-1028", 65, "PHOS", "Phosphate", "CHEMISTRY", "2.9", "mg/dL", "2.2", "5.1", "0.93641", 0, "mmol/L", 0, 1, "NORMAL", "", 4.0, "WEEK 2", 14, "TREATMENT", "2013-08-01T09:15", 14], ["CDISCPILOT01", "LB", "01-701-1028", 97, "PHOS", "Phosphate", "CHEMISTRY", "3.8", "mg/dL", "2.2", "5.1", "1.22702", 1, "mmol/L", 0, 1, "NORMAL", "", 5.0, "WEEK 4", 28, "TREATMENT", "2013-08-14T13:24", 27], ["CDISCPILOT01", "LB", "01-701-1028", 127, "PHOS", "Phosphate", "CHEMISTRY", "3.4", "mg/dL", "2.2", "5.1", "1.09786", 1, "mmol/L", 0, 1, "NORMAL", "", 7.0, "WEEK 6", 42, "TREATMENT", "2013-08-29T11:54", 42], ["CDISCPILOT01", "LB", "01-701-1028", 157, "PHOS", "Phosphate", "CHEMISTRY", "2.6", "mg/dL", "2.2", "5.1", "0.83954", 0, "mmol/L", 0, 1, "NORMAL", "", 8.0, "WEEK 8", 56, "TREATMENT", "2013-09-10T09:13", 54], ["CDISCPILOT01", "LB", "01-701-1028", 190, "PHOS", "Phosphate", "CHEMISTRY", "2.8", "mg/dL", "2.2", "5.1", "0.90412", 0, "mmol/L", 0, 1, "NORMAL", "", 9.0, "WEEK 12", 84, "TREATMENT", "2013-10-09T08:42", 83], ["CDISCPILOT01", "LB", "01-701-1028", 224, "PHOS", "Phosphate", "CHEMISTRY", "2.4", "mg/dL", "2.2", "5.1", "0.77496", 0, "mmol/L", 0, 1, "NORMAL", "", 10.0, "WEEK 16", 112, "TREATMENT", "2013-11-06T10:08", 111], ["CDISCPILOT01", "LB", "01-701-1028", 255, "PHOS", "Phosphate", "CHEMISTRY", "3.6", "mg/dL", "2.2", "5.1", "1.16244", 1, "mmol/L", 0, 1, "NORMAL", "", 11.0, "WEEK 20", 140, "TREATMENT", "2013-12-04T15:10", 139], ["CDISCPILOT01", "LB", "01-701-1028", 289, "PHOS", "Phosphate", "CHEMISTRY", "2.8", "mg/dL", "2.2", "5.1", "0.90412", 0, "mmol/L", 0, 1, "NORMAL", "", 12.0, "WEEK 24", 168, "TREATMENT", "2014-01-06T10:00", 172], ["CDISCPILOT01", "LB", "01-701-1028", 323, "PHOS", "Phosphate", "CHEMISTRY", "3.5", "mg/dL", "2.2", "5.1", "1.13015", 1, "mmol/L", 0, 1, "NORMAL", "", 13.0, "WEEK 26", 182, "TREATMENT", "2014-01-14T11:10", 180], ["CDISCPILOT01", "LB", "01-701-1028", 30, "PROT", "Protein", "CHEMISTRY", "7.2", "g/dL", "6", "8", "72", 72, "g/L", 60, 80, "NORMAL", "Y", 1.0, "SCREENING 1", -7, "SCREENING", "2013-07-11T12:02", -8], ["CDISCPILOT01", "LB", "01-701-1028", 67, "PROT", "Protein", "CHEMISTRY", "7.2", "g/dL", "6", "8", "72", 72, "g/L", 60, 80, "NORMAL", "", 4.0, "WEEK 2", 14, "TREATMENT", "2013-08-01T09:15", 14], ["CDISCPILOT01", "LB", "01-701-1028", 99, "PROT", "Protein", "CHEMISTRY", "6.9", "g/dL", "6", "8", "69", 69, "g/L", 60, 80, "NORMAL", "", 5.0, "WEEK 4", 28, "TREATMENT", "2013-08-14T13:24", 27], ["CDISCPILOT01", "LB", "01-701-1028", 129, "PROT", "Protein", "CHEMISTRY", "6.9", "g/dL", "6", "8", "69", 69, "g/L", 60, 80, "NORMAL", "", 7.0, "WEEK 6", 42, "TREATMENT", "2013-08-29T11:54", 42], ["CDISCPILOT01", "LB", "01-701-1028", 159, "PROT", "Protein", "CHEMISTRY", "6.7", "g/dL", "6", "8", "67", 67, "g/L", 60, 80, "NORMAL", "", 8.0, "WEEK 8", 56, "TREATMENT", "2013-09-10T09:13", 54], ["CDISCPILOT01", "LB", "01-701-1028", 192, "PROT", "Protein", "CHEMISTRY", "7.8", "g/dL", "6", "8", "78", 78, "g/L", 60, 80, "NORMAL", "", 9.0, "WEEK 12", 84, "TREATMENT", "2013-10-09T08:42", 83], ["CDISCPILOT01", "LB", "01-701-1028", 226, "PROT", "Protein", "CHEMISTRY", "6.2", "g/dL", "6", "8", "62", 62, "g/L", 60, 80, "NORMAL", "", 10.0, "WEEK 16", 112, "TREATMENT", "2013-11-06T10:08", 111], ["CDISCPILOT01", "LB", "01-701-1028", 257, "PROT", "Protein", "CHEMISTRY", "6.6", "g/dL", "6", "8", "66", 66, "g/L", 60, 80, "NORMAL", "", 11.0, "WEEK 20", 140, "TREATMENT", "2013-12-04T15:10", 139], ["CDISCPILOT01", "LB", "01-701-1028", 292, "PROT", "Protein", "CHEMISTRY", "6.7", "g/dL", "6", "8", "67", 67, "g/L", 60, 80, "NORMAL", "", 12.0, "WEEK 24", 168, "TREATMENT", "2014-01-06T10:00", 172], ["CDISCPILOT01", "LB", "01-701-1028", 325, "PROT", "Protein", "CHEMISTRY", "7.0", "g/dL", "6", "8", "70", 70, "g/L", 60, 80, "NORMAL", "", 13.0, "WEEK 26", 182, "TREATMENT", "2014-01-14T11:10", 180], ["CDISCPILOT01", "LB", "01-701-1028", 34, "URATE", "Urate", "CHEMISTRY", "5.0", "mg/dL", "2.5", "7.5", "297.4", 297, "umol/L", 149, 446, "NORMAL", "Y", 1.0, "SCREENING 1", -7, "SCREENING", "2013-07-11T12:02", -8], ["CDISCPILOT01", "LB", "01-701-1028", 70, "URATE", "Urate", "CHEMISTRY", "5.7", "mg/dL", "2.5", "7.5", "339.036", 339, "umol/L", 149, 446, "NORMAL", "", 4.0, "WEEK 2", 14, "TREATMENT", "2013-08-01T09:15", 14], ["CDISCPILOT01", "LB", "01-701-1028", 101, "URATE", "Urate", "CHEMISTRY", "5.8", "mg/dL", "2.5", "7.5", "344.984", 344, "umol/L", 149, 446, "NORMAL", "", 5.0, "WEEK 4", 28, "TREATMENT", "2013-08-14T13:24", 27], ["CDISCPILOT01", "LB", "01-701-1028", 131, "URATE", "Urate", "CHEMISTRY", "5.0", "mg/dL", "2.5", "7.5", "297.4", 297, "umol/L", 149, 446, "NORMAL", "", 7.0, "WEEK 6", 42, "TREATMENT", "2013-08-29T11:54", 42], ["CDISCPILOT01", "LB", "01-701-1028", 161, "URATE", "Urate", "CHEMISTRY", "5.3", "mg/dL", "2.5", "7.5", "315.244", 315, "umol/L", 149, 446, "NORMAL", "", 8.0, "WEEK 8", 56, "TREATMENT", "2013-09-10T09:13", 54], ["CDISCPILOT01", "LB", "01-701-1028", 195, "URATE", "Urate", "CHEMISTRY", "5.3", "mg/dL", "2.5", "7.5", "315.244", 315, "umol/L", 149, 446, "NORMAL", "", 9.0, "WEEK 12", 84, "TREATMENT", "2013-10-09T08:42", 83], ["CDISCPILOT01", "LB", "01-701-1028", 228, "URATE", "Urate", "CHEMISTRY", "4.8", "mg/dL", "2.5", "7.5", "285.504", 285, "umol/L", 149, 446, "NORMAL", "", 10.0, "WEEK 16", 112, "TREATMENT", "2013-11-06T10:08", 111], ["CDISCPILOT01", "LB", "01-701-1028", 259, "URATE", "Urate", "CHEMISTRY", "5.1", "mg/dL", "2.5", "7.5", "303.348", 303, "umol/L", 149, 446, "NORMAL", "", 11.0, "WEEK 20", 140, "TREATMENT", "2013-12-04T15:10", 139], ["CDISCPILOT01", "LB", "01-701-1028", 295, "URATE", "Urate", "CHEMISTRY", "5.4", "mg/dL", "2.5", "7.5", "321.192", 321, "umol/L", 149, 446, "NORMAL", "", 12.0, "WEEK 24", 168, "TREATMENT", "2014-01-06T10:00", 172], ["CDISCPILOT01", "LB", "01-701-1028", 327, "URATE", "Urate", "CHEMISTRY", "5.7", "mg/dL", "2.5", "7.5", "339.036", 339, "umol/L", 149, 446, "NORMAL", "", 13.0, "WEEK 26", 182, "TREATMENT", "2014-01-14T11:10", 180], ["CDISCPILOT01", "LB", "01-701-1033", 1, "ALB", "Albumin", "CHEMISTRY", "3.8", "g/dL", "3.5", "4.6", "38", 38, "g/L", 35, 46, "NORMAL", "Y", 1.0, "SCREENING 1", -7, "SCREENING", "2014-03-10T12:31", -8], ["CDISCPILOT01", "LB", "01-701-1033", 38, "ALB", "Albumin", "CHEMISTRY", "4.1", "g/dL", "3.5", "4.6", "41", 41, "g/L", 35, 46, "NORMAL", "", 4.0, "WEEK 2", 14, "TREATMENT", "2014-04-01T08:55", 15], ["CDISCPILOT01", "LB", "01-701-1033", 73, "ALB", "Albumin", "CHEMISTRY", "4.0", "g/dL", "3.5", "4.6", "40", 40, "g/L", 35, 46, "NORMAL", "", 5.0, "WEEK 4", 28, "TREATMENT", "2014-04-14T10:38", 28], ["CDISCPILOT01", "LB", "01-701-1033", 2, "ALP", "Alkaline Phosphatase", "CHEMISTRY", "67", "U/L", "35", "115", "67", 67, "U/L", 35, 115, "NORMAL", "Y", 1.0, "SCREENING 1", -7, "SCREENING", "2014-03-10T12:31", -8], ["CDISCPILOT01", "LB", "01-701-1033", 39, "ALP", "Alkaline Phosphatase", "CHEMISTRY", "89", "U/L", "35", "115", "89", 89, "U/L", 35, 115, "NORMAL", "", 4.0, "WEEK 2", 14, "TREATMENT", "2014-04-01T08:55", 15], ["CDISCPILOT01", "LB", "01-701-1033", 74, "ALP", "Alkaline Phosphatase", "CHEMISTRY", "76", "U/L", "35", "115", "76", 76, "U/L", 35, 115, "NORMAL", "", 5.0, "WEEK 4", 28, "TREATMENT", "2014-04-14T10:38", 28], ["CDISCPILOT01", "LB", "01-701-1033", 3, "ALT", "Alanine Aminotransferase", "CHEMISTRY", "16", "U/L", "6", "35", "16", 16, "U/L", 6, 35, "NORMAL", "Y", 1.0, "SCREENING 1", -7, "SCREENING", "2014-03-10T12:31", -8], ["CDISCPILOT01", "LB", "01-701-1033", 40, "ALT", "Alanine Aminotransferase", "CHEMISTRY", "35", "U/L", "6", "35", "35", 35, "U/L", 6, 35, "NORMAL", "", 4.0, "WEEK 2", 14, "TREATMENT", "2014-04-01T08:55", 15], ["CDISCPILOT01", "LB", "01-701-1033", 75, "ALT", "Alanine Aminotransferase", "CHEMISTRY", "14", "U/L", "6", "35", "14", 14, "U/L", 6, 35, "NORMAL", "", 5.0, "WEEK 4", 28, "TREATMENT", "2014-04-14T10:38", 28], ["CDISCPILOT01", "LB", "01-701-1033", 4, "AST", "Aspartate Aminotransferase", "CHEMISTRY", "20", "U/L", "11", "36", "20", 20, "U/L", 11, 36, "NORMAL", "Y", 1.0, "SCREENING 1", -7, "SCREENING", "2014-03-10T12:31", -8], ["CDISCPILOT01", "LB", "01-701-1033", 41, "AST", "Aspartate Aminotransferase", "CHEMISTRY", "26", "U/L", "11", "36", "26", 26, "U/L", 11, 36, "NORMAL", "", 4.0, "WEEK 2", 14, "TREATMENT", "2014-04-01T08:55", 15], ["CDISCPILOT01", "LB", "01-701-1033", 76, "AST", "Aspartate Aminotransferase", "CHEMISTRY", "20", "U/L", "11", "36", "20", 20, "U/L", 11, 36, "NORMAL", "", 5.0, "WEEK 4", 28, "TREATMENT", "2014-04-14T10:38", 28], ["CDISCPILOT01", "LB", "01-701-1033", 6, "BILI", "Bilirubin", "CHEMISTRY", "0.8", "mg/dL", "0.2", "1.2", "13.68", 13, "umol/L", 3, 21, "NORMAL", "Y", 1.0, "SCREENING 1", -7, "SCREENING", "2014-03-10T12:31", -8], ["CDISCPILOT01", "LB", "01-701-1033", 43, "BILI", "Bilirubin", "CHEMISTRY", "0.4", "mg/dL", "0.2", "1.2", "6.84", 6, "umol/L", 3, 21, "NORMAL", "", 4.0, "WEEK 2", 14, "TREATMENT", "2014-04-01T08:55", 15], ["CDISCPILOT01", "LB", "01-701-1033", 78, "BILI", "Bilirubin", "CHEMISTRY", "0.9", "mg/dL", "0.2", "1.2", "15.39", 15, "umol/L", 3, 21, "NORMAL", "", 5.0, "WEEK 4", 28, "TREATMENT", "2014-04-14T10:38", 28], ["CDISCPILOT01", "LB", "01-701-1033", 7, "UREAN", "Urea Nitrogen", "CHEMISTRY", "16", "mg/dL", "4", "24", "5.712", 5, "mmol/L", 1, 8, "NORMAL", "Y", 1.0, "SCREENING 1", -7, "SCREENING", "2014-03-10T12:31", -8], ["CDISCPILOT01", "LB", "01-701-1033", 44, "UREAN", "Urea Nitrogen", "CHEMISTRY", "13", "mg/dL", "4", "24", "4.641", 4, "mmol/L", 1, 8, "NORMAL", "", 4.0, "WEEK 2", 14, "TREATMENT", "2014-04-01T08:55", 15], ["CDISCPILOT01", "LB", "01-701-1033", 79, "UREAN", "Urea Nitrogen", "CHEMISTRY", "16", "mg/dL", "4", "24", "5.712", 5, "mmol/L", 1, 8, "NORMAL", "", 5.0, "WEEK 4", 28, "TREATMENT", "2014-04-14T10:38", 28], ["CDISCPILOT01", "LB", "01-701-1033", 8, "CA", "Calcium", "CHEMISTRY", "8.3", "mg/dL", "8.4", "10.3", "2.07085", 2, "mmol/L", 2, 2, "LOW", "Y", 1.0, "SCREENING 1", -7, "SCREENING", "2014-03-10T12:31", -8], ["CDISCPILOT01", "LB", "01-701-1033", 45, "CA", "Calcium", "CHEMISTRY", "8.7", "mg/dL", "8.4", "10.3", "2.17065", 2, "mmol/L", 2, 2, "NORMAL", "", 4.0, "WEEK 2", 14, "TREATMENT", "2014-04-01T08:55", 15], ["CDISCPILOT01", "LB", "01-701-1033", 80, "CA", "Calcium", "CHEMISTRY", "8.6", "mg/dL", "8.4", "10.3", "2.1457", 2, "mmol/L", 2, 2, "NORMAL", "", 5.0, "WEEK 4", 28, "TREATMENT", "2014-04-14T10:38", 28], ["CDISCPILOT01", "LB", "01-701-1033", 9, "CHOL", "Cholesterol", "CHEMISTRY", "191", "mg/dL", "149", "286", "4.93926", 4, "mmol/L", 3, 7, "NORMAL", "Y", 1.0, "SCREENING 1", -7, "SCREENING", "2014-03-10T12:31", -8], ["CDISCPILOT01", "LB", "01-701-1033", 46, "CHOL", "Cholesterol", "CHEMISTRY", "197", "mg/dL", "149", "286", "5.09442", 5, "mmol/L", 3, 7, "NORMAL", "", 4.0, "WEEK 2", 14, "TREATMENT", "2014-04-01T08:55", 15], ["CDISCPILOT01", "LB", "01-701-1033", 81, "CHOL", "Cholesterol", "CHEMISTRY", "197", "mg/dL", "149", "286", "5.09442", 5, "mmol/L", 3, 7, "NORMAL", "", 5.0, "WEEK 4", 28, "TREATMENT", "2014-04-14T10:38", 28], ["CDISCPILOT01", "LB", "01-701-1033", 10, "CK", "Creatine Kinase", "CHEMISTRY", "114", "U/L", "22", "198", "114", 114, "U/L", 22, 198, "NORMAL", "Y", 1.0, "SCREENING 1", -7, "SCREENING", "2014-03-10T12:31", -8], ["CDISCPILOT01", "LB", "01-701-1033", 47, "CK", "Creatine Kinase", "CHEMISTRY", "93", "U/L", "22", "198", "93", 93, "U/L", 22, 198, "NORMAL", "", 4.0, "WEEK 2", 14, "TREATMENT", "2014-04-01T08:55", 15], ["CDISCPILOT01", "LB", "01-701-1033", 82, "CK", "Creatine Kinase", "CHEMISTRY", "116", "U/L", "22", "198", "116", 116, "U/L", 22, 198, "NORMAL", "", 5.0, "WEEK 4", 28, "TREATMENT", "2014-04-14T10:38", 28], ["CDISCPILOT01", "LB", "01-701-1033", 11, "CL", "Chloride", "CHEMISTRY", "107", "mEq/L", "94", "112", "107", 107, "mmol/L", 94, 112, "NORMAL", "Y", 1.0, "SCREENING 1", -7, "SCREENING", "2014-03-10T12:31", -8], ["CDISCPILOT01", "LB", "01-701-1033", 48, "CL", "Chloride", "CHEMISTRY", "107", "mEq/L", "94", "112", "107", 107, "mmol/L", 94, 112, "NORMAL", "", 4.0, "WEEK 2", 14, "TREATMENT", "2014-04-01T08:55", 15], ["CDISCPILOT01", "LB", "01-701-1033", 83, "CL", "Chloride", "CHEMISTRY", "105", "mEq/L", "94", "112", "105", 105, "mmol/L", 94, 112, "NORMAL", "", 5.0, "WEEK 4", 28, "TREATMENT", "2014-04-14T10:38", 28], ["CDISCPILOT01", "LB", "01-701-1033", 13, "CREAT", "Creatinine", "CHEMISTRY", "1.5", "mg/dL", "0.8", "1.6", "132.6", 132, "umol/L", 71, 141, "NORMAL", "Y", 1.0, "SCREENING 1", -7, "SCREENING", "2014-03-10T12:31", -8], ["CDISCPILOT01", "LB", "01-701-1033", 50, "CREAT", "Creatinine", "CHEMISTRY", "1.5", "mg/dL", "0.8", "1.6", "132.6", 132, "umol/L", 71, 141, "NORMAL", "", 4.0, "WEEK 2", 14, "TREATMENT", "2014-04-01T08:55", 15], ["CDISCPILOT01", "LB", "01-701-1033", 85, "CREAT", "Creatinine", "CHEMISTRY", "1.5", "mg/dL", "0.8", "1.6", "132.6", 132, "umol/L", 71, 141, "NORMAL", "", 5.0, "WEEK 4", 28, "TREATMENT", "2014-04-14T10:38", 28], ["CDISCPILOT01", "LB", "01-701-1033", 15, "GGT", "Gamma Glutamyl Transferase", "CHEMISTRY", "21", "U/L", "10", "50", "21", 21, "U/L", 10, 50, "NORMAL", "Y", 1.0, "SCREENING 1", -7, "SCREENING", "2014-03-10T12:31", -8], ["CDISCPILOT01", "LB", "01-701-1033", 52, "GGT", "Gamma Glutamyl Transferase", "CHEMISTRY", "26", "U/L", "10", "50", "26", 26, "U/L", 10, 50, "NORMAL", "", 4.0, "WEEK 2", 14, "TREATMENT", "2014-04-01T08:55", 15], ["CDISCPILOT01", "LB", "01-701-1033", 87, "GGT", "Gamma Glutamyl Transferase", "CHEMISTRY", "21", "U/L", "10", "50", "21", 21, "U/L", 10, 50, "NORMAL", "", 5.0, "WEEK 4", 28, "TREATMENT", "2014-04-14T10:38", 28], ["CDISCPILOT01", "LB", "01-701-1033", 16, "GLUC", "Glucose", "CHEMISTRY", "90", "mg/dL", "50", "250", "4.9959", 4, "mmol/L", 2, 13, "NORMAL", "Y", 1.0, "SCREENING 1", -7, "SCREENING", "2014-03-10T12:31", -8], ["CDISCPILOT01", "LB", "01-701-1033", 53, "GLUC", "Glucose", "CHEMISTRY", "103", "mg/dL", "50", "250", "5.71753", 5, "mmol/L", 2, 13, "NORMAL", "", 4.0, "WEEK 2", 14, "TREATMENT", "2014-04-01T08:55", 15], ["CDISCPILOT01", "LB", "01-701-1033", 88, "GLUC", "Glucose", "CHEMISTRY", "98", "mg/dL", "50", "250", "5.43998", 5, "mmol/L", 2, 13, "NORMAL", "", 5.0, "WEEK 4", 28, "TREATMENT", "2014-04-14T10:38", 28], ["CDISCPILOT01", "LB", "01-701-1033", 19, "K", "Potassium", "CHEMISTRY", "4.1", "mEq/L", "3.4", "5.4", "4.1", 4, "mmol/L", 3, 5, "NORMAL", "Y", 1.0, "SCREENING 1", -7, "SCREENING", "2014-03-10T12:31", -8], ["CDISCPILOT01", "LB", "01-701-1033", 56, "K", "Potassium", "CHEMISTRY", "4.2", "mEq/L", "3.4", "5.4", "4.2", 4, "mmol/L", 3, 5, "NORMAL", "", 4.0, "WEEK 2", 14, "TREATMENT", "2014-04-01T08:55", 15], ["CDISCPILOT01", "LB", "01-701-1033", 91, "K", "Potassium", "CHEMISTRY", "3.9", "mEq/L", "3.4", "5.4", "3.9", 3, "mmol/L", 3, 5, "NORMAL", "", 5.0, "WEEK 4", 28, "TREATMENT", "2014-04-14T10:38", 28], ["CDISCPILOT01", "LB", "01-701-1033", 26, "SODIUM", "Sodium", "CHEMISTRY", "145", "mEq/L", "135", "145", "145", 145, "mmol/L", 135, 145, "NORMAL", "Y", 1.0, "SCREENING 1", -7, "SCREENING", "2014-03-10T12:31", -8], ["CDISCPILOT01", "LB", "01-701-1033", 63, "SODIUM", "Sodium", "CHEMISTRY", "140", "mEq/L", "135", "145", "140", 140, "mmol/L", 135, 145, "NORMAL", "", 4.0, "WEEK 2", 14, "TREATMENT", "2014-04-01T08:55", 15], ["CDISCPILOT01", "LB", "01-701-1033", 98, "SODIUM", "Sodium", "CHEMISTRY", "140", "mEq/L", "135", "145", "140", 140, "mmol/L", 135, 145, "NORMAL", "", 5.0, "WEEK 4", 28, "TREATMENT", "2014-04-14T10:38", 28], ["CDISCPILOT01", "LB", "01-701-1033", 28, "PHOS", "Phosphate", "CHEMISTRY", "3.8", "mg/dL", "2.2", "5.1", "1.22702", 1, "mmol/L", 0, 1, "NORMAL", "Y", 1.0, "SCREENING 1", -7, "SCREENING", "2014-03-10T12:31", -8], ["CDISCPILOT01", "LB", "01-701-1033", 65, "PHOS", "Phosphate", "CHEMISTRY", "3.3", "mg/dL", "2.2", "5.1", "1.06557", 1, "mmol/L", 0, 1, "NORMAL", "", 4.0, "WEEK 2", 14, "TREATMENT", "2014-04-01T08:55", 15], ["CDISCPILOT01", "LB", "01-701-1033", 100, "PHOS", "Phosphate", "CHEMISTRY", "3.5", "mg/dL", "2.2", "5.1", "1.13015", 1, "mmol/L", 0, 1, "NORMAL", "", 5.0, "WEEK 4", 28, "TREATMENT", "2014-04-14T10:38", 28], ["CDISCPILOT01", "LB", "01-701-1033", 30, "PROT", "Protein", "CHEMISTRY", "7.3", "g/dL", "6", "8", "73", 73, "g/L", 60, 80, "NORMAL", "Y", 1.0, "SCREENING 1", -7, "SCREENING", "2014-03-10T12:31", -8], ["CDISCPILOT01", "LB", "01-701-1033", 67, "PROT", "Protein", "CHEMISTRY", "7.4", "g/dL", "6", "8", "74", 74, "g/L", 60, 80, "NORMAL", "", 4.0, "WEEK 2", 14, "TREATMENT", "2014-04-01T08:55", 15], ["CDISCPILOT01", "LB", "01-701-1033", 102, "PROT", "Protein", "CHEMISTRY", "7.2", "g/dL", "6", "8", "72", 72, "g/L", 60, 80, "NORMAL", "", 5.0, "WEEK 4", 28, "TREATMENT", "2014-04-14T10:38", 28], ["CDISCPILOT01", "LB", "01-701-1033", 34, "URATE", "Urate", "CHEMISTRY", "7.2", "mg/dL", "2.5", "7.5", "428.256", 428, "umol/L", 149, 446, "NORMAL", "Y", 1.0, "SCREENING 1", -7, "SCREENING", "2014-03-10T12:31", -8], ["CDISCPILOT01", "LB", "01-701-1033", 70, "URATE", "Urate", "CHEMISTRY", "6.9", "mg/dL", "2.5", "7.5", "410.412", 410, "umol/L", 149, 446, "NORMAL", "", 4.0, "WEEK 2", 14, "TREATMENT", "2014-04-01T08:55", 15], ["CDISCPILOT01", "LB", "01-701-1033", 105, "URATE", "Urate", "CHEMISTRY", "7.8", "mg/dL", "2.5", "7.5", "463.944", 463, "umol/L", 149, 446, "HIGH", "", 5.0, "WEEK 4", 28, "TREATMENT", "2014-04-14T10:38", 28], ["CDISCPILOT01", "LB", "01-701-1034", 1, "ALB", "Albumin", "CHEMISTRY", "4.3", "g/dL", "3.5", "4.6", "43", 43, "g/L", 35, 46, "NORMAL", "Y", 1.0, "SCREENING 1", -7, "SCREENING", "2014-06-24T15:30", -7], ["CDISCPILOT01", "LB", "01-701-1034", 39, "ALB", "Albumin", "CHEMISTRY", "4.2", "g/dL", "3.5", "4.6", "42", 42, "g/L", 35, 46, "NORMAL", "", 4.0, "WEEK 2", 14, "TREATMENT", "2014-07-15T09:25", 15], ["CDISCPILOT01", "LB", "01-701-1034", 75, "ALB", "Albumin", "CHEMISTRY", "4.1", "g/dL", "3.5", "4.6", "41", 41, "g/L", 35, 46, "NORMAL", "", 5.0, "WEEK 4", 28, "TREATMENT", "2014-07-29T08:40", 29], ["CDISCPILOT01", "LB", "01-701-1034", 106, "ALB", "Albumin", "CHEMISTRY", "3.8", "g/dL", "3.5", "4.6", "38", 38, "g/L", 35, 46, "NORMAL", "", 7.0, "WEEK 6", 42, "TREATMENT", "2014-08-11T13:15", 42], ["CDISCPILOT01", "LB", "01-701-1034", 137, "ALB", "Albumin", "CHEMISTRY", "4.1", "g/dL", "3.5", "4.6", "41", 41, "g/L", 35, 46, "NORMAL", "", 8.0, "WEEK 8", 56, "TREATMENT", "2014-08-26T09:57", 57], ["CDISCPILOT01", "LB", "01-701-1034", 167, "ALB", "Albumin", "CHEMISTRY", "3.9", "g/dL", "3.5", "4.6", "39", 39, "g/L", 35, 46, "NORMAL", "", 9.0, "WEEK 12", 84, "TREATMENT", "2014-09-25T15:40", 87], ["CDISCPILOT01", "LB", "01-701-1034", 202, "ALB", "Albumin", "CHEMISTRY", "3.9", "g/dL", "3.5", "4.6", "39", 39, "g/L", 35, 46, "NORMAL", "", 10.0, "WEEK 16", 112, "TREATMENT", "2014-10-21T09:52", 113], ["CDISCPILOT01", "LB", "01-701-1034", 233, "ALB", "Albumin", "CHEMISTRY", "3.9", "g/dL", "3.5", "4.6", "39", 39, "g/L", 35, 46, "NORMAL", "", 11.0, "WEEK 20", 140, "TREATMENT", "2014-11-18T12:23", 141], ["CDISCPILOT01", "LB", "01-701-1034", 264, "ALB", "Albumin", "CHEMISTRY", "4.0", "g/dL", "3.5", "4.6", "40", 40, "g/L", 35, 46, "NORMAL", "", 12.0, "WEEK 24", 168, "TREATMENT", "2014-12-17T14:27", 170], ["CDISCPILOT01", "LB", "01-701-1034", 300, "ALB", "Albumin", "CHEMISTRY", "4.1", "g/dL", "3.5", "4.6", "41", 41, "g/L", 35, 46, "NORMAL", "", 13.0, "WEEK 26", 182, "TREATMENT", "2014-12-30T09:50", 183], ["CDISCPILOT01", "LB", "01-701-1034", 2, "ALP", "Alkaline Phosphatase", "CHEMISTRY", "41", "U/L", "35", "115", "41", 41, "U/L", 35, 115, "NORMAL", "Y", 1.0, "SCREENING 1", -7, "SCREENING", "2014-06-24T15:30", -7], ["CDISCPILOT01", "LB", "01-701-1034", 40, "ALP", "Alkaline Phosphatase", "CHEMISTRY", "34", "U/L", "35", "115", "34", 34, "U/L", 35, 115, "LOW", "", 4.0, "WEEK 2", 14, "TREATMENT", "2014-07-15T09:25", 15], ["CDISCPILOT01", "LB", "01-701-1034", 76, "ALP", "Alkaline Phosphatase", "CHEMISTRY", "36", "U/L", "35", "115", "36", 36, "U/L", 35, 115, "NORMAL", "", 5.0, "WEEK 4", 28, "TREATMENT", "2014-07-29T08:40", 29], ["CDISCPILOT01", "LB", "01-701-1034", 107, "ALP", "Alkaline Phosphatase", "CHEMISTRY", "33", "U/L", "35", "115", "33", 33, "U/L", 35, 115, "LOW", "", 7.0, "WEEK 6", 42, "TREATMENT", "2014-08-11T13:15", 42], ["CDISCPILOT01", "LB", "01-701-1034", 138, "ALP", "Alkaline Phosphatase", "CHEMISTRY", "29", "U/L", "35", "115", "29", 29, "U/L", 35, 115, "LOW", "", 8.0, "WEEK 8", 56, "TREATMENT", "2014-08-26T09:57", 57], ["CDISCPILOT01", "LB", "01-701-1034", 168, "ALP", "Alkaline Phosphatase", "CHEMISTRY", "34", "U/L", "35", "115", "34", 34, "U/L", 35, 115, "LOW", "", 9.0, "WEEK 12", 84, "TREATMENT", "2014-09-25T15:40", 87], ["CDISCPILOT01", "LB", "01-701-1034", 203, "ALP", "Alkaline Phosphatase", "CHEMISTRY", "34", "U/L", "35", "115", "34", 34, "U/L", 35, 115, "LOW", "", 10.0, "WEEK 16", 112, "TREATMENT", "2014-10-21T09:52", 113], ["CDISCPILOT01", "LB", "01-701-1034", 234, "ALP", "Alkaline Phosphatase", "CHEMISTRY", "31", "U/L", "35", "115", "31", 31, "U/L", 35, 115, "LOW", "", 11.0, "WEEK 20", 140, "TREATMENT", "2014-11-18T12:23", 141], ["CDISCPILOT01", "LB", "01-701-1034", 265, "ALP", "Alkaline Phosphatase", "CHEMISTRY", "40", "U/L", "35", "115", "40", 40, "U/L", 35, 115, "NORMAL", "", 12.0, "WEEK 24", 168, "TREATMENT", "2014-12-17T14:27", 170], ["CDISCPILOT01", "LB", "01-701-1034", 301, "ALP", "Alkaline Phosphatase", "CHEMISTRY", "27", "U/L", "35", "115", "27", 27, "U/L", 35, 115, "LOW", "", 13.0, "WEEK 26", 182, "TREATMENT", "2014-12-30T09:50", 183], ["CDISCPILOT01", "LB", "01-701-1034", 3, "ALT", "Alanine Aminotransferase", "CHEMISTRY", "15", "U/L", "6", "32", "15", 15, "U/L", 6, 32, "NORMAL", "Y", 1.0, "SCREENING 1", -7, "SCREENING", "2014-06-24T15:30", -7], ["CDISCPILOT01", "LB", "01-701-1034", 41, "ALT", "Alanine Aminotransferase", "CHEMISTRY", "19", "U/L", "6", "32", "19", 19, "U/L", 6, 32, "NORMAL", "", 4.0, "WEEK 2", 14, "TREATMENT", "2014-07-15T09:25", 15], ["CDISCPILOT01", "LB", "01-701-1034", 77, "ALT", "Alanine Aminotransferase", "CHEMISTRY", "21", "U/L", "6", "32", "21", 21, "U/L", 6, 32, "NORMAL", "", 5.0, "WEEK 4", 28, "TREATMENT", "2014-07-29T08:40", 29], ["CDISCPILOT01", "LB", "01-701-1034", 108, "ALT", "Alanine Aminotransferase", "CHEMISTRY", "15", "U/L", "6", "32", "15", 15, "U/L", 6, 32, "NORMAL", "", 7.0, "WEEK 6", 42, "TREATMENT", "2014-08-11T13:15", 42], ["CDISCPILOT01", "LB", "01-701-1034", 139, "ALT", "Alanine Aminotransferase", "CHEMISTRY", "24", "U/L", "6", "32", "24", 24, "U/L", 6, 32, "NORMAL", "", 8.0, "WEEK 8", 56, "TREATMENT", "2014-08-26T09:57", 57], ["CDISCPILOT01", "LB", "01-701-1034", 169, "ALT", "Alanine Aminotransferase", "CHEMISTRY", "20", "U/L", "6", "32", "20", 20, "U/L", 6, 32, "NORMAL", "", 9.0, "WEEK 12", 84, "TREATMENT", "2014-09-25T15:40", 87], ["CDISCPILOT01", "LB", "01-701-1034", 204, "ALT", "Alanine Aminotransferase", "CHEMISTRY", "21", "U/L", "6", "32", "21", 21, "U/L", 6, 32, "NORMAL", "", 10.0, "WEEK 16", 112, "TREATMENT", "2014-10-21T09:52", 113], ["CDISCPILOT01", "LB", "01-701-1034", 235, "ALT", "Alanine Aminotransferase", "CHEMISTRY", "23", "U/L", "6", "32", "23", 23, "U/L", 6, 32, "NORMAL", "", 11.0, "WEEK 20", 140, "TREATMENT", "2014-11-18T12:23", 141], ["CDISCPILOT01", "LB", "01-701-1034", 266, "ALT", "Alanine Aminotransferase", "CHEMISTRY", "15", "U/L", "6", "32", "15", 15, "U/L", 6, 32, "NORMAL", "", 12.0, "WEEK 24", 168, "TREATMENT", "2014-12-17T14:27", 170], ["CDISCPILOT01", "LB", "01-701-1034", 302, "ALT", "Alanine Aminotransferase", "CHEMISTRY", "18", "U/L", "6", "32", "18", 18, "U/L", 6, 32, "NORMAL", "", 13.0, "WEEK 26", 182, "TREATMENT", "2014-12-30T09:50", 183], ["CDISCPILOT01", "LB", "01-701-1034", 5, "AST", "Aspartate Aminotransferase", "CHEMISTRY", "23", "U/L", "9", "34", "23", 23, "U/L", 9, 34, "NORMAL", "Y", 1.0, "SCREENING 1", -7, "SCREENING", "2014-06-24T15:30", -7], ["CDISCPILOT01", "LB", "01-701-1034", 42, "AST", "Aspartate Aminotransferase", "CHEMISTRY", "23", "U/L", "9", "34", "23", 23, "U/L", 9, 34, "NORMAL", "", 4.0, "WEEK 2", 14, "TREATMENT", "2014-07-15T09:25", 15], ["CDISCPILOT01", "LB", "01-701-1034", 79, "AST", "Aspartate Aminotransferase", "CHEMISTRY", "25", "U/L", "9", "34", "25", 25, "U/L", 9, 34, "NORMAL", "", 5.0, "WEEK 4", 28, "TREATMENT", "2014-07-29T08:40", 29], ["CDISCPILOT01", "LB", "01-701-1034", 110, "AST", "Aspartate Aminotransferase", "CHEMISTRY", "19", "U/L", "9", "34", "19", 19, "U/L", 9, 34, "NORMAL", "", 7.0, "WEEK 6", 42, "TREATMENT", "2014-08-11T13:15", 42], ["CDISCPILOT01", "LB", "01-701-1034", 140, "AST", "Aspartate Aminotransferase", "CHEMISTRY", "26", "U/L", "9", "34", "26", 26, "U/L", 9, 34, "NORMAL", "", 8.0, "WEEK 8", 56, "TREATMENT", "2014-08-26T09:57", 57], ["CDISCPILOT01", "LB", "01-701-1034", 170, "AST", "Aspartate Aminotransferase", "CHEMISTRY", "23", "U/L", "9", "34", "23", 23, "U/L", 9, 34, "NORMAL", "", 9.0, "WEEK 12", 84, "TREATMENT", "2014-09-25T15:40", 87], ["CDISCPILOT01", "LB", "01-701-1034", 205, "AST", "Aspartate Aminotransferase", "CHEMISTRY", "21", "U/L", "9", "34", "21", 21, "U/L", 9, 34, "NORMAL", "", 10.0, "WEEK 16", 112, "TREATMENT", "2014-10-21T09:52", 113], ["CDISCPILOT01", "LB", "01-701-1034", 236, "AST", "Aspartate Aminotransferase", "CHEMISTRY", "22", "U/L", "9", "34", "22", 22, "U/L", 9, 34, "NORMAL", "", 11.0, "WEEK 20", 140, "TREATMENT", "2014-11-18T12:23", 141], ["CDISCPILOT01", "LB", "01-701-1034", 267, "AST", "Aspartate Aminotransferase", "CHEMISTRY", "17", "U/L", "9", "34", "17", 17, "U/L", 9, 34, "NORMAL", "", 12.0, "WEEK 24", 168, "TREATMENT", "2014-12-17T14:27", 170], ["CDISCPILOT01", "LB", "01-701-1034", 304, "AST", "Aspartate Aminotransferase", "CHEMISTRY", "21", "U/L", "9", "34", "21", 21, "U/L", 9, 34, "NORMAL", "", 13.0, "WEEK 26", 182, "TREATMENT", "2014-12-30T09:50", 183], ["CDISCPILOT01", "LB", "01-701-1034", 7, "BILI", "Bilirubin", "CHEMISTRY", "0.6", "mg/dL", "0.2", "1.2", "10.26", 10, "umol/L", 3, 21, "NORMAL", "Y", 1.0, "SCREENING 1", -7, "SCREENING", "2014-06-24T15:30", -7], ["CDISCPILOT01", "LB", "01-701-1034", 44, "BILI", "Bilirubin", "CHEMISTRY", "0.4", "mg/dL", "0.2", "1.2", "6.84", 6, "umol/L", 3, 21, "NORMAL", "", 4.0, "WEEK 2", 14, "TREATMENT", "2014-07-15T09:25", 15], ["CDISCPILOT01", "LB", "01-701-1034", 81, "BILI", "Bilirubin", "CHEMISTRY", "0.4", "mg/dL", "0.2", "1.2", "6.84", 6, "umol/L", 3, 21, "NORMAL", "", 5.0, "WEEK 4", 28, "TREATMENT", "2014-07-29T08:40", 29], ["CDISCPILOT01", "LB", "01-701-1034", 112, "BILI", "Bilirubin", "CHEMISTRY", "0.4", "mg/dL", "0.2", "1.2", "6.84", 6, "umol/L", 3, 21, "NORMAL", "", 7.0, "WEEK 6", 42, "TREATMENT", "2014-08-11T13:15", 42], ["CDISCPILOT01", "LB", "01-701-1034", 142, "BILI", "Bilirubin", "CHEMISTRY", "0.5", "mg/dL", "0.2", "1.2", "8.55", 8, "umol/L", 3, 21, "NORMAL", "", 8.0, "WEEK 8", 56, "TREATMENT", "2014-08-26T09:57", 57], ["CDISCPILOT01", "LB", "01-701-1034", 172, "BILI", "Bilirubin", "CHEMISTRY", "0.5", "mg/dL", "0.2", "1.2", "8.55", 8, "umol/L", 3, 21, "NORMAL", "", 9.0, "WEEK 12", 84, "TREATMENT", "2014-09-25T15:40", 87], ["CDISCPILOT01", "LB", "01-701-1034", 207, "BILI", "Bilirubin", "CHEMISTRY", "0.4", "mg/dL", "0.2", "1.2", "6.84", 6, "umol/L", 3, 21, "NORMAL", "", 10.0, "WEEK 16", 112, "TREATMENT", "2014-10-21T09:52", 113], ["CDISCPILOT01", "LB", "01-701-1034", 238, "BILI", "Bilirubin", "CHEMISTRY", "0.3", "mg/dL", "0.2", "1.2", "5.13", 5, "umol/L", 3, 21, "NORMAL", "", 11.0, "WEEK 20", 140, "TREATMENT", "2014-11-18T12:23", 141], ["CDISCPILOT01", "LB", "01-701-1034", 269, "BILI", "Bilirubin", "CHEMISTRY", "0.4", "mg/dL", "0.2", "1.2", "6.84", 6, "umol/L", 3, 21, "NORMAL", "", 12.0, "WEEK 24", 168, "TREATMENT", "2014-12-17T14:27", 170], ["CDISCPILOT01", "LB", "01-701-1034", 306, "BILI", "Bilirubin", "CHEMISTRY", "0.4", "mg/dL", "0.2", "1.2", "6.84", 6, "umol/L", 3, 21, "NORMAL", "", 13.0, "WEEK 26", 182, "TREATMENT", "2014-12-30T09:50", 183], ["CDISCPILOT01", "LB", "01-701-1034", 8, "UREAN", "Urea Nitrogen", "CHEMISTRY", "12", "mg/dL", "4", "24", "4.284", 4, "mmol/L", 1, 8, "NORMAL", "Y", 1.0, "SCREENING 1", -7, "SCREENING", "2014-06-24T15:30", -7], ["CDISCPILOT01", "LB", "01-701-1034", 45, "UREAN", "Urea Nitrogen", "CHEMISTRY", "12", "mg/dL", "4", "24", "4.284", 4, "mmol/L", 1, 8, "NORMAL", "", 4.0, "WEEK 2", 14, "TREATMENT", "2014-07-15T09:25", 15], ["CDISCPILOT01", "LB", "01-701-1034", 82, "UREAN", "Urea Nitrogen", "CHEMISTRY", "12", "mg/dL", "4", "24", "4.284", 4, "mmol/L", 1, 8, "NORMAL", "", 5.0, "WEEK 4", 28, "TREATMENT", "2014-07-29T08:40", 29], ["CDISCPILOT01", "LB", "01-701-1034", 113, "UREAN", "Urea Nitrogen", "CHEMISTRY", "14", "mg/dL", "4", "24", "4.998", 4, "mmol/L", 1, 8, "NORMAL", "", 7.0, "WEEK 6", 42, "TREATMENT", "2014-08-11T13:15", 42], ["CDISCPILOT01", "LB", "01-701-1034", 143, "UREAN", "Urea Nitrogen", "CHEMISTRY", "12", "mg/dL", "4", "24", "4.284", 4, "mmol/L", 1, 8, "NORMAL", "", 8.0, "WEEK 8", 56, "TREATMENT", "2014-08-26T09:57", 57], ["CDISCPILOT01", "LB", "01-701-1034", 173, "UREAN", "Urea Nitrogen", "CHEMISTRY", "19", "mg/dL", "4", "24", "6.783", 6, "mmol/L", 1, 8, "NORMAL", "", 9.0, "WEEK 12", 84, "TREATMENT", "2014-09-25T15:40", 87], ["CDISCPILOT01", "LB", "01-701-1034", 208, "UREAN", "Urea Nitrogen", "CHEMISTRY", "14", "mg/dL", "4", "24", "4.998", 4, "mmol/L", 1, 8, "NORMAL", "", 10.0, "WEEK 16", 112, "TREATMENT", "2014-10-21T09:52", 113], ["CDISCPILOT01", "LB", "01-701-1034", 239, "UREAN", "Urea Nitrogen", "CHEMISTRY", "16", "mg/dL", "4", "24", "5.712", 5, "mmol/L", 1, 8, "NORMAL", "", 11.0, "WEEK 20", 140, "TREATMENT", "2014-11-18T12:23", 141], ["CDISCPILOT01", "LB", "01-701-1034", 270, "UREAN", "Urea Nitrogen", "CHEMISTRY", "13", "mg/dL", "4", "24", "4.641", 4, "mmol/L", 1, 8, "NORMAL", "", 12.0, "WEEK 24", 168, "TREATMENT", "2014-12-17T14:27", 170], ["CDISCPILOT01", "LB", "01-701-1034", 307, "UREAN", "Urea Nitrogen", "CHEMISTRY", "11", "mg/dL", "4", "24", "3.927", 3, "mmol/L", 1, 8, "NORMAL", "", 13.0, "WEEK 26", 182, "TREATMENT", "2014-12-30T09:50", 183], ["CDISCPILOT01", "LB", "01-701-1034", 9, "CA", "Calcium", "CHEMISTRY", "10.2", "mg/dL", "8.4", "10.3", "2.5449", 2, "mmol/L", 2, 2, "NORMAL", "Y", 1.0, "SCREENING 1", -7, "SCREENING", "2014-06-24T15:30", -7], ["CDISCPILOT01", "LB", "01-701-1034", 46, "CA", "Calcium", "CHEMISTRY", "10.3", "mg/dL", "8.4", "10.3", "2.56985", 2, "mmol/L", 2, 2, "NORMAL", "", 4.0, "WEEK 2", 14, "TREATMENT", "2014-07-15T09:25", 15], ["CDISCPILOT01", "LB", "01-701-1034", 83, "CA", "Calcium", "CHEMISTRY", "9.8", "mg/dL", "8.4", "10.3", "2.4451", 2, "mmol/L", 2, 2, "NORMAL", "", 5.0, "WEEK 4", 28, "TREATMENT", "2014-07-29T08:40", 29], ["CDISCPILOT01", "LB", "01-701-1034", 114, "CA", "Calcium", "CHEMISTRY", "9.4", "mg/dL", "8.4", "10.3", "2.3453", 2, "mmol/L", 2, 2, "NORMAL", "", 7.0, "WEEK 6", 42, "TREATMENT", "2014-08-11T13:15", 42], ["CDISCPILOT01", "LB", "01-701-1034", 144, "CA", "Calcium", "CHEMISTRY", "10.0", "mg/dL", "8.4", "10.3", "2.495", 2, "mmol/L", 2, 2, "NORMAL", "", 8.0, "WEEK 8", 56, "TREATMENT", "2014-08-26T09:57", 57], ["CDISCPILOT01", "LB", "01-701-1034", 174, "CA", "Calcium", "CHEMISTRY", "9.7", "mg/dL", "8.4", "10.3", "2.42015", 2, "mmol/L", 2, 2, "NORMAL", "", 9.0, "WEEK 12", 84, "TREATMENT", "2014-09-25T15:40", 87], ["CDISCPILOT01", "LB", "01-701-1034", 209, "CA", "Calcium", "CHEMISTRY", "9.6", "mg/dL", "8.4", "10.3", "2.3952", 2, "mmol/L", 2, 2, "NORMAL", "", 10.0, "WEEK 16", 112, "TREATMENT", "2014-10-21T09:52", 113], ["CDISCPILOT01", "LB", "01-701-1034", 240, "CA", "Calcium", "CHEMISTRY", "9.6", "mg/dL", "8.4", "10.3", "2.3952", 2, "mmol/L", 2, 2, "NORMAL", "", 11.0, "WEEK 20", 140, "TREATMENT", "2014-11-18T12:23", 141], ["CDISCPILOT01", "LB", "01-701-1034", 271, "CA", "Calcium", "CHEMISTRY", "10.0", "mg/dL", "8.4", "10.3", "2.495", 2, "mmol/L", 2, 2, "NORMAL", "", 12.0, "WEEK 24", 168, "TREATMENT", "2014-12-17T14:27", 170], ["CDISCPILOT01", "LB", "01-701-1034", 308, "CA", "Calcium", "CHEMISTRY", "9.6", "mg/dL", "8.4", "10.3", "2.3952", 2, "mmol/L", 2, 2, "NORMAL", "", 13.0, "WEEK 26", 182, "TREATMENT", "2014-12-30T09:50", 183], ["CDISCPILOT01", "LB", "01-701-1034", 10, "CHOL", "Cholesterol", "CHEMISTRY", "298", "mg/dL", "156", "300", "7.70628", 7, "mmol/L", 4, 7, "NORMAL", "Y", 1.0, "SCREENING 1", -7, "SCREENING", "2014-06-24T15:30", -7], ["CDISCPILOT01", "LB", "01-701-1034", 47, "CHOL", "Cholesterol", "CHEMISTRY", "271", "mg/dL", "156", "300", "7.00806", 7, "mmol/L", 4, 7, "NORMAL", "", 4.0, "WEEK 2", 14, "TREATMENT", "2014-07-15T09:25", 15], ["CDISCPILOT01", "LB", "01-701-1034", 84, "CHOL", "Cholesterol", "CHEMISTRY", "284", "mg/dL", "156", "300", "7.34424", 7, "mmol/L", 4, 7, "NORMAL", "", 5.0, "WEEK 4", 28, "TREATMENT", "2014-07-29T08:40", 29], ["CDISCPILOT01", "LB", "01-701-1034", 115, "CHOL", "Cholesterol", "CHEMISTRY", "223", "mg/dL", "156", "300", "5.76678", 5, "mmol/L", 4, 7, "NORMAL", "", 7.0, "WEEK 6", 42, "TREATMENT", "2014-08-11T13:15", 42], ["CDISCPILOT01", "LB", "01-701-1034", 145, "CHOL", "Cholesterol", "CHEMISTRY", "291", "mg/dL", "156", "300", "7.52526", 7, "mmol/L", 4, 7, "NORMAL", "", 8.0, "WEEK 8", 56, "TREATMENT", "2014-08-26T09:57", 57], ["CDISCPILOT01", "LB", "01-701-1034", 175, "CHOL", "Cholesterol", "CHEMISTRY", "261", "mg/dL", "156", "300", "6.74946", 6, "mmol/L", 4, 7, "NORMAL", "", 9.0, "WEEK 12", 84, "TREATMENT", "2014-09-25T15:40", 87], ["CDISCPILOT01", "LB", "01-701-1034", 210, "CHOL", "Cholesterol", "CHEMISTRY", "277", "mg/dL", "156", "300", "7.16322", 7, "mmol/L", 4, 7, "NORMAL", "", 10.0, "WEEK 16", 112, "TREATMENT", "2014-10-21T09:52", 113], ["CDISCPILOT01", "LB", "01-701-1034", 241, "CHOL", "Cholesterol", "CHEMISTRY", "236", "mg/dL", "156", "300", "6.10296", 6, "mmol/L", 4, 7, "NORMAL", "", 11.0, "WEEK 20", 140, "TREATMENT", "2014-11-18T12:23", 141], ["CDISCPILOT01", "LB", "01-701-1034", 272, "CHOL", "Cholesterol", "CHEMISTRY", "236", "mg/dL", "156", "300", "6.10296", 6, "mmol/L", 4, 7, "NORMAL", "", 12.0, "WEEK 24", 168, "TREATMENT", "2014-12-17T14:27", 170], ["CDISCPILOT01", "LB", "01-701-1034", 309, "CHOL", "Cholesterol", "CHEMISTRY", "208", "mg/dL", "156", "300", "5.37888", 5, "mmol/L", 4, 7, "NORMAL", "", 13.0, "WEEK 26", 182, "TREATMENT", "2014-12-30T09:50", 183], ["CDISCPILOT01", "LB", "01-701-1034", 11, "CK", "Creatine Kinase", "CHEMISTRY", "65", "U/L", "21", "169", "65", 65, "U/L", 21, 169, "NORMAL", "Y", 1.0, "SCREENING 1", -7, "SCREENING", "2014-06-24T15:30", -7], ["CDISCPILOT01", "LB", "01-701-1034", 48, "CK", "Creatine Kinase", "CHEMISTRY", "50", "U/L", "21", "169", "50", 50, "U/L", 21, 169, "NORMAL", "", 4.0, "WEEK 2", 14, "TREATMENT", "2014-07-15T09:25", 15], ["CDISCPILOT01", "LB", "01-701-1034", 85, "CK", "Creatine Kinase", "CHEMISTRY", "72", "U/L", "21", "169", "72", 72, "U/L", 21, 169, "NORMAL", "", 5.0, "WEEK 4", 28, "TREATMENT", "2014-07-29T08:40", 29], ["CDISCPILOT01", "LB", "01-701-1034", 116, "CK", "Creatine Kinase", "CHEMISTRY", "58", "U/L", "21", "169", "58", 58, "U/L", 21, 169, "NORMAL", "", 7.0, "WEEK 6", 42, "TREATMENT", "2014-08-11T13:15", 42], ["CDISCPILOT01", "LB", "01-701-1034", 146, "CK", "Creatine Kinase", "CHEMISTRY", "90", "U/L", "21", "169", "90", 90, "U/L", 21, 169, "NORMAL", "", 8.0, "WEEK 8", 56, "TREATMENT", "2014-08-26T09:57", 57], ["CDISCPILOT01", "LB", "01-701-1034", 176, "CK", "Creatine Kinase", "CHEMISTRY", "72", "U/L", "21", "169", "72", 72, "U/L", 21, 169, "NORMAL", "", 9.0, "WEEK 12", 84, "TREATMENT", "2014-09-25T15:40", 87], ["CDISCPILOT01", "LB", "01-701-1034", 211, "CK", "Creatine Kinase", "CHEMISTRY", "55", "U/L", "21", "169", "55", 55, "U/L", 21, 169, "NORMAL", "", 10.0, "WEEK 16", 112, "TREATMENT", "2014-10-21T09:52", 113], ["CDISCPILOT01", "LB", "01-701-1034", 242, "CK", "Creatine Kinase", "CHEMISTRY", "54", "U/L", "21", "169", "54", 54, "U/L", 21, 169, "NORMAL", "", 11.0, "WEEK 20", 140, "TREATMENT", "2014-11-18T12:23", 141], ["CDISCPILOT01", "LB", "01-701-1034", 273, "CK", "Creatine Kinase", "CHEMISTRY", "57", "U/L", "21", "169", "57", 57, "U/L", 21, 169, "NORMAL", "", 12.0, "WEEK 24", 168, "TREATMENT", "2014-12-17T14:27", 170], ["CDISCPILOT01", "LB", "01-701-1034", 310, "CK", "Creatine Kinase", "CHEMISTRY", "54", "U/L", "21", "169", "54", 54, "U/L", 21, 169, "NORMAL", "", 13.0, "WEEK 26", 182, "TREATMENT", "2014-12-30T09:50", 183], ["CDISCPILOT01", "LB", "01-701-1034", 12, "CL", "Chloride", "CHEMISTRY", "100", "mEq/L", "94", "112", "100", 100, "mmol/L", 94, 112, "NORMAL", "Y", 1.0, "SCREENING 1", -7, "SCREENING", "2014-06-24T15:30", -7], ["CDISCPILOT01", "LB", "01-701-1034", 49, "CL", "Chloride", "CHEMISTRY", "103", "mEq/L", "94", "112", "103", 103, "mmol/L", 94, 112, "NORMAL", "", 4.0, "WEEK 2", 14, "TREATMENT", "2014-07-15T09:25", 15], ["CDISCPILOT01", "LB", "01-701-1034", 86, "CL", "Chloride", "CHEMISTRY", "102", "mEq/L", "94", "112", "102", 102, "mmol/L", 94, 112, "NORMAL", "", 5.0, "WEEK 4", 28, "TREATMENT", "2014-07-29T08:40", 29], ["CDISCPILOT01", "LB", "01-701-1034", 117, "CL", "Chloride", "CHEMISTRY", "104", "mEq/L", "94", "112", "104", 104, "mmol/L", 94, 112, "NORMAL", "", 7.0, "WEEK 6", 42, "TREATMENT", "2014-08-11T13:15", 42], ["CDISCPILOT01", "LB", "01-701-1034", 147, "CL", "Chloride", "CHEMISTRY", "104", "mEq/L", "94", "112", "104", 104, "mmol/L", 94, 112, "NORMAL", "", 8.0, "WEEK 8", 56, "TREATMENT", "2014-08-26T09:57", 57], ["CDISCPILOT01", "LB", "01-701-1034", 177, "CL", "Chloride", "CHEMISTRY", "103", "mEq/L", "94", "112", "103", 103, "mmol/L", 94, 112, "NORMAL", "", 9.0, "WEEK 12", 84, "TREATMENT", "2014-09-25T15:40", 87], ["CDISCPILOT01", "LB", "01-701-1034", 212, "CL", "Chloride", "CHEMISTRY", "102", "mEq/L", "94", "112", "102", 102, "mmol/L", 94, 112, "NORMAL", "", 10.0, "WEEK 16", 112, "TREATMENT", "2014-10-21T09:52", 113], ["CDISCPILOT01", "LB", "01-701-1034", 243, "CL", "Chloride", "CHEMISTRY", "102", "mEq/L", "94", "112", "102", 102, "mmol/L", 94, 112, "NORMAL", "", 11.0, "WEEK 20", 140, "TREATMENT", "2014-11-18T12:23", 141], ["CDISCPILOT01", "LB", "01-701-1034", 274, "CL", "Chloride", "CHEMISTRY", "98", "mEq/L", "94", "112", "98", 98, "mmol/L", 94, 112, "NORMAL", "", 12.0, "WEEK 24", 168, "TREATMENT", "2014-12-17T14:27", 170], ["CDISCPILOT01", "LB", "01-701-1034", 311, "CL", "Chloride", "CHEMISTRY", "100", "mEq/L", "94", "112", "100", 100, "mmol/L", 94, 112, "NORMAL", "", 13.0, "WEEK 26", 182, "TREATMENT", "2014-12-30T09:50", 183], ["CDISCPILOT01", "LB", "01-701-1034", 14, "CREAT", "Creatinine", "CHEMISTRY", "1.0", "mg/dL", "0.7", "1.4", "88.4", 88, "umol/L", 62, 124, "NORMAL", "Y", 1.0, "SCREENING 1", -7, "SCREENING", "2014-06-24T15:30", -7], ["CDISCPILOT01", "LB", "01-701-1034", 51, "CREAT", "Creatinine", "CHEMISTRY", "1.0", "mg/dL", "0.7", "1.4", "88.4", 88, "umol/L", 62, 124, "NORMAL", "", 4.0, "WEEK 2", 14, "TREATMENT", "2014-07-15T09:25", 15], ["CDISCPILOT01", "LB", "01-701-1034", 87, "CREAT", "Creatinine", "CHEMISTRY", "0.9", "mg/dL", "0.7", "1.4", "79.56", 79, "umol/L", 62, 124, "NORMAL", "", 5.0, "WEEK 4", 28, "TREATMENT", "2014-07-29T08:40", 29], ["CDISCPILOT01", "LB", "01-701-1034", 118, "CREAT", "Creatinine", "CHEMISTRY", "0.9", "mg/dL", "0.7", "1.4", "79.56", 79, "umol/L", 62, 124, "NORMAL", "", 7.0, "WEEK 6", 42, "TREATMENT", "2014-08-11T13:15", 42], ["CDISCPILOT01", "LB", "01-701-1034", 148, "CREAT", "Creatinine", "CHEMISTRY", "0.9", "mg/dL", "0.7", "1.4", "79.56", 79, "umol/L", 62, 124, "NORMAL", "", 8.0, "WEEK 8", 56, "TREATMENT", "2014-08-26T09:57", 57], ["CDISCPILOT01", "LB", "01-701-1034", 179, "CREAT", "Creatinine", "CHEMISTRY", "1.1", "mg/dL", "0.7", "1.4", "97.24", 97, "umol/L", 62, 124, "NORMAL", "", 9.0, "WEEK 12", 84, "TREATMENT", "2014-09-25T15:40", 87], ["CDISCPILOT01", "LB", "01-701-1034", 213, "CREAT", "Creatinine", "CHEMISTRY", "1.1", "mg/dL", "0.7", "1.4", "97.24", 97, "umol/L", 62, 124, "NORMAL", "", 10.0, "WEEK 16", 112, "TREATMENT", "2014-10-21T09:52", 113], ["CDISCPILOT01", "LB", "01-701-1034", 244, "CREAT", "Creatinine", "CHEMISTRY", "0.9", "mg/dL", "0.7", "1.4", "79.56", 79, "umol/L", 62, 124, "NORMAL", "", 11.0, "WEEK 20", 140, "TREATMENT", "2014-11-18T12:23", 141], ["CDISCPILOT01", "LB", "01-701-1034", 276, "CREAT", "Creatinine", "CHEMISTRY", "0.9", "mg/dL", "0.7", "1.4", "79.56", 79, "umol/L", 62, 124, "NORMAL", "", 12.0, "WEEK 24", 168, "TREATMENT", "2014-12-17T14:27", 170], ["CDISCPILOT01", "LB", "01-701-1034", 312, "CREAT", "Creatinine", "CHEMISTRY", "0.8", "mg/dL", "0.7", "1.4", "70.72", 70, "umol/L", 62, 124, "NORMAL", "", 13.0, "WEEK 26", 182, "TREATMENT", "2014-12-30T09:50", 183], ["CDISCPILOT01", "LB", "01-701-1034", 16, "GGT", "Gamma Glutamyl Transferase", "CHEMISTRY", "20", "U/L", "5", "50", "20", 20, "U/L", 5, 50, "NORMAL", "Y", 1.0, "SCREENING 1", -7, "SCREENING", "2014-06-24T15:30", -7], ["CDISCPILOT01", "LB", "01-701-1034", 53, "GGT", "Gamma Glutamyl Transferase", "CHEMISTRY", "19", "U/L", "5", "50", "19", 19, "U/L", 5, 50, "NORMAL", "", 4.0, "WEEK 2", 14, "TREATMENT", "2014-07-15T09:25", 15], ["CDISCPILOT01", "LB", "01-701-1034", 89, "GGT", "Gamma Glutamyl Transferase", "CHEMISTRY", "21", "U/L", "5", "50", "21", 21, "U/L", 5, 50, "NORMAL", "", 5.0, "WEEK 4", 28, "TREATMENT", "2014-07-29T08:40", 29], ["CDISCPILOT01", "LB", "01-701-1034", 120, "GGT", "Gamma Glutamyl Transferase", "CHEMISTRY", "15", "U/L", "5", "50", "15", 15, "U/L", 5, 50, "NORMAL", "", 7.0, "WEEK 6", 42, "TREATMENT", "2014-08-11T13:15", 42], ["CDISCPILOT01", "LB", "01-701-1034", 150, "GGT", "Gamma Glutamyl Transferase", "CHEMISTRY", "17", "U/L", "5", "50", "17", 17, "U/L", 5, 50, "NORMAL", "", 8.0, "WEEK 8", 56, "TREATMENT", "2014-08-26T09:57", 57], ["CDISCPILOT01", "LB", "01-701-1034", 181, "GGT", "Gamma Glutamyl Transferase", "CHEMISTRY", "14", "U/L", "5", "50", "14", 14, "U/L", 5, 50, "NORMAL", "", 9.0, "WEEK 12", 84, "TREATMENT", "2014-09-25T15:40", 87], ["CDISCPILOT01", "LB", "01-701-1034", 215, "GGT", "Gamma Glutamyl Transferase", "CHEMISTRY", "18", "U/L", "5", "50", "18", 18, "U/L", 5, 50, "NORMAL", "", 10.0, "WEEK 16", 112, "TREATMENT", "2014-10-21T09:52", 113], ["CDISCPILOT01", "LB", "01-701-1034", 246, "GGT", "Gamma Glutamyl Transferase", "CHEMISTRY", "21", "U/L", "5", "50", "21", 21, "U/L", 5, 50, "NORMAL", "", 11.0, "WEEK 20", 140, "TREATMENT", "2014-11-18T12:23", 141], ["CDISCPILOT01", "LB", "01-701-1034", 278, "GGT", "Gamma Glutamyl Transferase", "CHEMISTRY", "17", "U/L", "5", "50", "17", 17, "U/L", 5, 50, "NORMAL", "", 12.0, "WEEK 24", 168, "TREATMENT", "2014-12-17T14:27", 170], ["CDISCPILOT01", "LB", "01-701-1034", 314, "GGT", "Gamma Glutamyl Transferase", "CHEMISTRY", "15", "U/L", "5", "50", "15", 15, "U/L", 5, 50, "NORMAL", "", 13.0, "WEEK 26", 182, "TREATMENT", "2014-12-30T09:50", 183], ["CDISCPILOT01", "LB", "01-701-1034", 17, "GLUC", "Glucose", "CHEMISTRY", "81", "mg/dL", "50", "250", "4.49631", 4, "mmol/L", 2, 13, "NORMAL", "Y", 1.0, "SCREENING 1", -7, "SCREENING", "2014-06-24T15:30", -7], ["CDISCPILOT01", "LB", "01-701-1034", 54, "GLUC", "Glucose", "CHEMISTRY", "85", "mg/dL", "50", "250", "4.71835", 4, "mmol/L", 2, 13, "NORMAL", "", 4.0, "WEEK 2", 14, "TREATMENT", "2014-07-15T09:25", 15], ["CDISCPILOT01", "LB", "01-701-1034", 90, "GLUC", "Glucose", "CHEMISTRY", "83", "mg/dL", "50", "250", "4.60733", 4, "mmol/L", 2, 13, "NORMAL", "", 5.0, "WEEK 4", 28, "TREATMENT", "2014-07-29T08:40", 29], ["CDISCPILOT01", "LB", "01-701-1034", 121, "GLUC", "Glucose", "CHEMISTRY", "98", "mg/dL", "50", "250", "5.43998", 5, "mmol/L", 2, 13, "NORMAL", "", 7.0, "WEEK 6", 42, "TREATMENT", "2014-08-11T13:15", 42], ["CDISCPILOT01", "LB", "01-701-1034", 151, "GLUC", "Glucose", "CHEMISTRY", "86", "mg/dL", "50", "250", "4.77386", 4, "mmol/L", 2, 13, "NORMAL", "", 8.0, "WEEK 8", 56, "TREATMENT", "2014-08-26T09:57", 57], ["CDISCPILOT01", "LB", "01-701-1034", 182, "GLUC", "Glucose", "CHEMISTRY", "91", "mg/dL", "50", "250", "5.05141", 5, "mmol/L", 2, 13, "NORMAL", "", 9.0, "WEEK 12", 84, "TREATMENT", "2014-09-25T15:40", 87], ["CDISCPILOT01", "LB", "01-701-1034", 216, "GLUC", "Glucose", "CHEMISTRY", "92", "mg/dL", "50", "250", "5.10692", 5, "mmol/L", 2, 13, "NORMAL", "", 10.0, "WEEK 16", 112, "TREATMENT", "2014-10-21T09:52", 113], ["CDISCPILOT01", "LB", "01-701-1034", 247, "GLUC", "Glucose", "CHEMISTRY", "87", "mg/dL", "50", "250", "4.82937", 4, "mmol/L", 2, 13, "NORMAL", "", 11.0, "WEEK 20", 140, "TREATMENT", "2014-11-18T12:23", 141], ["CDISCPILOT01", "LB", "01-701-1034", 279, "GLUC", "Glucose", "CHEMISTRY", "92", "mg/dL", "50", "250", "5.10692", 5, "mmol/L", 2, 13, "NORMAL", "", 12.0, "WEEK 24", 168, "TREATMENT", "2014-12-17T14:27", 170], ["CDISCPILOT01", "LB", "01-701-1034", 315, "GLUC", "Glucose", "CHEMISTRY", "86", "mg/dL", "50", "250", "4.77386", 4, "mmol/L", 2, 13, "NORMAL", "", 13.0, "WEEK 26", 182, "TREATMENT", "2014-12-30T09:50", 183], ["CDISCPILOT01", "LB", "01-701-1034", 20, "K", "Potassium", "CHEMISTRY", "4.4", "mEq/L", "3.4", "5.4", "4.4", 4, "mmol/L", 3, 5, "NORMAL", "Y", 1.0, "SCREENING 1", -7, "SCREENING", "2014-06-24T15:30", -7], ["CDISCPILOT01", "LB", "01-701-1034", 57, "K", "Potassium", "CHEMISTRY", "4.6", "mEq/L", "3.4", "5.4", "4.6", 4, "mmol/L", 3, 5, "NORMAL", "", 4.0, "WEEK 2", 14, "TREATMENT", "2014-07-15T09:25", 15], ["CDISCPILOT01", "LB", "01-701-1034", 93, "K", "Potassium", "CHEMISTRY", "4.4", "mEq/L", "3.4", "5.4", "4.4", 4, "mmol/L", 3, 5, "NORMAL", "", 5.0, "WEEK 4", 28, "TREATMENT", "2014-07-29T08:40", 29], ["CDISCPILOT01", "LB", "01-701-1034", 124, "K", "Potassium", "CHEMISTRY", "4.1", "mEq/L", "3.4", "5.4", "4.1", 4, "mmol/L", 3, 5, "NORMAL", "", 7.0, "WEEK 6", 42, "TREATMENT", "2014-08-11T13:15", 42], ["CDISCPILOT01", "LB", "01-701-1034", 154, "K", "Potassium", "CHEMISTRY", "4.8", "mEq/L", "3.4", "5.4", "4.8", 4, "mmol/L", 3, 5, "NORMAL", "", 8.0, "WEEK 8", 56, "TREATMENT", "2014-08-26T09:57", 57], ["CDISCPILOT01", "LB", "01-701-1034", 185, "K", "Potassium", "CHEMISTRY", "4.2", "mEq/L", "3.4", "5.4", "4.2", 4, "mmol/L", 3, 5, "NORMAL", "", 9.0, "WEEK 12", 84, "TREATMENT", "2014-09-25T15:40", 87], ["CDISCPILOT01", "LB", "01-701-1034", 219, "K", "Potassium", "CHEMISTRY", "4.7", "mEq/L", "3.4", "5.4", "4.7", 4, "mmol/L", 3, 5, "NORMAL", "", 10.0, "WEEK 16", 112, "TREATMENT", "2014-10-21T09:52", 113], ["CDISCPILOT01", "LB", "01-701-1034", 250, "K", "Potassium", "CHEMISTRY", "4.5", "mEq/L", "3.4", "5.4", "4.5", 4, "mmol/L", 3, 5, "NORMAL", "", 11.0, "WEEK 20", 140, "TREATMENT", "2014-11-18T12:23", 141], ["CDISCPILOT01", "LB", "01-701-1034", 282, "K", "Potassium", "CHEMISTRY", "4.5", "mEq/L", "3.4", "5.4", "4.5", 4, "mmol/L", 3, 5, "NORMAL", "", 12.0, "WEEK 24", 168, "TREATMENT", "2014-12-17T14:27", 170], ["CDISCPILOT01", "LB", "01-701-1034", 318, "K", "Potassium", "CHEMISTRY", "4.2", "mEq/L", "3.4", "5.4", "4.2", 4, "mmol/L", 3, 5, "NORMAL", "", 13.0, "WEEK 26", 182, "TREATMENT", "2014-12-30T09:50", 183], ["CDISCPILOT01", "LB", "01-701-1034", 27, "SODIUM", "Sodium", "CHEMISTRY", "138", "mEq/L", "135", "145", "138", 138, "mmol/L", 135, 145, "NORMAL", "Y", 1.0, "SCREENING 1", -7, "SCREENING", "2014-06-24T15:30", -7], ["CDISCPILOT01", "LB", "01-701-1034", 65, "SODIUM", "Sodium", "CHEMISTRY", "140", "mEq/L", "135", "145", "140", 140, "mmol/L", 135, 145, "NORMAL", "", 4.0, "WEEK 2", 14, "TREATMENT", "2014-07-15T09:25", 15], ["CDISCPILOT01", "LB", "01-701-1034", 99, "SODIUM", "Sodium", "CHEMISTRY", "138", "mEq/L", "135", "145", "138", 138, "mmol/L", 135, 145, "NORMAL", "", 5.0, "WEEK 4", 28, "TREATMENT", "2014-07-29T08:40", 29], ["CDISCPILOT01", "LB", "01-701-1034", 130, "SODIUM", "Sodium", "CHEMISTRY", "143", "mEq/L", "135", "145", "143", 143, "mmol/L", 135, 145, "NORMAL", "", 7.0, "WEEK 6", 42, "TREATMENT", "2014-08-11T13:15", 42], ["CDISCPILOT01", "LB", "01-701-1034", 160, "SODIUM", "Sodium", "CHEMISTRY", "139", "mEq/L", "135", "145", "139", 139, "mmol/L", 135, 145, "NORMAL", "", 8.0, "WEEK 8", 56, "TREATMENT", "2014-08-26T09:57", 57], ["CDISCPILOT01", "LB", "01-701-1034", 192, "SODIUM", "Sodium", "CHEMISTRY", "138", "mEq/L", "135", "145", "138", 138, "mmol/L", 135, 145, "NORMAL", "", 9.0, "WEEK 12", 84, "TREATMENT", "2014-09-25T15:40", 87], ["CDISCPILOT01", "LB", "01-701-1034", 226, "SODIUM", "Sodium", "CHEMISTRY", "139", "mEq/L", "135", "145", "139", 139, "mmol/L", 135, 145, "NORMAL", "", 10.0, "WEEK 16", 112, "TREATMENT", "2014-10-21T09:52", 113], ["CDISCPILOT01", "LB", "01-701-1034", 257, "SODIUM", "Sodium", "CHEMISTRY", "138", "mEq/L", "135", "145", "138", 138, "mmol/L", 135, 145, "NORMAL", "", 11.0, "WEEK 20", 140, "TREATMENT", "2014-11-18T12:23", 141], ["CDISCPILOT01", "LB", "01-701-1034", 290, "SODIUM", "Sodium", "CHEMISTRY", "134", "mEq/L", "135", "145", "134", 134, "mmol/L", 135, 145, "LOW", "", 12.0, "WEEK 24", 168, "TREATMENT", "2014-12-17T14:27", 170], ["CDISCPILOT01", "LB", "01-701-1034", 324, "SODIUM", "Sodium", "CHEMISTRY", "134", "mEq/L", "135", "145", "134", 134, "mmol/L", 135, 145, "LOW", "", 13.0, "WEEK 26", 182, "TREATMENT", "2014-12-30T09:50", 183], ["CDISCPILOT01", "LB", "01-701-1034", 29, "PHOS", "Phosphate", "CHEMISTRY", "4.2", "mg/dL", "2.2", "5.1", "1.35618", 1, "mmol/L", 0, 1, "NORMAL", "Y", 1.0, "SCREENING 1", -7, "SCREENING", "2014-06-24T15:30", -7], ["CDISCPILOT01", "LB", "01-701-1034", 67, "PHOS", "Phosphate", "CHEMISTRY", "4.3", "mg/dL", "2.2", "5.1", "1.38847", 1, "mmol/L", 0, 1, "NORMAL", "", 4.0, "WEEK 2", 14, "TREATMENT", "2014-07-15T09:25", 15], ["CDISCPILOT01", "LB", "01-701-1034", 100, "PHOS", "Phosphate", "CHEMISTRY", "3.7", "mg/dL", "2.2", "5.1", "1.19473", 1, "mmol/L", 0, 1, "NORMAL", "", 5.0, "WEEK 4", 28, "TREATMENT", "2014-07-29T08:40", 29], ["CDISCPILOT01", "LB", "01-701-1034", 131, "PHOS", "Phosphate", "CHEMISTRY", "3.6", "mg/dL", "2.2", "5.1", "1.16244", 1, "mmol/L", 0, 1, "NORMAL", "", 7.0, "WEEK 6", 42, "TREATMENT", "2014-08-11T13:15", 42], ["CDISCPILOT01", "LB", "01-701-1034", 161, "PHOS", "Phosphate", "CHEMISTRY", "4.0", "mg/dL", "2.2", "5.1", "1.2916", 1, "mmol/L", 0, 1, "NORMAL", "", 8.0, "WEEK 8", 56, "TREATMENT", "2014-08-26T09:57", 57], ["CDISCPILOT01", "LB", "01-701-1034", 194, "PHOS", "Phosphate", "CHEMISTRY", "4.7", "mg/dL", "2.2", "5.1", "1.51763", 1, "mmol/L", 0, 1, "NORMAL", "", 9.0, "WEEK 12", 84, "TREATMENT", "2014-09-25T15:40", 87], ["CDISCPILOT01", "LB", "01-701-1034", 227, "PHOS", "Phosphate", "CHEMISTRY", "3.8", "mg/dL", "2.2", "5.1", "1.22702", 1, "mmol/L", 0, 1, "NORMAL", "", 10.0, "WEEK 16", 112, "TREATMENT", "2014-10-21T09:52", 113], ["CDISCPILOT01", "LB", "01-701-1034", 258, "PHOS", "Phosphate", "CHEMISTRY", "4.1", "mg/dL", "2.2", "5.1", "1.32389", 1, "mmol/L", 0, 1, "NORMAL", "", 11.0, "WEEK 20", 140, "TREATMENT", "2014-11-18T12:23", 141], ["CDISCPILOT01", "LB", "01-701-1034", 292, "PHOS", "Phosphate", "CHEMISTRY", "4.5", "mg/dL", "2.2", "5.1", "1.45305", 1, "mmol/L", 0, 1, "NORMAL", "", 12.0, "WEEK 24", 168, "TREATMENT", "2014-12-17T14:27", 170], ["CDISCPILOT01", "LB", "01-701-1034", 325, "PHOS", "Phosphate", "CHEMISTRY", "3.8", "mg/dL", "2.2", "5.1", "1.22702", 1, "mmol/L", 0, 1, "NORMAL", "", 13.0, "WEEK 26", 182, "TREATMENT", "2014-12-30T09:50", 183], ["CDISCPILOT01", "LB", "01-701-1034", 31, "PROT", "Protein", "CHEMISTRY", "7.5", "g/dL", "6", "8", "75", 75, "g/L", 60, 80, "NORMAL", "Y", 1.0, "SCREENING 1", -7, "SCREENING", "2014-06-24T15:30", -7], ["CDISCPILOT01", "LB", "01-701-1034", 69, "PROT", "Protein", "CHEMISTRY", "7.4", "g/dL", "6", "8", "74", 74, "g/L", 60, 80, "NORMAL", "", 4.0, "WEEK 2", 14, "TREATMENT", "2014-07-15T09:25", 15], ["CDISCPILOT01", "LB", "01-701-1034", 102, "PROT", "Protein", "CHEMISTRY", "7.1", "g/dL", "6", "8", "71", 71, "g/L", 60, 80, "NORMAL", "", 5.0, "WEEK 4", 28, "TREATMENT", "2014-07-29T08:40", 29], ["CDISCPILOT01", "LB", "01-701-1034", 133, "PROT", "Protein", "CHEMISTRY", "6.9", "g/dL", "6", "8", "69", 69, "g/L", 60, 80, "NORMAL", "", 7.0, "WEEK 6", 42, "TREATMENT", "2014-08-11T13:15", 42], ["CDISCPILOT01", "LB", "01-701-1034", 163, "PROT", "Protein", "CHEMISTRY", "7.4", "g/dL", "6", "8", "74", 74, "g/L", 60, 80, "NORMAL", "", 8.0, "WEEK 8", 56, "TREATMENT", "2014-08-26T09:57", 57], ["CDISCPILOT01", "LB", "01-701-1034", 196, "PROT", "Protein", "CHEMISTRY", "7.0", "g/dL", "6", "8", "70", 70, "g/L", 60, 80, "NORMAL", "", 9.0, "WEEK 12", 84, "TREATMENT", "2014-09-25T15:40", 87], ["CDISCPILOT01", "LB", "01-701-1034", 229, "PROT", "Protein", "CHEMISTRY", "6.9", "g/dL", "6", "8", "69", 69, "g/L", 60, 80, "NORMAL", "", 10.0, "WEEK 16", 112, "TREATMENT", "2014-10-21T09:52", 113], ["CDISCPILOT01", "LB", "01-701-1034", 260, "PROT", "Protein", "CHEMISTRY", "7.0", "g/dL", "6", "8", "70", 70, "g/L", 60, 80, "NORMAL", "", 11.0, "WEEK 20", 140, "TREATMENT", "2014-11-18T12:23", 141], ["CDISCPILOT01", "LB", "01-701-1034", 294, "PROT", "Protein", "CHEMISTRY", "7.2", "g/dL", "6", "8", "72", 72, "g/L", 60, 80, "NORMAL", "", 12.0, "WEEK 24", 168, "TREATMENT", "2014-12-17T14:27", 170], ["CDISCPILOT01", "LB", "01-701-1034", 327, "PROT", "Protein", "CHEMISTRY", "6.9", "g/dL", "6", "8", "69", 69, "g/L", 60, 80, "NORMAL", "", 13.0, "WEEK 26", 182, "TREATMENT", "2014-12-30T09:50", 183], ["CDISCPILOT01", "LB", "01-701-1034", 35, "URATE", "Urate", "CHEMISTRY", "5.2", "mg/dL", "2.5", "7.5", "309.296", 309, "umol/L", 149, 446, "NORMAL", "Y", 1.0, "SCREENING 1", -7, "SCREENING", "2014-06-24T15:30", -7], ["CDISCPILOT01", "LB", "01-701-1034", 72, "URATE", "Urate", "CHEMISTRY", "5.8", "mg/dL", "2.5", "7.5", "344.984", 344, "umol/L", 149, 446, "NORMAL", "", 4.0, "WEEK 2", 14, "TREATMENT", "2014-07-15T09:25", 15], ["CDISCPILOT01", "LB", "01-701-1034", 104, "URATE", "Urate", "CHEMISTRY", "5.9", "mg/dL", "2.5", "7.5", "350.932", 350, "umol/L", 149, 446, "NORMAL", "", 5.0, "WEEK 4", 28, "TREATMENT", "2014-07-29T08:40", 29], ["CDISCPILOT01", "LB", "01-701-1034", 135, "URATE", "Urate", "CHEMISTRY", "5.4", "mg/dL", "2.5", "7.5", "321.192", 321, "umol/L", 149, 446, "NORMAL", "", 7.0, "WEEK 6", 42, "TREATMENT", "2014-08-11T13:15", 42], ["CDISCPILOT01", "LB", "01-701-1034", 165, "URATE", "Urate", "CHEMISTRY", "5.4", "mg/dL", "2.5", "7.5", "321.192", 321, "umol/L", 149, 446, "NORMAL", "", 8.0, "WEEK 8", 56, "TREATMENT", "2014-08-26T09:57", 57], ["CDISCPILOT01", "LB", "01-701-1034", 199, "URATE", "Urate", "CHEMISTRY", "5.3", "mg/dL", "2.5", "7.5", "315.244", 315, "umol/L", 149, 446, "NORMAL", "", 9.0, "WEEK 12", 84, "TREATMENT", "2014-09-25T15:40", 87], ["CDISCPILOT01", "LB", "01-701-1034", 231, "URATE", "Urate", "CHEMISTRY", "5.4", "mg/dL", "2.5", "7.5", "321.192", 321, "umol/L", 149, 446, "NORMAL", "", 10.0, "WEEK 16", 112, "TREATMENT", "2014-10-21T09:52", 113], ["CDISCPILOT01", "LB", "01-701-1034", 262, "URATE", "Urate", "CHEMISTRY", "5.4", "mg/dL", "2.5", "7.5", "321.192", 321, "umol/L", 149, 446, "NORMAL", "", 11.0, "WEEK 20", 140, "TREATMENT", "2014-11-18T12:23", 141], ["CDISCPILOT01", "LB", "01-701-1034", 297, "URATE", "Urate", "CHEMISTRY", "4.9", "mg/dL", "2.5", "7.5", "291.452", 291, "umol/L", 149, 446, "NORMAL", "", 12.0, "WEEK 24", 168, "TREATMENT", "2014-12-17T14:27", 170], ["CDISCPILOT01", "LB", "01-701-1034", 329, "URATE", "Urate", "CHEMISTRY", "5.1", "mg/dL", "2.5", "7.5", "303.348", 303, "umol/L", 149, 446, "NORMAL", "", 13.0, "WEEK 26", 182, "TREATMENT", "2014-12-30T09:50", 183], ["CDISCPILOT01", "LB", "01-701-1047", 1, "ALB", "Albumin", "CHEMISTRY", "4.2", "g/dL", "3.5", "4.6", "42", 42, "g/L", 35, 46, "NORMAL", "Y", 1.0, "SCREENING 1", -7, "SCREENING", "2013-01-22T14:36", -21], ["CDISCPILOT01", "LB", "01-701-1047", 38, "ALB", "Albumin", "CHEMISTRY", "3.8", "g/dL", "3.5", "4.6", "38", 38, "g/L", 35, 46, "NORMAL", "", 4.0, "WEEK 2", 14, "TREATMENT", "2013-02-25T12:10", 14], ["CDISCPILOT01", "LB", "01-701-1047", 73, "ALB", "Albumin", "CHEMISTRY", "3.8", "g/dL", "3.5", "4.6", "38", 38, "g/L", 35, 46, "NORMAL", "", 5.0, "WEEK 4", 28, "TREATMENT", "2013-03-10T13:53", 27], ["CDISCPILOT01", "LB", "01-701-1047", 120, "ALB", "Albumin", "CHEMISTRY", "3.8", "g/dL", "3.5", "4.6", "38", 38, "g/L", 35, 46, "NORMAL", "", 6.1, "UNSCHEDULED 6.1", null, "TREATMENT", "2013-04-07T11:20", 55], ["CDISCPILOT01", "LB", "01-701-1047", 2, "ALP", "Alkaline Phosphatase", "CHEMISTRY", "78", "U/L", "35", "115", "78", 78, "U/L", 35, 115, "NORMAL", "Y", 1.0, "SCREENING 1", -7, "SCREENING", "2013-01-22T14:36", -21], ["CDISCPILOT01", "LB", "01-701-1047", 39, "ALP", "Alkaline Phosphatase", "CHEMISTRY", "67", "U/L", "35", "115", "67", 67, "U/L", 35, 115, "NORMAL", "", 4.0, "WEEK 2", 14, "TREATMENT", "2013-02-25T12:10", 14], ["CDISCPILOT01", "LB", "01-701-1047", 74, "ALP", "Alkaline Phosphatase", "CHEMISTRY", "71", "U/L", "35", "115", "71", 71, "U/L", 35, 115, "NORMAL", "", 5.0, "WEEK 4", 28, "TREATMENT", "2013-03-10T13:53", 27], ["CDISCPILOT01", "LB", "01-701-1047", 121, "ALP", "Alkaline Phosphatase", "CHEMISTRY", "75", "U/L", "35", "115", "75", 75, "U/L", 35, 115, "NORMAL", "", 6.1, "UNSCHEDULED 6.1", null, "TREATMENT", "2013-04-07T11:20", 55], ["CDISCPILOT01", "LB", "01-701-1047", 3, "ALT", "Alanine Aminotransferase", "CHEMISTRY", "22", "U/L", "6", "32", "22", 22, "U/L", 6, 32, "NORMAL", "Y", 1.0, "SCREENING 1", -7, "SCREENING", "2013-01-22T14:36", -21], ["CDISCPILOT01", "LB", "01-701-1047", 40, "ALT", "Alanine Aminotransferase", "CHEMISTRY", "16", "U/L", "6", "32", "16", 16, "U/L", 6, 32, "NORMAL", "", 4.0, "WEEK 2", 14, "TREATMENT", "2013-02-25T12:10", 14], ["CDISCPILOT01", "LB", "01-701-1047", 75, "ALT", "Alanine Aminotransferase", "CHEMISTRY", "20", "U/L", "6", "32", "20", 20, "U/L", 6, 32, "NORMAL", "", 5.0, "WEEK 4", 28, "TREATMENT", "2013-03-10T13:53", 27], ["CDISCPILOT01", "LB", "01-701-1047", 122, "ALT", "Alanine Aminotransferase", "CHEMISTRY", "17", "U/L", "6", "32", "17", 17, "U/L", 6, 32, "NORMAL", "", 6.1, "UNSCHEDULED 6.1", null, "TREATMENT", "2013-04-07T11:20", 55], ["CDISCPILOT01", "LB", "01-701-1047", 4, "AST", "Aspartate Aminotransferase", "CHEMISTRY", "25", "U/L", "9", "34", "25", 25, "U/L", 9, 34, "NORMAL", "Y", 1.0, "SCREENING 1", -7, "SCREENING", "2013-01-22T14:36", -21], ["CDISCPILOT01", "LB", "01-701-1047", 41, "AST", "Aspartate Aminotransferase", "CHEMISTRY", "21", "U/L", "9", "34", "21", 21, "U/L", 9, 34, "NORMAL", "", 4.0, "WEEK 2", 14, "TREATMENT", "2013-02-25T12:10", 14], ["CDISCPILOT01", "LB", "01-701-1047", 76, "AST", "Aspartate Aminotransferase", "CHEMISTRY", "24", "U/L", "9", "34", "24", 24, "U/L", 9, 34, "NORMAL", "", 5.0, "WEEK 4", 28, "TREATMENT", "2013-03-10T13:53", 27], ["CDISCPILOT01", "LB", "01-701-1047", 123, "AST", "Aspartate Aminotransferase", "CHEMISTRY", "21", "U/L", "9", "34", "21", 21, "U/L", 9, 34, "NORMAL", "", 6.1, "UNSCHEDULED 6.1", null, "TREATMENT", "2013-04-07T11:20", 55], ["CDISCPILOT01", "LB", "01-701-1047", 6, "BILI", "Bilirubin", "CHEMISTRY", "0.4", "mg/dL", "0.2", "1.2", "6.84", 6, "umol/L", 3, 21, "NORMAL", "Y", 1.0, "SCREENING 1", -7, "SCREENING", "2013-01-22T14:36", -21], ["CDISCPILOT01", "LB", "01-701-1047", 43, "BILI", "Bilirubin", "CHEMISTRY", "0.5", "mg/dL", "0.2", "1.2", "8.55", 8, "umol/L", 3, 21, "NORMAL", "", 4.0, "WEEK 2", 14, "TREATMENT", "2013-02-25T12:10", 14], ["CDISCPILOT01", "LB", "01-701-1047", 78, "BILI", "Bilirubin", "CHEMISTRY", "0.4", "mg/dL", "0.2", "1.2", "6.84", 6, "umol/L", 3, 21, "NORMAL", "", 5.0, "WEEK 4", 28, "TREATMENT", "2013-03-10T13:53", 27], ["CDISCPILOT01", "LB", "01-701-1047", 124, "BILI", "Bilirubin", "CHEMISTRY", "0.4", "mg/dL", "0.2", "1.2", "6.84", 6, "umol/L", 3, 21, "NORMAL", "", 6.1, "UNSCHEDULED 6.1", null, "TREATMENT", "2013-04-07T11:20", 55], ["CDISCPILOT01", "LB", "01-701-1047", 7, "UREAN", "Urea Nitrogen", "CHEMISTRY", "18", "mg/dL", "4", "24", "6.426", 6, "mmol/L", 1, 8, "NORMAL", "Y", 1.0, "SCREENING 1", -7, "SCREENING", "2013-01-22T14:36", -21], ["CDISCPILOT01", "LB", "01-701-1047", 44, "UREAN", "Urea Nitrogen", "CHEMISTRY", "18", "mg/dL", "4", "24", "6.426", 6, "mmol/L", 1, 8, "NORMAL", "", 4.0, "WEEK 2", 14, "TREATMENT", "2013-02-25T12:10", 14], ["CDISCPILOT01", "LB", "01-701-1047", 79, "UREAN", "Urea Nitrogen", "CHEMISTRY", "20", "mg/dL", "4", "24", "7.14", 7, "mmol/L", 1, 8, "NORMAL", "", 5.0, "WEEK 4", 28, "TREATMENT", "2013-03-10T13:53", 27], ["CDISCPILOT01", "LB", "01-701-1047", 125, "UREAN", "Urea Nitrogen", "CHEMISTRY", "15", "mg/dL", "4", "24", "5.355", 5, "mmol/L", 1, 8, "NORMAL", "", 6.1, "UNSCHEDULED 6.1", null, "TREATMENT", "2013-04-07T11:20", 55], ["CDISCPILOT01", "LB", "01-701-1047", 8, "CA", "Calcium", "CHEMISTRY", "9.2", "mg/dL", "8.4", "10.3", "2.2954", 2, "mmol/L", 2, 2, "NORMAL", "Y", 1.0, "SCREENING 1", -7, "SCREENING", "2013-01-22T14:36", -21], ["CDISCPILOT01", "LB", "01-701-1047", 45, "CA", "Calcium", "CHEMISTRY", "9.0", "mg/dL", "8.4", "10.3", "2.2455", 2, "mmol/L", 2, 2, "NORMAL", "", 4.0, "WEEK 2", 14, "TREATMENT", "2013-02-25T12:10", 14], ["CDISCPILOT01", "LB", "01-701-1047", 80, "CA", "Calcium", "CHEMISTRY", "8.5", "mg/dL", "8.4", "10.3", "2.12075", 2, "mmol/L", 2, 2, "NORMAL", "", 5.0, "WEEK 4", 28, "TREATMENT", "2013-03-10T13:53", 27], ["CDISCPILOT01", "LB", "01-701-1047", 126, "CA", "Calcium", "CHEMISTRY", "8.6", "mg/dL", "8.4", "10.3", "2.1457", 2, "mmol/L", 2, 2, "NORMAL", "", 6.1, "UNSCHEDULED 6.1", null, "TREATMENT", "2013-04-07T11:20", 55], ["CDISCPILOT01", "LB", "01-701-1047", 9, "CHOL", "Cholesterol", "CHEMISTRY", "235", "mg/dL", "156", "300", "6.0771", 6, "mmol/L", 4, 7, "NORMAL", "Y", 1.0, "SCREENING 1", -7, "SCREENING", "2013-01-22T14:36", -21], ["CDISCPILOT01", "LB", "01-701-1047", 46, "CHOL", "Cholesterol", "CHEMISTRY", "210", "mg/dL", "156", "300", "5.4306", 5, "mmol/L", 4, 7, "NORMAL", "", 4.0, "WEEK 2", 14, "TREATMENT", "2013-02-25T12:10", 14], ["CDISCPILOT01", "LB", "01-701-1047", 81, "CHOL", "Cholesterol", "CHEMISTRY", "182", "mg/dL", "156", "300", "4.70652", 4, "mmol/L", 4, 7, "NORMAL", "", 5.0, "WEEK 4", 28, "TREATMENT", "2013-03-10T13:53", 27], ["CDISCPILOT01", "LB", "01-701-1047", 127, "CHOL", "Cholesterol", "CHEMISTRY", "189", "mg/dL", "156", "300", "4.88754", 4, "mmol/L", 4, 7, "NORMAL", "", 6.1, "UNSCHEDULED 6.1", null, "TREATMENT", "2013-04-07T11:20", 55], ["CDISCPILOT01", "LB", "01-701-1047", 10, "CK", "Creatine Kinase", "CHEMISTRY", "90", "U/L", "21", "169", "90", 90, "U/L", 21, 169, "NORMAL", "Y", 1.0, "SCREENING 1", -7, "SCREENING", "2013-01-22T14:36", -21], ["CDISCPILOT01", "LB", "01-701-1047", 47, "CK", "Creatine Kinase", "CHEMISTRY", "80", "U/L", "21", "169", "80", 80, "U/L", 21, 169, "NORMAL", "", 4.0, "WEEK 2", 14, "TREATMENT", "2013-02-25T12:10", 14], ["CDISCPILOT01", "LB", "01-701-1047", 82, "CK", "Creatine Kinase", "CHEMISTRY", "77", "U/L", "21", "169", "77", 77, "U/L", 21, 169, "NORMAL", "", 5.0, "WEEK 4", 28, "TREATMENT", "2013-03-10T13:53", 27], ["CDISCPILOT01", "LB", "01-701-1047", 128, "CK", "Creatine Kinase", "CHEMISTRY", "85", "U/L", "21", "169", "85", 85, "U/L", 21, 169, "NORMAL", "", 6.1, "UNSCHEDULED 6.1", null, "TREATMENT", "2013-04-07T11:20", 55], ["CDISCPILOT01", "LB", "01-701-1047", 11, "CL", "Chloride", "CHEMISTRY", "105", "mEq/L", "94", "112", "105", 105, "mmol/L", 94, 112, "NORMAL", "Y", 1.0, "SCREENING 1", -7, "SCREENING", "2013-01-22T14:36", -21], ["CDISCPILOT01", "LB", "01-701-1047", 48, "CL", "Chloride", "CHEMISTRY", "109", "mEq/L", "94", "112", "109", 109, "mmol/L", 94, 112, "NORMAL", "", 4.0, "WEEK 2", 14, "TREATMENT", "2013-02-25T12:10", 14], ["CDISCPILOT01", "LB", "01-701-1047", 83, "CL", "Chloride", "CHEMISTRY", "108", "mEq/L", "94", "112", "108", 108, "mmol/L", 94, 112, "NORMAL", "", 5.0, "WEEK 4", 28, "TREATMENT", "2013-03-10T13:53", 27], ["CDISCPILOT01", "LB", "01-701-1047", 13, "CREAT", "Creatinine", "CHEMISTRY", "1.0", "mg/dL", "0.7", "1.4", "88.4", 88, "umol/L", 62, 124, "NORMAL", "Y", 1.0, "SCREENING 1", -7, "SCREENING", "2013-01-22T14:36", -21], ["CDISCPILOT01", "LB", "01-701-1047", 50, "CREAT", "Creatinine", "CHEMISTRY", "1.0", "mg/dL", "0.7", "1.4", "88.4", 88, "umol/L", 62, 124, "NORMAL", "", 4.0, "WEEK 2", 14, "TREATMENT", "2013-02-25T12:10", 14], ["CDISCPILOT01", "LB", "01-701-1047", 84, "CREAT", "Creatinine", "CHEMISTRY", "0.9", "mg/dL", "0.7", "1.4", "79.56", 79, "umol/L", 62, 124, "NORMAL", "", 5.0, "WEEK 4", 28, "TREATMENT", "2013-03-10T13:53", 27], ["CDISCPILOT01", "LB", "01-701-1047", 129, "CREAT", "Creatinine", "CHEMISTRY", "1.0", "mg/dL", "0.7", "1.4", "88.4", 88, "umol/L", 62, 124, "NORMAL", "", 6.1, "UNSCHEDULED 6.1", null, "TREATMENT", "2013-04-07T11:20", 55], ["CDISCPILOT01", "LB", "01-701-1047", 15, "GGT", "Gamma Glutamyl Transferase", "CHEMISTRY", "14", "U/L", "5", "50", "14", 14, "U/L", 5, 50, "NORMAL", "Y", 1.0, "SCREENING 1", -7, "SCREENING", "2013-01-22T14:36", -21], ["CDISCPILOT01", "LB", "01-701-1047", 52, "GGT", "Gamma Glutamyl Transferase", "CHEMISTRY", "12", "U/L", "5", "50", "12", 12, "U/L", 5, 50, "NORMAL", "", 4.0, "WEEK 2", 14, "TREATMENT", "2013-02-25T12:10", 14], ["CDISCPILOT01", "LB", "01-701-1047", 86, "GGT", "Gamma Glutamyl Transferase", "CHEMISTRY", "12", "U/L", "5", "50", "12", 12, "U/L", 5, 50, "NORMAL", "", 5.0, "WEEK 4", 28, "TREATMENT", "2013-03-10T13:53", 27], ["CDISCPILOT01", "LB", "01-701-1047", 130, "GGT", "Gamma Glutamyl Transferase", "CHEMISTRY", "11", "U/L", "5", "50", "11", 11, "U/L", 5, 50, "NORMAL", "", 6.1, "UNSCHEDULED 6.1", null, "TREATMENT", "2013-04-07T11:20", 55], ["CDISCPILOT01", "LB", "01-701-1047", 16, "GLUC", "Glucose", "CHEMISTRY", "100", "mg/dL", "50", "250", "5.551", 5, "mmol/L", 2, 13, "NORMAL", "Y", 1.0, "SCREENING 1", -7, "SCREENING", "2013-01-22T14:36", -21], ["CDISCPILOT01", "LB", "01-701-1047", 53, "GLUC", "Glucose", "CHEMISTRY", "100", "mg/dL", "50", "250", "5.551", 5, "mmol/L", 2, 13, "NORMAL", "", 4.0, "WEEK 2", 14, "TREATMENT", "2013-02-25T12:10", 14], ["CDISCPILOT01", "LB", "01-701-1047", 87, "GLUC", "Glucose", "CHEMISTRY", "108", "mg/dL", "50", "250", "5.99508", 5, "mmol/L", 2, 13, "NORMAL", "", 5.0, "WEEK 4", 28, "TREATMENT", "2013-03-10T13:53", 27], ["CDISCPILOT01", "LB", "01-701-1047", 131, "GLUC", "Glucose", "CHEMISTRY", "69", "mg/dL", "50", "250", "3.83019", 3, "mmol/L", 2, 13, "NORMAL", "", 6.1, "UNSCHEDULED 6.1", null, "TREATMENT", "2013-04-07T11:20", 55], ["CDISCPILOT01", "LB", "01-701-1047", 19, "K", "Potassium", "CHEMISTRY", "4.3", "mEq/L", "3.4", "5.4", "4.3", 4, "mmol/L", 3, 5, "NORMAL", "Y", 1.0, "SCREENING 1", -7, "SCREENING", "2013-01-22T14:36", -21], ["CDISCPILOT01", "LB", "01-701-1047", 56, "K", "Potassium", "CHEMISTRY", "3.9", "mEq/L", "3.4", "5.4", "3.9", 3, "mmol/L", 3, 5, "NORMAL", "", 4.0, "WEEK 2", 14, "TREATMENT", "2013-02-25T12:10", 14], ["CDISCPILOT01", "LB", "01-701-1047", 90, "K", "Potassium", "CHEMISTRY", "3.9", "mEq/L", "3.4", "5.4", "3.9", 3, "mmol/L", 3, 5, "NORMAL", "", 5.0, "WEEK 4", 28, "TREATMENT", "2013-03-10T13:53", 27], ["CDISCPILOT01", "LB", "01-701-1047", 26, "SODIUM", "Sodium", "CHEMISTRY", "144", "mEq/L", "135", "145", "144", 144, "mmol/L", 135, 145, "NORMAL", "Y", 1.0, "SCREENING 1", -7, "SCREENING", "2013-01-22T14:36", -21], ["CDISCPILOT01", "LB", "01-701-1047", 63, "SODIUM", "Sodium", "CHEMISTRY", "141", "mEq/L", "135", "145", "141", 141, "mmol/L", 135, 145, "NORMAL", "", 4.0, "WEEK 2", 14, "TREATMENT", "2013-02-25T12:10", 14], ["CDISCPILOT01", "LB", "01-701-1047", 96, "SODIUM", "Sodium", "CHEMISTRY", "142", "mEq/L", "135", "145", "142", 142, "mmol/L", 135, 145, "NORMAL", "", 5.0, "WEEK 4", 28, "TREATMENT", "2013-03-10T13:53", 27], ["CDISCPILOT01", "LB", "01-701-1047", 28, "PHOS", "Phosphate", "CHEMISTRY", "4.1", "mg/dL", "2.2", "5.1", "1.32389", 1, "mmol/L", 0, 1, "NORMAL", "Y", 1.0, "SCREENING 1", -7, "SCREENING", "2013-01-22T14:36", -21], ["CDISCPILOT01", "LB", "01-701-1047", 65, "PHOS", "Phosphate", "CHEMISTRY", "3.0", "mg/dL", "2.2", "5.1", "0.9687", 0, "mmol/L", 0, 1, "NORMAL", "", 4.0, "WEEK 2", 14, "TREATMENT", "2013-02-25T12:10", 14], ["CDISCPILOT01", "LB", "01-701-1047", 97, "PHOS", "Phosphate", "CHEMISTRY", "3.1", "mg/dL", "2.2", "5.1", "1.00099", 1, "mmol/L", 0, 1, "NORMAL", "", 5.0, "WEEK 4", 28, "TREATMENT", "2013-03-10T13:53", 27], ["CDISCPILOT01", "LB", "01-701-1047", 132, "PHOS", "Phosphate", "CHEMISTRY", "2.5", "mg/dL", "2.2", "5.1", "0.80725", 0, "mmol/L", 0, 1, "NORMAL", "", 6.1, "UNSCHEDULED 6.1", null, "TREATMENT", "2013-04-07T11:20", 55], ["CDISCPILOT01", "LB", "01-701-1047", 30, "PROT", "Protein", "CHEMISTRY", "6.9", "g/dL", "6", "8", "69", 69, "g/L", 60, 80, "NORMAL", "Y", 1.0, "SCREENING 1", -7, "SCREENING", "2013-01-22T14:36", -21], ["CDISCPILOT01", "LB", "01-701-1047", 67, "PROT", "Protein", "CHEMISTRY", "6.3", "g/dL", "6", "8", "63", 63, "g/L", 60, 80, "NORMAL", "", 4.0, "WEEK 2", 14, "TREATMENT", "2013-02-25T12:10", 14], ["CDISCPILOT01", "LB", "01-701-1047", 99, "PROT", "Protein", "CHEMISTRY", "6.6", "g/dL", "6", "8", "66", 66, "g/L", 60, 80, "NORMAL", "", 5.0, "WEEK 4", 28, "TREATMENT", "2013-03-10T13:53", 27], ["CDISCPILOT01", "LB", "01-701-1047", 133, "PROT", "Protein", "CHEMISTRY", "6.5", "g/dL", "6", "8", "65", 65, "g/L", 60, 80, "NORMAL", "", 6.1, "UNSCHEDULED 6.1", null, "TREATMENT", "2013-04-07T11:20", 55], ["CDISCPILOT01", "LB", "01-701-1047", 34, "URATE", "Urate", "CHEMISTRY", "3.9", "mg/dL", "2.5", "7.5", "231.972", 231, "umol/L", 149, 446, "NORMAL", "Y", 1.0, "SCREENING 1", -7, "SCREENING", "2013-01-22T14:36", -21], ["CDISCPILOT01", "LB", "01-701-1047", 70, "URATE", "Urate", "CHEMISTRY", "4.8", "mg/dL", "2.5", "7.5", "285.504", 285, "umol/L", 149, 446, "NORMAL", "", 4.0, "WEEK 2", 14, "TREATMENT", "2013-02-25T12:10", 14], ["CDISCPILOT01", "LB", "01-701-1047", 101, "URATE", "Urate", "CHEMISTRY", "4.3", "mg/dL", "2.5", "7.5", "255.764", 255, "umol/L", 149, 446, "NORMAL", "", 5.0, "WEEK 4", 28, "TREATMENT", "2013-03-10T13:53", 27], ["CDISCPILOT01", "LB", "01-701-1047", 134, "URATE", "Urate", "CHEMISTRY", "4.7", "mg/dL", "2.5", "7.5", "279.556", 279, "umol/L", 149, 446, "NORMAL", "", 6.1, "UNSCHEDULED 6.1", null, "TREATMENT", "2013-04-07T11:20", 55], ["CDISCPILOT01", "LB", "01-701-1097", 1, "ALB", "Albumin", "CHEMISTRY", "4.3", "g/dL", "3.3", "4.9", "43", 43, "g/L", 33, 49, "NORMAL", "Y", 1.0, "SCREENING 1", -7, "SCREENING", "2013-12-23T12:30", -9], ["CDISCPILOT01", "LB", "01-701-1097", 38, "ALB", "Albumin", "CHEMISTRY", "4.2", "g/dL", "3.3", "4.9", "42", 42, "g/L", 33, 49, "NORMAL", "", 4.0, "WEEK 2", 14, "TREATMENT", "2014-01-15T10:03", 15], ["CDISCPILOT01", "LB", "01-701-1097", 73, "ALB", "Albumin", "CHEMISTRY", "4.2", "g/dL", "3.3", "4.9", "42", 42, "g/L", 33, 49, "NORMAL", "", 5.0, "WEEK 4", 28, "TREATMENT", "2014-01-29T14:00", 29], ["CDISCPILOT01", "LB", "01-701-1097", 103, "ALB", "Albumin", "CHEMISTRY", "4.1", "g/dL", "3.3", "4.9", "41", 41, "g/L", 33, 49, "NORMAL", "", 7.0, "WEEK 6", 42, "TREATMENT", "2014-02-11T11:16", 42], ["CDISCPILOT01", "LB", "01-701-1097", 133, "ALB", "Albumin", "CHEMISTRY", "4.3", "g/dL", "3.3", "4.9", "43", 43, "g/L", 33, 49, "NORMAL", "", 8.0, "WEEK 8", 56, "TREATMENT", "2014-02-26T11:10", 57], ["CDISCPILOT01", "LB", "01-701-1097", 163, "ALB", "Albumin", "CHEMISTRY", "4.1", "g/dL", "3.3", "4.9", "41", 41, "g/L", 33, 49, "NORMAL", "", 9.0, "WEEK 12", 84, "TREATMENT", "2014-03-26T08:55", 85], ["CDISCPILOT01", "LB", "01-701-1097", 198, "ALB", "Albumin", "CHEMISTRY", "4.2", "g/dL", "3.3", "4.9", "42", 42, "g/L", 33, 49, "NORMAL", "", 10.0, "WEEK 16", 112, "TREATMENT", "2014-04-23T11:14", 113], ["CDISCPILOT01", "LB", "01-701-1097", 228, "ALB", "Albumin", "CHEMISTRY", "3.9", "g/dL", "3.3", "4.9", "39", 39, "g/L", 33, 49, "NORMAL", "", 11.0, "WEEK 20", 140, "TREATMENT", "2014-05-21T15:06", 141], ["CDISCPILOT01", "LB", "01-701-1097", 258, "ALB", "Albumin", "CHEMISTRY", "4.3", "g/dL", "3.3", "4.9", "43", 43, "g/L", 33, 49, "NORMAL", "", 12.0, "WEEK 24", 168, "TREATMENT", "2014-06-18T10:41", 169], ["CDISCPILOT01", "LB", "01-701-1097", 293, "ALB", "Albumin", "CHEMISTRY", "4.0", "g/dL", "3.3", "4.9", "40", 40, "g/L", 33, 49, "NORMAL", "", 13.0, "WEEK 26", 182, "TREATMENT", "2014-07-09T09:39", 190], ["CDISCPILOT01", "LB", "01-701-1097", 2, "ALP", "Alkaline Phosphatase", "CHEMISTRY", "56", "U/L", "35", "115", "56", 56, "U/L", 35, 115, "NORMAL", "Y", 1.0, "SCREENING 1", -7, "SCREENING", "2013-12-23T12:30", -9], ["CDISCPILOT01", "LB", "01-701-1097", 39, "ALP", "Alkaline Phosphatase", "CHEMISTRY", "54", "U/L", "35", "115", "54", 54, "U/L", 35, 115, "NORMAL", "", 4.0, "WEEK 2", 14, "TREATMENT", "2014-01-15T10:03", 15], ["CDISCPILOT01", "LB", "01-701-1097", 74, "ALP", "Alkaline Phosphatase", "CHEMISTRY", "49", "U/L", "35", "115", "49", 49, "U/L", 35, 115, "NORMAL", "", 5.0, "WEEK 4", 28, "TREATMENT", "2014-01-29T14:00", 29], ["CDISCPILOT01", "LB", "01-701-1097", 104, "ALP", "Alkaline Phosphatase", "CHEMISTRY", "48", "U/L", "35", "115", "48", 48, "U/L", 35, 115, "NORMAL", "", 7.0, "WEEK 6", 42, "TREATMENT", "2014-02-11T11:16", 42], ["CDISCPILOT01", "LB", "01-701-1097", 134, "ALP", "Alkaline Phosphatase", "CHEMISTRY", "49", "U/L", "35", "115", "49", 49, "U/L", 35, 115, "NORMAL", "", 8.0, "WEEK 8", 56, "TREATMENT", "2014-02-26T11:10", 57], ["CDISCPILOT01", "LB", "01-701-1097", 164, "ALP", "Alkaline Phosphatase", "CHEMISTRY", "53", "U/L", "35", "115", "53", 53, "U/L", 35, 115, "NORMAL", "", 9.0, "WEEK 12", 84, "TREATMENT", "2014-03-26T08:55", 85], ["CDISCPILOT01", "LB", "01-701-1097", 199, "ALP", "Alkaline Phosphatase", "CHEMISTRY", "67", "U/L", "35", "115", "67", 67, "U/L", 35, 115, "NORMAL", "", 10.0, "WEEK 16", 112, "TREATMENT", "2014-04-23T11:14", 113], ["CDISCPILOT01", "LB", "01-701-1097", 229, "ALP", "Alkaline Phosphatase", "CHEMISTRY", "50", "U/L", "35", "115", "50", 50, "U/L", 35, 115, "NORMAL", "", 11.0, "WEEK 20", 140, "TREATMENT", "2014-05-21T15:06", 141], ["CDISCPILOT01", "LB", "01-701-1097", 259, "ALP", "Alkaline Phosphatase", "CHEMISTRY", "54", "U/L", "35", "115", "54", 54, "U/L", 35, 115, "NORMAL", "", 12.0, "WEEK 24", 168, "TREATMENT", "2014-06-18T10:41", 169], ["CDISCPILOT01", "LB", "01-701-1097", 294, "ALP", "Alkaline Phosphatase", "CHEMISTRY", "52", "U/L", "35", "115", "52", 52, "U/L", 35, 115, "NORMAL", "", 13.0, "WEEK 26", 182, "TREATMENT", "2014-07-09T09:39", 190], ["CDISCPILOT01", "LB", "01-701-1097", 3, "ALT", "Alanine Aminotransferase", "CHEMISTRY", "16", "U/L", "6", "43", "16", 16, "U/L", 6, 43, "NORMAL", "Y", 1.0, "SCREENING 1", -7, "SCREENING", "2013-12-23T12:30", -9], ["CDISCPILOT01", "LB", "01-701-1097", 40, "ALT", "Alanine Aminotransferase", "CHEMISTRY", "24", "U/L", "6", "43", "24", 24, "U/L", 6, 43, "NORMAL", "", 4.0, "WEEK 2", 14, "TREATMENT", "2014-01-15T10:03", 15], ["CDISCPILOT01", "LB", "01-701-1097", 75, "ALT", "Alanine Aminotransferase", "CHEMISTRY", "17", "U/L", "6", "43", "17", 17, "U/L", 6, 43, "NORMAL", "", 5.0, "WEEK 4", 28, "TREATMENT", "2014-01-29T14:00", 29], ["CDISCPILOT01", "LB", "01-701-1097", 105, "ALT", "Alanine Aminotransferase", "CHEMISTRY", "14", "U/L", "6", "43", "14", 14, "U/L", 6, 43, "NORMAL", "", 7.0, "WEEK 6", 42, "TREATMENT", "2014-02-11T11:16", 42], ["CDISCPILOT01", "LB", "01-701-1097", 135, "ALT", "Alanine Aminotransferase", "CHEMISTRY", "18", "U/L", "6", "43", "18", 18, "U/L", 6, 43, "NORMAL", "", 8.0, "WEEK 8", 56, "TREATMENT", "2014-02-26T11:10", 57], ["CDISCPILOT01", "LB", "01-701-1097", 165, "ALT", "Alanine Aminotransferase", "CHEMISTRY", "14", "U/L", "6", "43", "14", 14, "U/L", 6, 43, "NORMAL", "", 9.0, "WEEK 12", 84, "TREATMENT", "2014-03-26T08:55", 85], ["CDISCPILOT01", "LB", "01-701-1097", 200, "ALT", "Alanine Aminotransferase", "CHEMISTRY", "15", "U/L", "6", "43", "15", 15, "U/L", 6, 43, "NORMAL", "", 10.0, "WEEK 16", 112, "TREATMENT", "2014-04-23T11:14", 113], ["CDISCPILOT01", "LB", "01-701-1097", 230, "ALT", "Alanine Aminotransferase", "CHEMISTRY", "11", "U/L", "6", "43", "11", 11, "U/L", 6, 43, "NORMAL", "", 11.0, "WEEK 20", 140, "TREATMENT", "2014-05-21T15:06", 141], ["CDISCPILOT01", "LB", "01-701-1097", 260, "ALT", "Alanine Aminotransferase", "CHEMISTRY", "18", "U/L", "6", "43", "18", 18, "U/L", 6, 43, "NORMAL", "", 12.0, "WEEK 24", 168, "TREATMENT", "2014-06-18T10:41", 169], ["CDISCPILOT01", "LB", "01-701-1097", 295, "ALT", "Alanine Aminotransferase", "CHEMISTRY", "15", "U/L", "6", "43", "15", 15, "U/L", 6, 43, "NORMAL", "", 13.0, "WEEK 26", 182, "TREATMENT", "2014-07-09T09:39", 190], ["CDISCPILOT01", "LB", "01-701-1097", 4, "AST", "Aspartate Aminotransferase", "CHEMISTRY", "19", "U/L", "11", "36", "19", 19, "U/L", 11, 36, "NORMAL", "Y", 1.0, "SCREENING 1", -7, "SCREENING", "2013-12-23T12:30", -9], ["CDISCPILOT01", "LB", "01-701-1097", 41, "AST", "Aspartate Aminotransferase", "CHEMISTRY", "21", "U/L", "11", "36", "21", 21, "U/L", 11, 36, "NORMAL", "", 4.0, "WEEK 2", 14, "TREATMENT", "2014-01-15T10:03", 15], ["CDISCPILOT01", "LB", "01-701-1097", 76, "AST", "Aspartate Aminotransferase", "CHEMISTRY", "16", "U/L", "11", "36", "16", 16, "U/L", 11, 36, "NORMAL", "", 5.0, "WEEK 4", 28, "TREATMENT", "2014-01-29T14:00", 29], ["CDISCPILOT01", "LB", "01-701-1097", 106, "AST", "Aspartate Aminotransferase", "CHEMISTRY", "19", "U/L", "11", "36", "19", 19, "U/L", 11, 36, "NORMAL", "", 7.0, "WEEK 6", 42, "TREATMENT", "2014-02-11T11:16", 42], ["CDISCPILOT01", "LB", "01-701-1097", 136, "AST", "Aspartate Aminotransferase", "CHEMISTRY", "18", "U/L", "11", "36", "18", 18, "U/L", 11, 36, "NORMAL", "", 8.0, "WEEK 8", 56, "TREATMENT", "2014-02-26T11:10", 57], ["CDISCPILOT01", "LB", "01-701-1097", 166, "AST", "Aspartate Aminotransferase", "CHEMISTRY", "17", "U/L", "11", "36", "17", 17, "U/L", 11, 36, "NORMAL", "", 9.0, "WEEK 12", 84, "TREATMENT", "2014-03-26T08:55", 85], ["CDISCPILOT01", "LB", "01-701-1097", 201, "AST", "Aspartate Aminotransferase", "CHEMISTRY", "17", "U/L", "11", "36", "17", 17, "U/L", 11, 36, "NORMAL", "", 10.0, "WEEK 16", 112, "TREATMENT", "2014-04-23T11:14", 113], ["CDISCPILOT01", "LB", "01-701-1097", 231, "AST", "Aspartate Aminotransferase", "CHEMISTRY", "16", "U/L", "11", "36", "16", 16, "U/L", 11, 36, "NORMAL", "", 11.0, "WEEK 20", 140, "TREATMENT", "2014-05-21T15:06", 141], ["CDISCPILOT01", "LB", "01-701-1097", 261, "AST", "Aspartate Aminotransferase", "CHEMISTRY", "20", "U/L", "11", "36", "20", 20, "U/L", 11, 36, "NORMAL", "", 12.0, "WEEK 24", 168, "TREATMENT", "2014-06-18T10:41", 169], ["CDISCPILOT01", "LB", "01-701-1097", 296, "AST", "Aspartate Aminotransferase", "CHEMISTRY", "19", "U/L", "11", "36", "19", 19, "U/L", 11, 36, "NORMAL", "", 13.0, "WEEK 26", 182, "TREATMENT", "2014-07-09T09:39", 190], ["CDISCPILOT01", "LB", "01-701-1097", 6, "BILI", "Bilirubin", "CHEMISTRY", "0.4", "mg/dL", "0.2", "1.2", "6.84", 6, "umol/L", 3, 21, "NORMAL", "Y", 1.0, "SCREENING 1", -7, "SCREENING", "2013-12-23T12:30", -9], ["CDISCPILOT01", "LB", "01-701-1097", 43, "BILI", "Bilirubin", "CHEMISTRY", "0.5", "mg/dL", "0.2", "1.2", "8.55", 8, "umol/L", 3, 21, "NORMAL", "", 4.0, "WEEK 2", 14, "TREATMENT", "2014-01-15T10:03", 15], ["CDISCPILOT01", "LB", "01-701-1097", 78, "BILI", "Bilirubin", "CHEMISTRY", "0.6", "mg/dL", "0.2", "1.2", "10.26", 10, "umol/L", 3, 21, "NORMAL", "", 5.0, "WEEK 4", 28, "TREATMENT", "2014-01-29T14:00", 29], ["CDISCPILOT01", "LB", "01-701-1097", 108, "BILI", "Bilirubin", "CHEMISTRY", "0.5", "mg/dL", "0.2", "1.2", "8.55", 8, "umol/L", 3, 21, "NORMAL", "", 7.0, "WEEK 6", 42, "TREATMENT", "2014-02-11T11:16", 42], ["CDISCPILOT01", "LB", "01-701-1097", 138, "BILI", "Bilirubin", "CHEMISTRY", "0.5", "mg/dL", "0.2", "1.2", "8.55", 8, "umol/L", 3, 21, "NORMAL", "", 8.0, "WEEK 8", 56, "TREATMENT", "2014-02-26T11:10", 57], ["CDISCPILOT01", "LB", "01-701-1097", 168, "BILI", "Bilirubin", "CHEMISTRY", "0.4", "mg/dL", "0.2", "1.2", "6.84", 6, "umol/L", 3, 21, "NORMAL", "", 9.0, "WEEK 12", 84, "TREATMENT", "2014-03-26T08:55", 85], ["CDISCPILOT01", "LB", "01-701-1097", 203, "BILI", "Bilirubin", "CHEMISTRY", "0.4", "mg/dL", "0.2", "1.2", "6.84", 6, "umol/L", 3, 21, "NORMAL", "", 10.0, "WEEK 16", 112, "TREATMENT", "2014-04-23T11:14", 113], ["CDISCPILOT01", "LB", "01-701-1097", 233, "BILI", "Bilirubin", "CHEMISTRY", "0.3", "mg/dL", "0.2", "1.2", "5.13", 5, "umol/L", 3, 21, "NORMAL", "", 11.0, "WEEK 20", 140, "TREATMENT", "2014-05-21T15:06", 141], ["CDISCPILOT01", "LB", "01-701-1097", 263, "BILI", "Bilirubin", "CHEMISTRY", "0.6", "mg/dL", "0.2", "1.2", "10.26", 10, "umol/L", 3, 21, "NORMAL", "", 12.0, "WEEK 24", 168, "TREATMENT", "2014-06-18T10:41", 169], ["CDISCPILOT01", "LB", "01-701-1097", 298, "BILI", "Bilirubin", "CHEMISTRY", "0.5", "mg/dL", "0.2", "1.2", "8.55", 8, "umol/L", 3, 21, "NORMAL", "", 13.0, "WEEK 26", 182, "TREATMENT", "2014-07-09T09:39", 190], ["CDISCPILOT01", "LB", "01-701-1097", 7, "UREAN", "Urea Nitrogen", "CHEMISTRY", "21", "mg/dL", "4", "24", "7.497", 7, "mmol/L", 1, 8, "NORMAL", "Y", 1.0, "SCREENING 1", -7, "SCREENING", "2013-12-23T12:30", -9], ["CDISCPILOT01", "LB", "01-701-1097", 44, "UREAN", "Urea Nitrogen", "CHEMISTRY", "24", "mg/dL", "4", "24", "8.568", 8, "mmol/L", 1, 8, "NORMAL", "", 4.0, "WEEK 2", 14, "TREATMENT", "2014-01-15T10:03", 15], ["CDISCPILOT01", "LB", "01-701-1097", 79, "UREAN", "Urea Nitrogen", "CHEMISTRY", "23", "mg/dL", "4", "24", "8.211", 8, "mmol/L", 1, 8, "NORMAL", "", 5.0, "WEEK 4", 28, "TREATMENT", "2014-01-29T14:00", 29], ["CDISCPILOT01", "LB", "01-701-1097", 109, "UREAN", "Urea Nitrogen", "CHEMISTRY", "21", "mg/dL", "4", "24", "7.497", 7, "mmol/L", 1, 8, "NORMAL", "", 7.0, "WEEK 6", 42, "TREATMENT", "2014-02-11T11:16", 42], ["CDISCPILOT01", "LB", "01-701-1097", 139, "UREAN", "Urea Nitrogen", "CHEMISTRY", "21", "mg/dL", "4", "24", "7.497", 7, "mmol/L", 1, 8, "NORMAL", "", 8.0, "WEEK 8", 56, "TREATMENT", "2014-02-26T11:10", 57], ["CDISCPILOT01", "LB", "01-701-1097", 169, "UREAN", "Urea Nitrogen", "CHEMISTRY", "22", "mg/dL", "4", "24", "7.854", 7, "mmol/L", 1, 8, "NORMAL", "", 9.0, "WEEK 12", 84, "TREATMENT", "2014-03-26T08:55", 85], ["CDISCPILOT01", "LB", "01-701-1097", 204, "UREAN", "Urea Nitrogen", "CHEMISTRY", "21", "mg/dL", "4", "24", "7.497", 7, "mmol/L", 1, 8, "NORMAL", "", 10.0, "WEEK 16", 112, "TREATMENT", "2014-04-23T11:14", 113], ["CDISCPILOT01", "LB", "01-701-1097", 234, "UREAN", "Urea Nitrogen", "CHEMISTRY", "19", "mg/dL", "4", "24", "6.783", 6, "mmol/L", 1, 8, "NORMAL", "", 11.0, "WEEK 20", 140, "TREATMENT", "2014-05-21T15:06", 141], ["CDISCPILOT01", "LB", "01-701-1097", 264, "UREAN", "Urea Nitrogen", "CHEMISTRY", "18", "mg/dL", "4", "24", "6.426", 6, "mmol/L", 1, 8, "NORMAL", "", 12.0, "WEEK 24", 168, "TREATMENT", "2014-06-18T10:41", 169], ["CDISCPILOT01", "LB", "01-701-1097", 299, "UREAN", "Urea Nitrogen", "CHEMISTRY", "19", "mg/dL", "4", "24", "6.783", 6, "mmol/L", 1, 8, "NORMAL", "", 13.0, "WEEK 26", 182, "TREATMENT", "2014-07-09T09:39", 190], ["CDISCPILOT01", "LB", "01-701-1097", 8, "CA", "Calcium", "CHEMISTRY", "9.3", "mg/dL", "8.4", "10.3", "2.32035", 2, "mmol/L", 2, 2, "NORMAL", "Y", 1.0, "SCREENING 1", -7, "SCREENING", "2013-12-23T12:30", -9], ["CDISCPILOT01", "LB", "01-701-1097", 45, "CA", "Calcium", "CHEMISTRY", "9.4", "mg/dL", "8.4", "10.3", "2.3453", 2, "mmol/L", 2, 2, "NORMAL", "", 4.0, "WEEK 2", 14, "TREATMENT", "2014-01-15T10:03", 15], ["CDISCPILOT01", "LB", "01-701-1097", 80, "CA", "Calcium", "CHEMISTRY", "9.1", "mg/dL", "8.4", "10.3", "2.27045", 2, "mmol/L", 2, 2, "NORMAL", "", 5.0, "WEEK 4", 28, "TREATMENT", "2014-01-29T14:00", 29], ["CDISCPILOT01", "LB", "01-701-1097", 110, "CA", "Calcium", "CHEMISTRY", "8.9", "mg/dL", "8.4", "10.3", "2.22055", 2, "mmol/L", 2, 2, "NORMAL", "", 7.0, "WEEK 6", 42, "TREATMENT", "2014-02-11T11:16", 42], ["CDISCPILOT01", "LB", "01-701-1097", 140, "CA", "Calcium", "CHEMISTRY", "9.4", "mg/dL", "8.4", "10.3", "2.3453", 2, "mmol/L", 2, 2, "NORMAL", "", 8.0, "WEEK 8", 56, "TREATMENT", "2014-02-26T11:10", 57], ["CDISCPILOT01", "LB", "01-701-1097", 170, "CA", "Calcium", "CHEMISTRY", "9.1", "mg/dL", "8.4", "10.3", "2.27045", 2, "mmol/L", 2, 2, "NORMAL", "", 9.0, "WEEK 12", 84, "TREATMENT", "2014-03-26T08:55", 85], ["CDISCPILOT01", "LB", "01-701-1097", 205, "CA", "Calcium", "CHEMISTRY", "9.0", "mg/dL", "8.4", "10.3", "2.2455", 2, "mmol/L", 2, 2, "NORMAL", "", 10.0, "WEEK 16", 112, "TREATMENT", "2014-04-23T11:14", 113], ["CDISCPILOT01", "LB", "01-701-1097", 235, "CA", "Calcium", "CHEMISTRY", "8.7", "mg/dL", "8.4", "10.3", "2.17065", 2, "mmol/L", 2, 2, "NORMAL", "", 11.0, "WEEK 20", 140, "TREATMENT", "2014-05-21T15:06", 141], ["CDISCPILOT01", "LB", "01-701-1097", 265, "CA", "Calcium", "CHEMISTRY", "8.8", "mg/dL", "8.4", "10.3", "2.1956", 2, "mmol/L", 2, 2, "NORMAL", "", 12.0, "WEEK 24", 168, "TREATMENT", "2014-06-18T10:41", 169], ["CDISCPILOT01", "LB", "01-701-1097", 300, "CA", "Calcium", "CHEMISTRY", "9.3", "mg/dL", "8.4", "10.3", "2.32035", 2, "mmol/L", 2, 2, "NORMAL", "", 13.0, "WEEK 26", 182, "TREATMENT", "2014-07-09T09:39", 190], ["CDISCPILOT01", "LB", "01-701-1097", 9, "CHOL", "Cholesterol", "CHEMISTRY", "241", "mg/dL", "149", "286", "6.23226", 6, "mmol/L", 3, 7, "NORMAL", "Y", 1.0, "SCREENING 1", -7, "SCREENING", "2013-12-23T12:30", -9], ["CDISCPILOT01", "LB", "01-701-1097", 46, "CHOL", "Cholesterol", "CHEMISTRY", "237", "mg/dL", "149", "286", "6.12882", 6, "mmol/L", 3, 7, "NORMAL", "", 4.0, "WEEK 2", 14, "TREATMENT", "2014-01-15T10:03", 15], ["CDISCPILOT01", "LB", "01-701-1097", 81, "CHOL", "Cholesterol", "CHEMISTRY", "223", "mg/dL", "149", "286", "5.76678", 5, "mmol/L", 3, 7, "NORMAL", "", 5.0, "WEEK 4", 28, "TREATMENT", "2014-01-29T14:00", 29], ["CDISCPILOT01", "LB", "01-701-1097", 111, "CHOL", "Cholesterol", "CHEMISTRY", "215", "mg/dL", "149", "286", "5.5599", 5, "mmol/L", 3, 7, "NORMAL", "", 7.0, "WEEK 6", 42, "TREATMENT", "2014-02-11T11:16", 42], ["CDISCPILOT01", "LB", "01-701-1097", 141, "CHOL", "Cholesterol", "CHEMISTRY", "238", "mg/dL", "149", "286", "6.15468", 6, "mmol/L", 3, 7, "NORMAL", "", 8.0, "WEEK 8", 56, "TREATMENT", "2014-02-26T11:10", 57], ["CDISCPILOT01", "LB", "01-701-1097", 171, "CHOL", "Cholesterol", "CHEMISTRY", "219", "mg/dL", "149", "286", "5.66334", 5, "mmol/L", 3, 7, "NORMAL", "", 9.0, "WEEK 12", 84, "TREATMENT", "2014-03-26T08:55", 85], ["CDISCPILOT01", "LB", "01-701-1097", 206, "CHOL", "Cholesterol", "CHEMISTRY", "221", "mg/dL", "149", "286", "5.71506", 5, "mmol/L", 3, 7, "NORMAL", "", 10.0, "WEEK 16", 112, "TREATMENT", "2014-04-23T11:14", 113], ["CDISCPILOT01", "LB", "01-701-1097", 236, "CHOL", "Cholesterol", "CHEMISTRY", "208", "mg/dL", "149", "286", "5.37888", 5, "mmol/L", 3, 7, "NORMAL", "", 11.0, "WEEK 20", 140, "TREATMENT", "2014-05-21T15:06", 141], ["CDISCPILOT01", "LB", "01-701-1097", 266, "CHOL", "Cholesterol", "CHEMISTRY", "226", "mg/dL", "149", "286", "5.84436", 5, "mmol/L", 3, 7, "NORMAL", "", 12.0, "WEEK 24", 168, "TREATMENT", "2014-06-18T10:41", 169], ["CDISCPILOT01", "LB", "01-701-1097", 301, "CHOL", "Cholesterol", "CHEMISTRY", "205", "mg/dL", "149", "286", "5.3013", 5, "mmol/L", 3, 7, "NORMAL", "", 13.0, "WEEK 26", 182, "TREATMENT", "2014-07-09T09:39", 190], ["CDISCPILOT01", "LB", "01-701-1097", 10, "CK", "Creatine Kinase", "CHEMISTRY", "96", "U/L", "22", "198", "96", 96, "U/L", 22, 198, "NORMAL", "Y", 1.0, "SCREENING 1", -7, "SCREENING", "2013-12-23T12:30", -9], ["CDISCPILOT01", "LB", "01-701-1097", 47, "CK", "Creatine Kinase", "CHEMISTRY", "84", "U/L", "22", "198", "84", 84, "U/L", 22, 198, "NORMAL", "", 4.0, "WEEK 2", 14, "TREATMENT", "2014-01-15T10:03", 15], ["CDISCPILOT01", "LB", "01-701-1097", 82, "CK", "Creatine Kinase", "CHEMISTRY", "86", "U/L", "22", "198", "86", 86, "U/L", 22, 198, "NORMAL", "", 5.0, "WEEK 4", 28, "TREATMENT", "2014-01-29T14:00", 29], ["CDISCPILOT01", "LB", "01-701-1097", 112, "CK", "Creatine Kinase", "CHEMISTRY", "126", "U/L", "22", "198", "126", 126, "U/L", 22, 198, "NORMAL", "", 7.0, "WEEK 6", 42, "TREATMENT", "2014-02-11T11:16", 42], ["CDISCPILOT01", "LB", "01-701-1097", 142, "CK", "Creatine Kinase", "CHEMISTRY", "88", "U/L", "22", "198", "88", 88, "U/L", 22, 198, "NORMAL", "", 8.0, "WEEK 8", 56, "TREATMENT", "2014-02-26T11:10", 57], ["CDISCPILOT01", "LB", "01-701-1097", 172, "CK", "Creatine Kinase", "CHEMISTRY", "63", "U/L", "22", "198", "63", 63, "U/L", 22, 198, "NORMAL", "", 9.0, "WEEK 12", 84, "TREATMENT", "2014-03-26T08:55", 85], ["CDISCPILOT01", "LB", "01-701-1097", 207, "CK", "Creatine Kinase", "CHEMISTRY", "77", "U/L", "22", "198", "77", 77, "U/L", 22, 198, "NORMAL", "", 10.0, "WEEK 16", 112, "TREATMENT", "2014-04-23T11:14", 113], ["CDISCPILOT01", "LB", "01-701-1097", 237, "CK", "Creatine Kinase", "CHEMISTRY", "82", "U/L", "22", "198", "82", 82, "U/L", 22, 198, "NORMAL", "", 11.0, "WEEK 20", 140, "TREATMENT", "2014-05-21T15:06", 141], ["CDISCPILOT01", "LB", "01-701-1097", 267, "CK", "Creatine Kinase", "CHEMISTRY", "98", "U/L", "22", "198", "98", 98, "U/L", 22, 198, "NORMAL", "", 12.0, "WEEK 24", 168, "TREATMENT", "2014-06-18T10:41", 169], ["CDISCPILOT01", "LB", "01-701-1097", 302, "CK", "Creatine Kinase", "CHEMISTRY", "86", "U/L", "22", "198", "86", 86, "U/L", 22, 198, "NORMAL", "", 13.0, "WEEK 26", 182, "TREATMENT", "2014-07-09T09:39", 190], ["CDISCPILOT01", "LB", "01-701-1097", 11, "CL", "Chloride", "CHEMISTRY", "103", "mEq/L", "94", "112", "103", 103, "mmol/L", 94, 112, "NORMAL", "Y", 1.0, "SCREENING 1", -7, "SCREENING", "2013-12-23T12:30", -9], ["CDISCPILOT01", "LB", "01-701-1097", 48, "CL", "Chloride", "CHEMISTRY", "104", "mEq/L", "94", "112", "104", 104, "mmol/L", 94, 112, "NORMAL", "", 4.0, "WEEK 2", 14, "TREATMENT", "2014-01-15T10:03", 15], ["CDISCPILOT01", "LB", "01-701-1097", 83, "CL", "Chloride", "CHEMISTRY", "103", "mEq/L", "94", "112", "103", 103, "mmol/L", 94, 112, "NORMAL", "", 5.0, "WEEK 4", 28, "TREATMENT", "2014-01-29T14:00", 29], ["CDISCPILOT01", "LB", "01-701-1097", 113, "CL", "Chloride", "CHEMISTRY", "106", "mEq/L", "94", "112", "106", 106, "mmol/L", 94, 112, "NORMAL", "", 7.0, "WEEK 6", 42, "TREATMENT", "2014-02-11T11:16", 42], ["CDISCPILOT01", "LB", "01-701-1097", 143, "CL", "Chloride", "CHEMISTRY", "100", "mEq/L", "94", "112", "100", 100, "mmol/L", 94, 112, "NORMAL", "", 8.0, "WEEK 8", 56, "TREATMENT", "2014-02-26T11:10", 57], ["CDISCPILOT01", "LB", "01-701-1097", 173, "CL", "Chloride", "CHEMISTRY", "102", "mEq/L", "94", "112", "102", 102, "mmol/L", 94, 112, "NORMAL", "", 9.0, "WEEK 12", 84, "TREATMENT", "2014-03-26T08:55", 85], ["CDISCPILOT01", "LB", "01-701-1097", 208, "CL", "Chloride", "CHEMISTRY", "103", "mEq/L", "94", "112", "103", 103, "mmol/L", 94, 112, "NORMAL", "", 10.0, "WEEK 16", 112, "TREATMENT", "2014-04-23T11:14", 113], ["CDISCPILOT01", "LB", "01-701-1097", 238, "CL", "Chloride", "CHEMISTRY", "108", "mEq/L", "94", "112", "108", 108, "mmol/L", 94, 112, "NORMAL", "", 11.0, "WEEK 20", 140, "TREATMENT", "2014-05-21T15:06", 141], ["CDISCPILOT01", "LB", "01-701-1097", 268, "CL", "Chloride", "CHEMISTRY", "103", "mEq/L", "94", "112", "103", 103, "mmol/L", 94, 112, "NORMAL", "", 12.0, "WEEK 24", 168, "TREATMENT", "2014-06-18T10:41", 169], ["CDISCPILOT01", "LB", "01-701-1097", 303, "CL", "Chloride", "CHEMISTRY", "108", "mEq/L", "94", "112", "108", 108, "mmol/L", 94, 112, "NORMAL", "", 13.0, "WEEK 26", 182, "TREATMENT", "2014-07-09T09:39", 190], ["CDISCPILOT01", "LB", "01-701-1097", 13, "CREAT", "Creatinine", "CHEMISTRY", "1.4", "mg/dL", "0.8", "1.6", "123.76", 123, "umol/L", 71, 141, "NORMAL", "Y", 1.0, "SCREENING 1", -7, "SCREENING", "2013-12-23T12:30", -9], ["CDISCPILOT01", "LB", "01-701-1097", 50, "CREAT", "Creatinine", "CHEMISTRY", "1.5", "mg/dL", "0.8", "1.6", "132.6", 132, "umol/L", 71, 141, "NORMAL", "", 4.0, "WEEK 2", 14, "TREATMENT", "2014-01-15T10:03", 15], ["CDISCPILOT01", "LB", "01-701-1097", 84, "CREAT", "Creatinine", "CHEMISTRY", "1.5", "mg/dL", "0.8", "1.6", "132.6", 132, "umol/L", 71, 141, "NORMAL", "", 5.0, "WEEK 4", 28, "TREATMENT", "2014-01-29T14:00", 29], ["CDISCPILOT01", "LB", "01-701-1097", 114, "CREAT", "Creatinine", "CHEMISTRY", "1.5", "mg/dL", "0.8", "1.6", "132.6", 132, "umol/L", 71, 141, "NORMAL", "", 7.0, "WEEK 6", 42, "TREATMENT", "2014-02-11T11:16", 42], ["CDISCPILOT01", "LB", "01-701-1097", 144, "CREAT", "Creatinine", "CHEMISTRY", "1.5", "mg/dL", "0.8", "1.6", "132.6", 132, "umol/L", 71, 141, "NORMAL", "", 8.0, "WEEK 8", 56, "TREATMENT", "2014-02-26T11:10", 57], ["CDISCPILOT01", "LB", "01-701-1097", 175, "CREAT", "Creatinine", "CHEMISTRY", "1.5", "mg/dL", "0.8", "1.6", "132.6", 132, "umol/L", 71, 141, "NORMAL", "", 9.0, "WEEK 12", 84, "TREATMENT", "2014-03-26T08:55", 85], ["CDISCPILOT01", "LB", "01-701-1097", 209, "CREAT", "Creatinine", "CHEMISTRY", "1.5", "mg/dL", "0.8", "1.6", "132.6", 132, "umol/L", 71, 141, "NORMAL", "", 10.0, "WEEK 16", 112, "TREATMENT", "2014-04-23T11:14", 113], ["CDISCPILOT01", "LB", "01-701-1097", 239, "CREAT", "Creatinine", "CHEMISTRY", "1.5", "mg/dL", "0.8", "1.6", "132.6", 132, "umol/L", 71, 141, "NORMAL", "", 11.0, "WEEK 20", 140, "TREATMENT", "2014-05-21T15:06", 141], ["CDISCPILOT01", "LB", "01-701-1097", 270, "CREAT", "Creatinine", "CHEMISTRY", "1.4", "mg/dL", "0.8", "1.6", "123.76", 123, "umol/L", 71, 141, "NORMAL", "", 12.0, "WEEK 24", 168, "TREATMENT", "2014-06-18T10:41", 169], ["CDISCPILOT01", "LB", "01-701-1097", 305, "CREAT", "Creatinine", "CHEMISTRY", "1.6", "mg/dL", "0.8", "1.6", "141.44", 141, "umol/L", 71, 141, "NORMAL", "", 13.0, "WEEK 26", 182, "TREATMENT", "2014-07-09T09:39", 190], ["CDISCPILOT01", "LB", "01-701-1097", 15, "GGT", "Gamma Glutamyl Transferase", "CHEMISTRY", "18", "U/L", "10", "50", "18", 18, "U/L", 10, 50, "NORMAL", "Y", 1.0, "SCREENING 1", -7, "SCREENING", "2013-12-23T12:30", -9], ["CDISCPILOT01", "LB", "01-701-1097", 52, "GGT", "Gamma Glutamyl Transferase", "CHEMISTRY", "21", "U/L", "10", "50", "21", 21, "U/L", 10, 50, "NORMAL", "", 4.0, "WEEK 2", 14, "TREATMENT", "2014-01-15T10:03", 15], ["CDISCPILOT01", "LB", "01-701-1097", 86, "GGT", "Gamma Glutamyl Transferase", "CHEMISTRY", "18", "U/L", "10", "50", "18", 18, "U/L", 10, 50, "NORMAL", "", 5.0, "WEEK 4", 28, "TREATMENT", "2014-01-29T14:00", 29], ["CDISCPILOT01", "LB", "01-701-1097", 116, "GGT", "Gamma Glutamyl Transferase", "CHEMISTRY", "16", "U/L", "10", "50", "16", 16, "U/L", 10, 50, "NORMAL", "", 7.0, "WEEK 6", 42, "TREATMENT", "2014-02-11T11:16", 42], ["CDISCPILOT01", "LB", "01-701-1097", 146, "GGT", "Gamma Glutamyl Transferase", "CHEMISTRY", "19", "U/L", "10", "50", "19", 19, "U/L", 10, 50, "NORMAL", "", 8.0, "WEEK 8", 56, "TREATMENT", "2014-02-26T11:10", 57], ["CDISCPILOT01", "LB", "01-701-1097", 177, "GGT", "Gamma Glutamyl Transferase", "CHEMISTRY", "19", "U/L", "10", "50", "19", 19, "U/L", 10, 50, "NORMAL", "", 9.0, "WEEK 12", 84, "TREATMENT", "2014-03-26T08:55", 85], ["CDISCPILOT01", "LB", "01-701-1097", 211, "GGT", "Gamma Glutamyl Transferase", "CHEMISTRY", "20", "U/L", "10", "50", "20", 20, "U/L", 10, 50, "NORMAL", "", 10.0, "WEEK 16", 112, "TREATMENT", "2014-04-23T11:14", 113], ["CDISCPILOT01", "LB", "01-701-1097", 241, "GGT", "Gamma Glutamyl Transferase", "CHEMISTRY", "16", "U/L", "10", "50", "16", 16, "U/L", 10, 50, "NORMAL", "", 11.0, "WEEK 20", 140, "TREATMENT", "2014-05-21T15:06", 141], ["CDISCPILOT01", "LB", "01-701-1097", 272, "GGT", "Gamma Glutamyl Transferase", "CHEMISTRY", "20", "U/L", "10", "50", "20", 20, "U/L", 10, 50, "NORMAL", "", 12.0, "WEEK 24", 168, "TREATMENT", "2014-06-18T10:41", 169], ["CDISCPILOT01", "LB", "01-701-1097", 307, "GGT", "Gamma Glutamyl Transferase", "CHEMISTRY", "16", "U/L", "10", "50", "16", 16, "U/L", 10, 50, "NORMAL", "", 13.0, "WEEK 26", 182, "TREATMENT", "2014-07-09T09:39", 190], ["CDISCPILOT01", "LB", "01-701-1097", 16, "GLUC", "Glucose", "CHEMISTRY", "93", "mg/dL", "50", "250", "5.16243", 5, "mmol/L", 2, 13, "NORMAL", "Y", 1.0, "SCREENING 1", -7, "SCREENING", "2013-12-23T12:30", -9], ["CDISCPILOT01", "LB", "01-701-1097", 53, "GLUC", "Glucose", "CHEMISTRY", "90", "mg/dL", "50", "250", "4.9959", 4, "mmol/L", 2, 13, "NORMAL", "", 4.0, "WEEK 2", 14, "TREATMENT", "2014-01-15T10:03", 15], ["CDISCPILOT01", "LB", "01-701-1097", 87, "GLUC", "Glucose", "CHEMISTRY", "97", "mg/dL", "50", "250", "5.38447", 5, "mmol/L", 2, 13, "NORMAL", "", 5.0, "WEEK 4", 28, "TREATMENT", "2014-01-29T14:00", 29], ["CDISCPILOT01", "LB", "01-701-1097", 117, "GLUC", "Glucose", "CHEMISTRY", "67", "mg/dL", "50", "250", "3.71917", 3, "mmol/L", 2, 13, "NORMAL", "", 7.0, "WEEK 6", 42, "TREATMENT", "2014-02-11T11:16", 42], ["CDISCPILOT01", "LB", "01-701-1097", 147, "GLUC", "Glucose", "CHEMISTRY", "89", "mg/dL", "50", "250", "4.94039", 4, "mmol/L", 2, 13, "NORMAL", "", 8.0, "WEEK 8", 56, "TREATMENT", "2014-02-26T11:10", 57], ["CDISCPILOT01", "LB", "01-701-1097", 178, "GLUC", "Glucose", "CHEMISTRY", "107", "mg/dL", "50", "250", "5.93957", 5, "mmol/L", 2, 13, "NORMAL", "", 9.0, "WEEK 12", 84, "TREATMENT", "2014-03-26T08:55", 85], ["CDISCPILOT01", "LB", "01-701-1097", 212, "GLUC", "Glucose", "CHEMISTRY", "90", "mg/dL", "50", "250", "4.9959", 4, "mmol/L", 2, 13, "NORMAL", "", 10.0, "WEEK 16", 112, "TREATMENT", "2014-04-23T11:14", 113], ["CDISCPILOT01", "LB", "01-701-1097", 242, "GLUC", "Glucose", "CHEMISTRY", "78", "mg/dL", "50", "250", "4.32978", 4, "mmol/L", 2, 13, "NORMAL", "", 11.0, "WEEK 20", 140, "TREATMENT", "2014-05-21T15:06", 141], ["CDISCPILOT01", "LB", "01-701-1097", 273, "GLUC", "Glucose", "CHEMISTRY", "96", "mg/dL", "50", "250", "5.32896", 5, "mmol/L", 2, 13, "NORMAL", "", 12.0, "WEEK 24", 168, "TREATMENT", "2014-06-18T10:41", 169], ["CDISCPILOT01", "LB", "01-701-1097", 308, "GLUC", "Glucose", "CHEMISTRY", "89", "mg/dL", "50", "250", "4.94039", 4, "mmol/L", 2, 13, "NORMAL", "", 13.0, "WEEK 26", 182, "TREATMENT", "2014-07-09T09:39", 190], ["CDISCPILOT01", "LB", "01-701-1097", 19, "K", "Potassium", "CHEMISTRY", "4.6", "mEq/L", "3.4", "5.4", "4.6", 4, "mmol/L", 3, 5, "NORMAL", "Y", 1.0, "SCREENING 1", -7, "SCREENING", "2013-12-23T12:30", -9], ["CDISCPILOT01", "LB", "01-701-1097", 56, "K", "Potassium", "CHEMISTRY", "4.8", "mEq/L", "3.4", "5.4", "4.8", 4, "mmol/L", 3, 5, "NORMAL", "", 4.0, "WEEK 2", 14, "TREATMENT", "2014-01-15T10:03", 15], ["CDISCPILOT01", "LB", "01-701-1097", 90, "K", "Potassium", "CHEMISTRY", "4.8", "mEq/L", "3.4", "5.4", "4.8", 4, "mmol/L", 3, 5, "NORMAL", "", 5.0, "WEEK 4", 28, "TREATMENT", "2014-01-29T14:00", 29], ["CDISCPILOT01", "LB", "01-701-1097", 120, "K", "Potassium", "CHEMISTRY", "4.6", "mEq/L", "3.4", "5.4", "4.6", 4, "mmol/L", 3, 5, "NORMAL", "", 7.0, "WEEK 6", 42, "TREATMENT", "2014-02-11T11:16", 42], ["CDISCPILOT01", "LB", "01-701-1097", 150, "K", "Potassium", "CHEMISTRY", "5.0", "mEq/L", "3.4", "5.4", "5", 5, "mmol/L", 3, 5, "NORMAL", "", 8.0, "WEEK 8", 56, "TREATMENT", "2014-02-26T11:10", 57], ["CDISCPILOT01", "LB", "01-701-1097", 181, "K", "Potassium", "CHEMISTRY", "4.2", "mEq/L", "3.4", "5.4", "4.2", 4, "mmol/L", 3, 5, "NORMAL", "", 9.0, "WEEK 12", 84, "TREATMENT", "2014-03-26T08:55", 85], ["CDISCPILOT01", "LB", "01-701-1097", 215, "K", "Potassium", "CHEMISTRY", "4.7", "mEq/L", "3.4", "5.4", "4.7", 4, "mmol/L", 3, 5, "NORMAL", "", 10.0, "WEEK 16", 112, "TREATMENT", "2014-04-23T11:14", 113], ["CDISCPILOT01", "LB", "01-701-1097", 245, "K", "Potassium", "CHEMISTRY", "4.2", "mEq/L", "3.4", "5.4", "4.2", 4, "mmol/L", 3, 5, "NORMAL", "", 11.0, "WEEK 20", 140, "TREATMENT", "2014-05-21T15:06", 141], ["CDISCPILOT01", "LB", "01-701-1097", 276, "K", "Potassium", "CHEMISTRY", "4.1", "mEq/L", "3.4", "5.4", "4.1", 4, "mmol/L", 3, 5, "NORMAL", "", 12.0, "WEEK 24", 168, "TREATMENT", "2014-06-18T10:41", 169], ["CDISCPILOT01", "LB", "01-701-1097", 311, "K", "Potassium", "CHEMISTRY", "5.0", "mEq/L", "3.4", "5.4", "5", 5, "mmol/L", 3, 5, "NORMAL", "", 13.0, "WEEK 26", 182, "TREATMENT", "2014-07-09T09:39", 190], ["CDISCPILOT01", "LB", "01-701-1097", 26, "SODIUM", "Sodium", "CHEMISTRY", "134", "mEq/L", "135", "145", "134", 134, "mmol/L", 135, 145, "LOW", "Y", 1.0, "SCREENING 1", -7, "SCREENING", "2013-12-23T12:30", -9], ["CDISCPILOT01", "LB", "01-701-1097", 63, "SODIUM", "Sodium", "CHEMISTRY", "139", "mEq/L", "135", "145", "139", 139, "mmol/L", 135, 145, "NORMAL", "", 4.0, "WEEK 2", 14, "TREATMENT", "2014-01-15T10:03", 15], ["CDISCPILOT01", "LB", "01-701-1097", 96, "SODIUM", "Sodium", "CHEMISTRY", "138", "mEq/L", "135", "145", "138", 138, "mmol/L", 135, 145, "NORMAL", "", 5.0, "WEEK 4", 28, "TREATMENT", "2014-01-29T14:00", 29], ["CDISCPILOT01", "LB", "01-701-1097", 126, "SODIUM", "Sodium", "CHEMISTRY", "141", "mEq/L", "135", "145", "141", 141, "mmol/L", 135, 145, "NORMAL", "", 7.0, "WEEK 6", 42, "TREATMENT", "2014-02-11T11:16", 42], ["CDISCPILOT01", "LB", "01-701-1097", 156, "SODIUM", "Sodium", "CHEMISTRY", "136", "mEq/L", "135", "145", "136", 136, "mmol/L", 135, 145, "NORMAL", "", 8.0, "WEEK 8", 56, "TREATMENT", "2014-02-26T11:10", 57], ["CDISCPILOT01", "LB", "01-701-1097", 188, "SODIUM", "Sodium", "CHEMISTRY", "139", "mEq/L", "135", "145", "139", 139, "mmol/L", 135, 145, "NORMAL", "", 9.0, "WEEK 12", 84, "TREATMENT", "2014-03-26T08:55", 85], ["CDISCPILOT01", "LB", "01-701-1097", 221, "SODIUM", "Sodium", "CHEMISTRY", "139", "mEq/L", "135", "145", "139", 139, "mmol/L", 135, 145, "NORMAL", "", 10.0, "WEEK 16", 112, "TREATMENT", "2014-04-23T11:14", 113], ["CDISCPILOT01", "LB", "01-701-1097", 251, "SODIUM", "Sodium", "CHEMISTRY", "137", "mEq/L", "135", "145", "137", 137, "mmol/L", 135, 145, "NORMAL", "", 11.0, "WEEK 20", 140, "TREATMENT", "2014-05-21T15:06", 141], ["CDISCPILOT01", "LB", "01-701-1097", 283, "SODIUM", "Sodium", "CHEMISTRY", "136", "mEq/L", "135", "145", "136", 136, "mmol/L", 135, 145, "NORMAL", "", 12.0, "WEEK 24", 168, "TREATMENT", "2014-06-18T10:41", 169], ["CDISCPILOT01", "LB", "01-701-1097", 318, "SODIUM", "Sodium", "CHEMISTRY", "141", "mEq/L", "135", "145", "141", 141, "mmol/L", 135, 145, "NORMAL", "", 13.0, "WEEK 26", 182, "TREATMENT", "2014-07-09T09:39", 190], ["CDISCPILOT01", "LB", "01-701-1097", 28, "PHOS", "Phosphate", "CHEMISTRY", "3.2", "mg/dL", "2.2", "5.1", "1.03328", 1, "mmol/L", 0, 1, "NORMAL", "Y", 1.0, "SCREENING 1", -7, "SCREENING", "2013-12-23T12:30", -9], ["CDISCPILOT01", "LB", "01-701-1097", 65, "PHOS", "Phosphate", "CHEMISTRY", "3.5", "mg/dL", "2.2", "5.1", "1.13015", 1, "mmol/L", 0, 1, "NORMAL", "", 4.0, "WEEK 2", 14, "TREATMENT", "2014-01-15T10:03", 15], ["CDISCPILOT01", "LB", "01-701-1097", 97, "PHOS", "Phosphate", "CHEMISTRY", "3.4", "mg/dL", "2.2", "5.1", "1.09786", 1, "mmol/L", 0, 1, "NORMAL", "", 5.0, "WEEK 4", 28, "TREATMENT", "2014-01-29T14:00", 29], ["CDISCPILOT01", "LB", "01-701-1097", 127, "PHOS", "Phosphate", "CHEMISTRY", "3.3", "mg/dL", "2.2", "5.1", "1.06557", 1, "mmol/L", 0, 1, "NORMAL", "", 7.0, "WEEK 6", 42, "TREATMENT", "2014-02-11T11:16", 42], ["CDISCPILOT01", "LB", "01-701-1097", 157, "PHOS", "Phosphate", "CHEMISTRY", "3.4", "mg/dL", "2.2", "5.1", "1.09786", 1, "mmol/L", 0, 1, "NORMAL", "", 8.0, "WEEK 8", 56, "TREATMENT", "2014-02-26T11:10", 57], ["CDISCPILOT01", "LB", "01-701-1097", 190, "PHOS", "Phosphate", "CHEMISTRY", "2.4", "mg/dL", "2.2", "5.1", "0.77496", 0, "mmol/L", 0, 1, "NORMAL", "", 9.0, "WEEK 12", 84, "TREATMENT", "2014-03-26T08:55", 85], ["CDISCPILOT01", "LB", "01-701-1097", 222, "PHOS", "Phosphate", "CHEMISTRY", "3.4", "mg/dL", "2.2", "5.1", "1.09786", 1, "mmol/L", 0, 1, "NORMAL", "", 10.0, "WEEK 16", 112, "TREATMENT", "2014-04-23T11:14", 113], ["CDISCPILOT01", "LB", "01-701-1097", 252, "PHOS", "Phosphate", "CHEMISTRY", "3.7", "mg/dL", "2.2", "5.1", "1.19473", 1, "mmol/L", 0, 1, "NORMAL", "", 11.0, "WEEK 20", 140, "TREATMENT", "2014-05-21T15:06", 141], ["CDISCPILOT01", "LB", "01-701-1097", 285, "PHOS", "Phosphate", "CHEMISTRY", "3.2", "mg/dL", "2.2", "5.1", "1.03328", 1, "mmol/L", 0, 1, "NORMAL", "", 12.0, "WEEK 24", 168, "TREATMENT", "2014-06-18T10:41", 169], ["CDISCPILOT01", "LB", "01-701-1097", 320, "PHOS", "Phosphate", "CHEMISTRY", "2.9", "mg/dL", "2.2", "5.1", "0.93641", 0, "mmol/L", 0, 1, "NORMAL", "", 13.0, "WEEK 26", 182, "TREATMENT", "2014-07-09T09:39", 190], ["CDISCPILOT01", "LB", "01-701-1097", 30, "PROT", "Protein", "CHEMISTRY", "7.2", "g/dL", "6", "8", "72", 72, "g/L", 60, 80, "NORMAL", "Y", 1.0, "SCREENING 1", -7, "SCREENING", "2013-12-23T12:30", -9], ["CDISCPILOT01", "LB", "01-701-1097", 67, "PROT", "Protein", "CHEMISTRY", "7.2", "g/dL", "6", "8", "72", 72, "g/L", 60, 80, "NORMAL", "", 4.0, "WEEK 2", 14, "TREATMENT", "2014-01-15T10:03", 15], ["CDISCPILOT01", "LB", "01-701-1097", 99, "PROT", "Protein", "CHEMISTRY", "6.9", "g/dL", "6", "8", "69", 69, "g/L", 60, 80, "NORMAL", "", 5.0, "WEEK 4", 28, "TREATMENT", "2014-01-29T14:00", 29], ["CDISCPILOT01", "LB", "01-701-1097", 129, "PROT", "Protein", "CHEMISTRY", "6.7", "g/dL", "6", "8", "67", 67, "g/L", 60, 80, "NORMAL", "", 7.0, "WEEK 6", 42, "TREATMENT", "2014-02-11T11:16", 42], ["CDISCPILOT01", "LB", "01-701-1097", 159, "PROT", "Protein", "CHEMISTRY", "6.9", "g/dL", "6", "8", "69", 69, "g/L", 60, 80, "NORMAL", "", 8.0, "WEEK 8", 56, "TREATMENT", "2014-02-26T11:10", 57], ["CDISCPILOT01", "LB", "01-701-1097", 192, "PROT", "Protein", "CHEMISTRY", "6.8", "g/dL", "6", "8", "68", 68, "g/L", 60, 80, "NORMAL", "", 9.0, "WEEK 12", 84, "TREATMENT", "2014-03-26T08:55", 85], ["CDISCPILOT01", "LB", "01-701-1097", 224, "PROT", "Protein", "CHEMISTRY", "7.5", "g/dL", "6", "8", "75", 75, "g/L", 60, 80, "NORMAL", "", 10.0, "WEEK 16", 112, "TREATMENT", "2014-04-23T11:14", 113], ["CDISCPILOT01", "LB", "01-701-1097", 254, "PROT", "Protein", "CHEMISTRY", "6.4", "g/dL", "6", "8", "64", 64, "g/L", 60, 80, "NORMAL", "", 11.0, "WEEK 20", 140, "TREATMENT", "2014-05-21T15:06", 141], ["CDISCPILOT01", "LB", "01-701-1097", 287, "PROT", "Protein", "CHEMISTRY", "7.1", "g/dL", "6", "8", "71", 71, "g/L", 60, 80, "NORMAL", "", 12.0, "WEEK 24", 168, "TREATMENT", "2014-06-18T10:41", 169], ["CDISCPILOT01", "LB", "01-701-1097", 322, "PROT", "Protein", "CHEMISTRY", "6.8", "g/dL", "6", "8", "68", 68, "g/L", 60, 80, "NORMAL", "", 13.0, "WEEK 26", 182, "TREATMENT", "2014-07-09T09:39", 190], ["CDISCPILOT01", "LB", "01-701-1097", 34, "URATE", "Urate", "CHEMISTRY", "4.7", "mg/dL", "2.5", "7.5", "279.556", 279, "umol/L", 149, 446, "NORMAL", "Y", 1.0, "SCREENING 1", -7, "SCREENING", "2013-12-23T12:30", -9], ["CDISCPILOT01", "LB", "01-701-1097", 70, "URATE", "Urate", "CHEMISTRY", "5.3", "mg/dL", "2.5", "7.5", "315.244", 315, "umol/L", 149, 446, "NORMAL", "", 4.0, "WEEK 2", 14, "TREATMENT", "2014-01-15T10:03", 15], ["CDISCPILOT01", "LB", "01-701-1097", 101, "URATE", "Urate", "CHEMISTRY", "4.8", "mg/dL", "2.5", "7.5", "285.504", 285, "umol/L", 149, 446, "NORMAL", "", 5.0, "WEEK 4", 28, "TREATMENT", "2014-01-29T14:00", 29], ["CDISCPILOT01", "LB", "01-701-1097", 131, "URATE", "Urate", "CHEMISTRY", "4.5", "mg/dL", "2.5", "7.5", "267.66", 267, "umol/L", 149, 446, "NORMAL", "", 7.0, "WEEK 6", 42, "TREATMENT", "2014-02-11T11:16", 42], ["CDISCPILOT01", "LB", "01-701-1097", 161, "URATE", "Urate", "CHEMISTRY", "5.1", "mg/dL", "2.5", "7.5", "303.348", 303, "umol/L", 149, 446, "NORMAL", "", 8.0, "WEEK 8", 56, "TREATMENT", "2014-02-26T11:10", 57], ["CDISCPILOT01", "LB", "01-701-1097", 195, "URATE", "Urate", "CHEMISTRY", "5.1", "mg/dL", "2.5", "7.5", "303.348", 303, "umol/L", 149, 446, "NORMAL", "", 9.0, "WEEK 12", 84, "TREATMENT", "2014-03-26T08:55", 85], ["CDISCPILOT01", "LB", "01-701-1097", 226, "URATE", "Urate", "CHEMISTRY", "4.1", "mg/dL", "2.5", "7.5", "243.868", 243, "umol/L", 149, 446, "NORMAL", "", 10.0, "WEEK 16", 112, "TREATMENT", "2014-04-23T11:14", 113], ["CDISCPILOT01", "LB", "01-701-1097", 256, "URATE", "Urate", "CHEMISTRY", "4.4", "mg/dL", "2.5", "7.5", "261.712", 261, "umol/L", 149, 446, "NORMAL", "", 11.0, "WEEK 20", 140, "TREATMENT", "2014-05-21T15:06", 141], ["CDISCPILOT01", "LB", "01-701-1097", 290, "URATE", "Urate", "CHEMISTRY", "4.6", "mg/dL", "2.5", "7.5", "273.608", 273, "umol/L", 149, 446, "NORMAL", "", 12.0, "WEEK 24", 168, "TREATMENT", "2014-06-18T10:41", 169], ["CDISCPILOT01", "LB", "01-701-1097", 325, "URATE", "Urate", "CHEMISTRY", "4.6", "mg/dL", "2.5", "7.5", "273.608", 273, "umol/L", 149, 446, "NORMAL", "", 13.0, "WEEK 26", 182, "TREATMENT", "2014-07-09T09:39", 190], ["CDISCPILOT01", "LB", "01-701-1111", 1, "ALB", "Albumin", "CHEMISTRY", "3.6", "g/dL", "3.5", "4.6", "36", 36, "g/L", 35, 46, "NORMAL", "Y", 1.0, "SCREENING 1", -7, "SCREENING", "2012-08-25T15:25", -13], ["CDISCPILOT01", "LB", "01-701-1111", 38, "ALB", "Albumin", "CHEMISTRY", "3.8", "g/dL", "3.5", "4.6", "38", 38, "g/L", 35, 46, "NORMAL", "", 4.0, "WEEK 2", 14, "TREATMENT", "2012-09-17T11:48", 11], ["CDISCPILOT01", "LB", "01-701-1111", 2, "ALP", "Alkaline Phosphatase", "CHEMISTRY", "64", "U/L", "35", "115", "64", 64, "U/L", 35, 115, "NORMAL", "Y", 1.0, "SCREENING 1", -7, "SCREENING", "2012-08-25T15:25", -13], ["CDISCPILOT01", "LB", "01-701-1111", 39, "ALP", "Alkaline Phosphatase", "CHEMISTRY", "58", "U/L", "35", "115", "58", 58, "U/L", 35, 115, "NORMAL", "", 4.0, "WEEK 2", 14, "TREATMENT", "2012-09-17T11:48", 11], ["CDISCPILOT01", "LB", "01-701-1111", 3, "ALT", "Alanine Aminotransferase", "CHEMISTRY", "23", "U/L", "6", "32", "23", 23, "U/L", 6, 32, "NORMAL", "Y", 1.0, "SCREENING 1", -7, "SCREENING", "2012-08-25T15:25", -13], ["CDISCPILOT01", "LB", "01-701-1111", 40, "ALT", "Alanine Aminotransferase", "CHEMISTRY", "19", "U/L", "6", "32", "19", 19, "U/L", 6, 32, "NORMAL", "", 4.0, "WEEK 2", 14, "TREATMENT", "2012-09-17T11:48", 11], ["CDISCPILOT01", "LB", "01-701-1111", 4, "AST", "Aspartate Aminotransferase", "CHEMISTRY", "28", "U/L", "9", "34", "28", 28, "U/L", 9, 34, "NORMAL", "Y", 1.0, "SCREENING 1", -7, "SCREENING", "2012-08-25T15:25", -13], ["CDISCPILOT01", "LB", "01-701-1111", 42, "AST", "Aspartate Aminotransferase", "CHEMISTRY", "23", "U/L", "9", "34", "23", 23, "U/L", 9, 34, "NORMAL", "", 4.0, "WEEK 2", 14, "TREATMENT", "2012-09-17T11:48", 11], ["CDISCPILOT01", "LB", "01-701-1111", 6, "BILI", "Bilirubin", "CHEMISTRY", "0.4", "mg/dL", "0.2", "1.2", "6.84", 6, "umol/L", 3, 21, "NORMAL", "Y", 1.0, "SCREENING 1", -7, "SCREENING", "2012-08-25T15:25", -13], ["CDISCPILOT01", "LB", "01-701-1111", 44, "BILI", "Bilirubin", "CHEMISTRY", "0.5", "mg/dL", "0.2", "1.2", "8.55", 8, "umol/L", 3, 21, "NORMAL", "", 4.0, "WEEK 2", 14, "TREATMENT", "2012-09-17T11:48", 11], ["CDISCPILOT01", "LB", "01-701-1111", 7, "UREAN", "Urea Nitrogen", "CHEMISTRY", "7", "mg/dL", "4", "24", "2.499", 2, "mmol/L", 1, 8, "NORMAL", "Y", 1.0, "SCREENING 1", -7, "SCREENING", "2012-08-25T15:25", -13], ["CDISCPILOT01", "LB", "01-701-1111", 45, "UREAN", "Urea Nitrogen", "CHEMISTRY", "11", "mg/dL", "4", "24", "3.927", 3, "mmol/L", 1, 8, "NORMAL", "", 4.0, "WEEK 2", 14, "TREATMENT", "2012-09-17T11:48", 11], ["CDISCPILOT01", "LB", "01-701-1111", 8, "CA", "Calcium", "CHEMISTRY", "8.9", "mg/dL", "8.4", "10.3", "2.22055", 2, "mmol/L", 2, 2, "NORMAL", "Y", 1.0, "SCREENING 1", -7, "SCREENING", "2012-08-25T15:25", -13], ["CDISCPILOT01", "LB", "01-701-1111", 46, "CA", "Calcium", "CHEMISTRY", "9.2", "mg/dL", "8.4", "10.3", "2.2954", 2, "mmol/L", 2, 2, "NORMAL", "", 4.0, "WEEK 2", 14, "TREATMENT", "2012-09-17T11:48", 11], ["CDISCPILOT01", "LB", "01-701-1111", 9, "CHOL", "Cholesterol", "CHEMISTRY", "221", "mg/dL", "156", "300", "5.71506", 5, "mmol/L", 4, 7, "NORMAL", "Y", 1.0, "SCREENING 1", -7, "SCREENING", "2012-08-25T15:25", -13], ["CDISCPILOT01", "LB", "01-701-1111", 47, "CHOL", "Cholesterol", "CHEMISTRY", "211", "mg/dL", "156", "300", "5.45646", 5, "mmol/L", 4, 7, "NORMAL", "", 4.0, "WEEK 2", 14, "TREATMENT", "2012-09-17T11:48", 11], ["CDISCPILOT01", "LB", "01-701-1111", 10, "CK", "Creatine Kinase", "CHEMISTRY", "60", "U/L", "21", "169", "60", 60, "U/L", 21, 169, "NORMAL", "Y", 1.0, "SCREENING 1", -7, "SCREENING", "2012-08-25T15:25", -13], ["CDISCPILOT01", "LB", "01-701-1111", 48, "CK", "Creatine Kinase", "CHEMISTRY", "72", "U/L", "21", "169", "72", 72, "U/L", 21, 169, "NORMAL", "", 4.0, "WEEK 2", 14, "TREATMENT", "2012-09-17T11:48", 11], ["CDISCPILOT01", "LB", "01-701-1111", 11, "CL", "Chloride", "CHEMISTRY", "105", "mEq/L", "94", "112", "105", 105, "mmol/L", 94, 112, "NORMAL", "Y", 1.0, "SCREENING 1", -7, "SCREENING", "2012-08-25T15:25", -13], ["CDISCPILOT01", "LB", "01-701-1111", 49, "CL", "Chloride", "CHEMISTRY", "105", "mEq/L", "94", "112", "105", 105, "mmol/L", 94, 112, "NORMAL", "", 4.0, "WEEK 2", 14, "TREATMENT", "2012-09-17T11:48", 11], ["CDISCPILOT01", "LB", "01-701-1111", 13, "CREAT", "Creatinine", "CHEMISTRY", "0.9", "mg/dL", "0.7", "1.4", "79.56", 79, "umol/L", 62, 124, "NORMAL", "Y", 1.0, "SCREENING 1", -7, "SCREENING", "2012-08-25T15:25", -13], ["CDISCPILOT01", "LB", "01-701-1111", 51, "CREAT", "Creatinine", "CHEMISTRY", "1.0", "mg/dL", "0.7", "1.4", "88.4", 88, "umol/L", 62, 124, "NORMAL", "", 4.0, "WEEK 2", 14, "TREATMENT", "2012-09-17T11:48", 11], ["CDISCPILOT01", "LB", "01-701-1111", 15, "GGT", "Gamma Glutamyl Transferase", "CHEMISTRY", "10", "U/L", "5", "50", "10", 10, "U/L", 5, 50, "NORMAL", "Y", 1.0, "SCREENING 1", -7, "SCREENING", "2012-08-25T15:25", -13], ["CDISCPILOT01", "LB", "01-701-1111", 53, "GGT", "Gamma Glutamyl Transferase", "CHEMISTRY", "10", "U/L", "5", "50", "10", 10, "U/L", 5, 50, "NORMAL", "", 4.0, "WEEK 2", 14, "TREATMENT", "2012-09-17T11:48", 11], ["CDISCPILOT01", "LB", "01-701-1111", 16, "GLUC", "Glucose", "CHEMISTRY", "96", "mg/dL", "50", "250", "5.32896", 5, "mmol/L", 2, 13, "NORMAL", "Y", 1.0, "SCREENING 1", -7, "SCREENING", "2012-08-25T15:25", -13], ["CDISCPILOT01", "LB", "01-701-1111", 54, "GLUC", "Glucose", "CHEMISTRY", "96", "mg/dL", "50", "250", "5.32896", 5, "mmol/L", 2, 13, "NORMAL", "", 4.0, "WEEK 2", 14, "TREATMENT", "2012-09-17T11:48", 11], ["CDISCPILOT01", "LB", "01-701-1111", 19, "K", "Potassium", "CHEMISTRY", "3.9", "mEq/L", "3.4", "5.4", "3.9", 3, "mmol/L", 3, 5, "NORMAL", "Y", 1.0, "SCREENING 1", -7, "SCREENING", "2012-08-25T15:25", -13], ["CDISCPILOT01", "LB", "01-701-1111", 57, "K", "Potassium", "CHEMISTRY", "4.7", "mEq/L", "3.4", "5.4", "4.7", 4, "mmol/L", 3, 5, "NORMAL", "", 4.0, "WEEK 2", 14, "TREATMENT", "2012-09-17T11:48", 11], ["CDISCPILOT01", "LB", "01-701-1111", 26, "SODIUM", "Sodium", "CHEMISTRY", "137", "mEq/L", "135", "145", "137", 137, "mmol/L", 135, 145, "NORMAL", "Y", 1.0, "SCREENING 1", -7, "SCREENING", "2012-08-25T15:25", -13], ["CDISCPILOT01", "LB", "01-701-1111", 64, "SODIUM", "Sodium", "CHEMISTRY", "138", "mEq/L", "135", "145", "138", 138, "mmol/L", 135, 145, "NORMAL", "", 4.0, "WEEK 2", 14, "TREATMENT", "2012-09-17T11:48", 11], ["CDISCPILOT01", "LB", "01-701-1111", 28, "PHOS", "Phosphate", "CHEMISTRY", "3.1", "mg/dL", "2.2", "5.1", "1.00099", 1, "mmol/L", 0, 1, "NORMAL", "Y", 1.0, "SCREENING 1", -7, "SCREENING", "2012-08-25T15:25", -13], ["CDISCPILOT01", "LB", "01-701-1111", 66, "PHOS", "Phosphate", "CHEMISTRY", "3.3", "mg/dL", "2.2", "5.1", "1.06557", 1, "mmol/L", 0, 1, "NORMAL", "", 4.0, "WEEK 2", 14, "TREATMENT", "2012-09-17T11:48", 11], ["CDISCPILOT01", "LB", "01-701-1111", 30, "PROT", "Protein", "CHEMISTRY", "7.2", "g/dL", "6", "8", "72", 72, "g/L", 60, 80, "NORMAL", "Y", 1.0, "SCREENING 1", -7, "SCREENING", "2012-08-25T15:25", -13], ["CDISCPILOT01", "LB", "01-701-1111", 68, "PROT", "Protein", "CHEMISTRY", "7.3", "g/dL", "6", "8", "73", 73, "g/L", 60, 80, "NORMAL", "", 4.0, "WEEK 2", 14, "TREATMENT", "2012-09-17T11:48", 11], ["CDISCPILOT01", "LB", "01-701-1111", 34, "URATE", "Urate", "CHEMISTRY", "3.2", "mg/dL", "2.5", "7.5", "190.336", 190, "umol/L", 149, 446, "NORMAL", "Y", 1.0, "SCREENING 1", -7, "SCREENING", "2012-08-25T15:25", -13], ["CDISCPILOT01", "LB", "01-701-1111", 71, "URATE", "Urate", "CHEMISTRY", "3.8", "mg/dL", "2.5", "7.5", "226.024", 226, "umol/L", 149, 446, "NORMAL", "", 4.0, "WEEK 2", 14, "TREATMENT", "2012-09-17T11:48", 11], ["CDISCPILOT01", "LB", "01-701-1115", 1, "ALB", "Albumin", "CHEMISTRY", "3.9", "g/dL", "3.5", "4.6", "39", 39, "g/L", 35, 46, "NORMAL", "Y", 1.0, "SCREENING 1", -7, "SCREENING", "2012-11-23T11:20", -7], ["CDISCPILOT01", "LB", "01-701-1115", 38, "ALB", "Albumin", "CHEMISTRY", "3.6", "g/dL", "3.5", "4.6", "36", 36, "g/L", 35, 46, "NORMAL", "", 4.0, "WEEK 2", 14, "TREATMENT", "2012-12-13T14:05", 14], ["CDISCPILOT01", "LB", "01-701-1115", 73, "ALB", "Albumin", "CHEMISTRY", "3.5", "g/dL", "3.5", "4.6", "35", 35, "g/L", 35, 46, "NORMAL", "", 5.0, "WEEK 4", 28, "TREATMENT", "2012-12-26T08:44", 27], ["CDISCPILOT01", "LB", "01-701-1115", 103, "ALB", "Albumin", "CHEMISTRY", "3.7", "g/dL", "3.5", "4.6", "37", 37, "g/L", 35, 46, "NORMAL", "", 5.1, "UNSCHEDULED 5.1", null, "TREATMENT", "2012-12-28T09:27", 29], ["CDISCPILOT01", "LB", "01-701-1115", 118, "ALB", "Albumin", "CHEMISTRY", "3.7", "g/dL", "3.5", "4.6", "37", 37, "g/L", 35, 46, "NORMAL", "", 7.0, "WEEK 6", 42, "TREATMENT", "2013-01-10T15:20", 42], ["CDISCPILOT01", "LB", "01-701-1115", 148, "ALB", "Albumin", "CHEMISTRY", "3.9", "g/dL", "3.5", "4.6", "39", 39, "g/L", 35, 46, "NORMAL", "", 8.0, "WEEK 8", 56, "TREATMENT", "2013-01-23T12:13", 55], ["CDISCPILOT01", "LB", "01-701-1115", 2, "ALP", "Alkaline Phosphatase", "CHEMISTRY", "93", "U/L", "35", "115", "93", 93, "U/L", 35, 115, "NORMAL", "Y", 1.0, "SCREENING 1", -7, "SCREENING", "2012-11-23T11:20", -7], ["CDISCPILOT01", "LB", "01-701-1115", 39, "ALP", "Alkaline Phosphatase", "CHEMISTRY", "88", "U/L", "35", "115", "88", 88, "U/L", 35, 115, "NORMAL", "", 4.0, "WEEK 2", 14, "TREATMENT", "2012-12-13T14:05", 14], ["CDISCPILOT01", "LB", "01-701-1115", 74, "ALP", "Alkaline Phosphatase", "CHEMISTRY