{"datasetJSONCreationDateTime": "2025-10-13T16:28:58", "datasetJSONVersion": "1.1.0", "fileOID": "UpdatedCDISCPILOT.CDISC SDTM.3.2.LBHE", "studyOID": "UpdatedCDISCPILOT.CDISC SDTM.3.2", "metaDataVersionOID": "MDV.UpdatedCDISCPILOT.CDISC SDTM.3.2", "itemGroupOID": "{LBHE", "records": 21927, "name": "LBHE", "label": "Laboratory Tests Results", "columns": [{"itemOID": "IT.LBHE.STUDYID", "name": "STUDYID", "label": "Study Identifier", "dataType": "string", "length": 12, "keySequence": 1}, {"itemOID": "IT.LBHE.DOMAIN", "name": "DOMAIN", "label": "Domain Abbreviation", "dataType": "string", "length": 2}, {"itemOID": "IT.LBHE.USUBJID", "name": "USUBJID", "label": "Unique Subject Identifier", "dataType": "string", "length": 11, "keySequence": 2}, {"itemOID": "IT.LBHE.LBSEQ", "name": "LBSEQ", "label": "Sequence Number", "dataType": "integer", "length": 8}, {"itemOID": "IT.LBHE.LBTESTCD", "name": "LBTESTCD", "label": "Lab Test or Examination Short Name", "dataType": "string", "length": 7, "keySequence": 3}, {"itemOID": "IT.LBHE.LBTEST", "name": "LBTEST", "label": "Lab Test or Examination Name", "dataType": "string", "length": 200}, {"itemOID": "IT.LBHE.LBCAT", "name": "LBCAT", "label": "Category for Lab Test", "dataType": "string", "length": 10}, {"itemOID": "IT.LBHE.LBORRES", "name": "LBORRES", "label": "Result or Finding in Original Units", "dataType": "string", "length": 5}, {"itemOID": "IT.LBHE.LBORRESU", "name": "LBORRESU", "label": "Original Units", "dataType": "string", "length": 8}, {"itemOID": "IT.LBHE.LBORNRLO", "name": "LBORNRLO", "label": "Reference Range Lower Limit in Orig Unit", "dataType": "string", "length": 5}, {"itemOID": "IT.LBHE.LBORNRHI", "name": "LBORNRHI", "label": "Reference Range Upper Limit in Orig Unit", "dataType": "string", "length": 7}, {"itemOID": "IT.LBHE.LBSTRESC", "name": "LBSTRESC", "label": "Character Result/Finding in Std Format", "dataType": "string", "length": 8}, {"itemOID": "IT.LBHE.LBSTRESN", "name": "LBSTRESN", "label": "Numeric Result/Finding in Standard Units", "dataType": "integer", "length": 8}, {"itemOID": "IT.LBHE.LBSTRESU", "name": "LBSTRESU", "label": "Standard Units", "dataType": "string", "length": 8}, {"itemOID": "IT.LBHE.LBSTNRLO", "name": "LBSTNRLO", "label": "Reference Range Lower Limit-Std Units", "dataType": "integer", "length": 8}, {"itemOID": "IT.LBHE.LBSTNRHI", "name": "LBSTNRHI", "label": "Reference Range Upper Limit-Std Units", "dataType": "integer", "length": 8}, {"itemOID": "IT.LBHE.LBNRIND", "name": "LBNRIND", "label": "Reference Range Indicator", "dataType": "string", "length": 200}, {"itemOID": "IT.LBHE.LBBLFL", "name": "LBBLFL", "label": "Baseline Flag", "dataType": "string", "length": 1}, {"itemOID": "IT.LBHE.VISITNUM", "name": "VISITNUM", "label": "Visit Number", "dataType": "double", "length": 8, "keySequence": 4}, {"itemOID": "IT.LBHE.VISIT", "name": "VISIT", "label": "Visit Name", "dataType": "string", "length": 19}, {"itemOID": "IT.LBHE.VISITDY", "name": "VISITDY", "label": "Planned Study Day of Visit", "dataType": "integer", "length": 8}, {"itemOID": "IT.LBHE.EPOCH", "name": "EPOCH", "label": "Epoch", "dataType": "string", "length": 9}, {"itemOID": "IT.LBHE.LBDTC", "name": "LBDTC", "label": "Date/Time of Specimen Collection", "dataType": "string", "length": 16}, {"itemOID": "IT.LBHE.LBDY", "name": "LBDY", "label": "Study Day of Specimen Collection", "dataType": "integer", "length": 8}], "rows": [["CDISCPILOT01", "LB", "01-701-1015", 4, "ANISO", "Anisocytes", "HEMATOLOGY", "1", "", "", "", "1", 1, "", null, null, "ABNORMAL", "Y", 1.0, "SCREENING 1", -7, "SCREENING", "2013-12-26T14:45", -7], ["CDISCPILOT01", "LB", "01-701-1015", 6, "BASO", "Basophils", "HEMATOLOGY", "0.05", "10^9/L", "0", "0.2", "0.05", 0, "10^9/L", 0, 0, "NORMAL", "Y", 1.0, "SCREENING 1", -7, "SCREENING", "2013-12-26T14:45", -7], ["CDISCPILOT01", "LB", "01-701-1015", 43, "BASO", "Basophils", "HEMATOLOGY", "0.03", "10^9/L", "0", "0.2", "0.03", 0, "10^9/L", 0, 0, "NORMAL", "", 4.0, "WEEK 2", 14, "TREATMENT", "2014-01-16T13:17", 15], ["CDISCPILOT01", "LB", "01-701-1015", 78, "BASO", "Basophils", "HEMATOLOGY", "0.02", "10^9/L", "0", "0.2", "0.02", 0, "10^9/L", 0, 0, "NORMAL", "", 5.0, "WEEK 4", 28, "TREATMENT", "2014-01-30T08:50", 29], ["CDISCPILOT01", "LB", "01-701-1015", 108, "BASO", "Basophils", "HEMATOLOGY", "0.04", "10^9/L", "0", "0.2", "0.04", 0, "10^9/L", 0, 0, "NORMAL", "", 7.0, "WEEK 6", 42, "TREATMENT", "2014-02-12T12:56", 42], ["CDISCPILOT01", "LB", "01-701-1015", 138, "BASO", "Basophils", "HEMATOLOGY", "0.05", "10^9/L", "0", "0.2", "0.05", 0, "10^9/L", 0, 0, "NORMAL", "", 8.0, "WEEK 8", 56, "TREATMENT", "2014-03-05T12:25", 63], ["CDISCPILOT01", "LB", "01-701-1015", 168, "BASO", "Basophils", "HEMATOLOGY", "0.04", "10^9/L", "0", "0.2", "0.04", 0, "10^9/L", 0, 0, "NORMAL", "", 9.0, "WEEK 12", 84, "TREATMENT", "2014-03-26T15:15", 84], ["CDISCPILOT01", "LB", "01-701-1015", 203, "BASO", "Basophils", "HEMATOLOGY", "0.03", "10^9/L", "0", "0.2", "0.03", 0, "10^9/L", 0, 0, "NORMAL", "", 10.0, "WEEK 16", 112, "TREATMENT", "2014-05-07T11:21", 126], ["CDISCPILOT01", "LB", "01-701-1015", 233, "BASO", "Basophils", "HEMATOLOGY", "0.03", "10^9/L", "0", "0.2", "0.03", 0, "10^9/L", 0, 0, "NORMAL", "", 11.0, "WEEK 20", 140, "TREATMENT", "2014-05-21T10:58", 140], ["CDISCPILOT01", "LB", "01-701-1015", 263, "BASO", "Basophils", "HEMATOLOGY", "0.04", "10^9/L", "0", "0.2", "0.04", 0, "10^9/L", 0, 0, "NORMAL", "", 12.0, "WEEK 24", 168, "TREATMENT", "2014-06-18T13:00", 168], ["CDISCPILOT01", "LB", "01-701-1015", 298, "BASO", "Basophils", "HEMATOLOGY", "0.03", "10^9/L", "0", "0.2", "0.03", 0, "10^9/L", 0, 0, "NORMAL", "", 13.0, "WEEK 26", 182, "TREATMENT", "2014-07-02T11:45", 182], ["CDISCPILOT01", "LB", "01-701-1015", 15, "EOS", "Eosinophils", "HEMATOLOGY", "0.13", "10^9/L", "0", "0.57", "0.13", 0, "10^9/L", 0, 0, "NORMAL", "Y", 1.0, "SCREENING 1", -7, "SCREENING", "2013-12-26T14:45", -7], ["CDISCPILOT01", "LB", "01-701-1015", 52, "EOS", "Eosinophils", "HEMATOLOGY", "0.08", "10^9/L", "0", "0.57", "0.08", 0, "10^9/L", 0, 0, "NORMAL", "", 4.0, "WEEK 2", 14, "TREATMENT", "2014-01-16T13:17", 15], ["CDISCPILOT01", "LB", "01-701-1015", 86, "EOS", "Eosinophils", "HEMATOLOGY", "0.08", "10^9/L", "0", "0.57", "0.08", 0, "10^9/L", 0, 0, "NORMAL", "", 5.0, "WEEK 4", 28, "TREATMENT", "2014-01-30T08:50", 29], ["CDISCPILOT01", "LB", "01-701-1015", 116, "EOS", "Eosinophils", "HEMATOLOGY", "0.08", "10^9/L", "0", "0.57", "0.08", 0, "10^9/L", 0, 0, "NORMAL", "", 7.0, "WEEK 6", 42, "TREATMENT", "2014-02-12T12:56", 42], ["CDISCPILOT01", "LB", "01-701-1015", 146, "EOS", "Eosinophils", "HEMATOLOGY", "0.09", "10^9/L", "0", "0.57", "0.09", 0, "10^9/L", 0, 0, "NORMAL", "", 8.0, "WEEK 8", 56, "TREATMENT", "2014-03-05T12:25", 63], ["CDISCPILOT01", "LB", "01-701-1015", 177, "EOS", "Eosinophils", "HEMATOLOGY", "0.13", "10^9/L", "0", "0.57", "0.13", 0, "10^9/L", 0, 0, "NORMAL", "", 9.0, "WEEK 12", 84, "TREATMENT", "2014-03-26T15:15", 84], ["CDISCPILOT01", "LB", "01-701-1015", 211, "EOS", "Eosinophils", "HEMATOLOGY", "0.09", "10^9/L", "0", "0.57", "0.09", 0, "10^9/L", 0, 0, "NORMAL", "", 10.0, "WEEK 16", 112, "TREATMENT", "2014-05-07T11:21", 126], ["CDISCPILOT01", "LB", "01-701-1015", 241, "EOS", "Eosinophils", "HEMATOLOGY", "0.06", "10^9/L", "0", "0.57", "0.06", 0, "10^9/L", 0, 0, "NORMAL", "", 11.0, "WEEK 20", 140, "TREATMENT", "2014-05-21T10:58", 140], ["CDISCPILOT01", "LB", "01-701-1015", 272, "EOS", "Eosinophils", "HEMATOLOGY", "0.09", "10^9/L", "0", "0.57", "0.09", 0, "10^9/L", 0, 0, "NORMAL", "", 12.0, "WEEK 24", 168, "TREATMENT", "2014-06-18T13:00", 168], ["CDISCPILOT01", "LB", "01-701-1015", 306, "EOS", "Eosinophils", "HEMATOLOGY", "0.07", "10^9/L", "0", "0.57", "0.07", 0, "10^9/L", 0, 0, "NORMAL", "", 13.0, "WEEK 26", 182, "TREATMENT", "2014-07-02T11:45", 182], ["CDISCPILOT01", "LB", "01-701-1015", 18, "HCT", "Hematocrit", "HEMATOLOGY", "42.0", "%", "34", "48", "0.42", 0, "", 0, 0, "NORMAL", "Y", 1.0, "SCREENING 1", -7, "SCREENING", "2013-12-26T14:45", -7], ["CDISCPILOT01", "LB", "01-701-1015", 55, "HCT", "Hematocrit", "HEMATOLOGY", "43.0", "%", "34", "48", "0.43", 0, "", 0, 0, "NORMAL", "", 4.0, "WEEK 2", 14, "TREATMENT", "2014-01-16T13:17", 15], ["CDISCPILOT01", "LB", "01-701-1015", 89, "HCT", "Hematocrit", "HEMATOLOGY", "39.0", "%", "34", "48", "0.39", 0, "", 0, 0, "NORMAL", "", 5.0, "WEEK 4", 28, "TREATMENT", "2014-01-30T08:50", 29], ["CDISCPILOT01", "LB", "01-701-1015", 119, "HCT", "Hematocrit", "HEMATOLOGY", "40.0", "%", "34", "48", "0.4", 0, "", 0, 0, "NORMAL", "", 7.0, "WEEK 6", 42, "TREATMENT", "2014-02-12T12:56", 42], ["CDISCPILOT01", "LB", "01-701-1015", 149, "HCT", "Hematocrit", "HEMATOLOGY", "42.0", "%", "34", "48", "0.42", 0, "", 0, 0, "NORMAL", "", 8.0, "WEEK 8", 56, "TREATMENT", "2014-03-05T12:25", 63], ["CDISCPILOT01", "LB", "01-701-1015", 180, "HCT", "Hematocrit", "HEMATOLOGY", "41.0", "%", "34", "48", "0.41", 0, "", 0, 0, "NORMAL", "", 9.0, "WEEK 12", 84, "TREATMENT", "2014-03-26T15:15", 84], ["CDISCPILOT01", "LB", "01-701-1015", 214, "HCT", "Hematocrit", "HEMATOLOGY", "41.0", "%", "34", "48", "0.41", 0, "", 0, 0, "NORMAL", "", 10.0, "WEEK 16", 112, "TREATMENT", "2014-05-07T11:21", 126], ["CDISCPILOT01", "LB", "01-701-1015", 244, "HCT", "Hematocrit", "HEMATOLOGY", "40.0", "%", "34", "48", "0.4", 0, "", 0, 0, "NORMAL", "", 11.0, "WEEK 20", 140, "TREATMENT", "2014-05-21T10:58", 140], ["CDISCPILOT01", "LB", "01-701-1015", 275, "HCT", "Hematocrit", "HEMATOLOGY", "44.0", "%", "34", "48", "0.44", 0, "", 0, 0, "NORMAL", "", 12.0, "WEEK 24", 168, "TREATMENT", "2014-06-18T13:00", 168], ["CDISCPILOT01", "LB", "01-701-1015", 309, "HCT", "Hematocrit", "HEMATOLOGY", "45.0", "%", "34", "48", "0.45", 0, "", 0, 0, "NORMAL", "", 13.0, "WEEK 26", 182, "TREATMENT", "2014-07-02T11:45", 182], ["CDISCPILOT01", "LB", "01-701-1015", 19, "HGB", "Hemoglobin", "HEMATOLOGY", "14.3", "g/dL", "11.5", "15.8", "8.87458", 8, "mmol/L", 7, 9, "NORMAL", "Y", 1.0, "SCREENING 1", -7, "SCREENING", "2013-12-26T14:45", -7], ["CDISCPILOT01", "LB", "01-701-1015", 56, "HGB", "Hemoglobin", "HEMATOLOGY", "14.3", "g/dL", "11.5", "15.8", "8.87458", 8, "mmol/L", 7, 9, "NORMAL", "", 4.0, "WEEK 2", 14, "TREATMENT", "2014-01-16T13:17", 15], ["CDISCPILOT01", "LB", "01-701-1015", 90, "HGB", "Hemoglobin", "HEMATOLOGY", "13.4", "g/dL", "11.5", "15.8", "8.31604", 8, "mmol/L", 7, 9, "NORMAL", "", 5.0, "WEEK 4", 28, "TREATMENT", "2014-01-30T08:50", 29], ["CDISCPILOT01", "LB", "01-701-1015", 120, "HGB", "Hemoglobin", "HEMATOLOGY", "13.8", "g/dL", "11.5", "15.8", "8.56428", 8, "mmol/L", 7, 9, "NORMAL", "", 7.0, "WEEK 6", 42, "TREATMENT", "2014-02-12T12:56", 42], ["CDISCPILOT01", "LB", "01-701-1015", 150, "HGB", "Hemoglobin", "HEMATOLOGY", "14.0", "g/dL", "11.5", "15.8", "8.6884", 8, "mmol/L", 7, 9, "NORMAL", "", 8.0, "WEEK 8", 56, "TREATMENT", "2014-03-05T12:25", 63], ["CDISCPILOT01", "LB", "01-701-1015", 181, "HGB", "Hemoglobin", "HEMATOLOGY", "13.4", "g/dL", "11.5", "15.8", "8.31604", 8, "mmol/L", 7, 9, "NORMAL", "", 9.0, "WEEK 12", 84, "TREATMENT", "2014-03-26T15:15", 84], ["CDISCPILOT01", "LB", "01-701-1015", 215, "HGB", "Hemoglobin", "HEMATOLOGY", "14.1", "g/dL", "11.5", "15.8", "8.75046", 8, "mmol/L", 7, 9, "NORMAL", "", 10.0, "WEEK 16", 112, "TREATMENT", "2014-05-07T11:21", 126], ["CDISCPILOT01", "LB", "01-701-1015", 245, "HGB", "Hemoglobin", "HEMATOLOGY", "13.7", "g/dL", "11.5", "15.8", "8.50222", 8, "mmol/L", 7, 9, "NORMAL", "", 11.0, "WEEK 20", 140, "TREATMENT", "2014-05-21T10:58", 140], ["CDISCPILOT01", "LB", "01-701-1015", 276, "HGB", "Hemoglobin", "HEMATOLOGY", "14.0", "g/dL", "11.5", "15.8", "8.6884", 8, "mmol/L", 7, 9, "NORMAL", "", 12.0, "WEEK 24", 168, "TREATMENT", "2014-06-18T13:00", 168], ["CDISCPILOT01", "LB", "01-701-1015", 310, "HGB", "Hemoglobin", "HEMATOLOGY", "14.3", "g/dL", "11.5", "15.8", "8.87458", 8, "mmol/L", 7, 9, "NORMAL", "", 13.0, "WEEK 26", 182, "TREATMENT", "2014-07-02T11:45", 182], ["CDISCPILOT01", "LB", "01-701-1015", 22, "LYM", "Lymphocytes", "HEMATOLOGY", "2.11", "10^9/L", "0.8", "3", "2.11", 2, "10^9/L", 0, 3, "NORMAL", "Y", 1.0, "SCREENING 1", -7, "SCREENING", "2013-12-26T14:45", -7], ["CDISCPILOT01", "LB", "01-701-1015", 59, "LYM", "Lymphocytes", "HEMATOLOGY", "1.98", "10^9/L", "0.8", "3", "1.98", 1, "10^9/L", 0, 3, "NORMAL", "", 4.0, "WEEK 2", 14, "TREATMENT", "2014-01-16T13:17", 15], ["CDISCPILOT01", "LB", "01-701-1015", 92, "LYM", "Lymphocytes", "HEMATOLOGY", "1.93", "10^9/L", "0.8", "3", "1.93", 1, "10^9/L", 0, 3, "NORMAL", "", 5.0, "WEEK 4", 28, "TREATMENT", "2014-01-30T08:50", 29], ["CDISCPILOT01", "LB", "01-701-1015", 122, "LYM", "Lymphocytes", "HEMATOLOGY", "1.51", "10^9/L", "0.8", "3", "1.51", 1, "10^9/L", 0, 3, "NORMAL", "", 7.0, "WEEK 6", 42, "TREATMENT", "2014-02-12T12:56", 42], ["CDISCPILOT01", "LB", "01-701-1015", 152, "LYM", "Lymphocytes", "HEMATOLOGY", "1.97", "10^9/L", "0.8", "3", "1.97", 1, "10^9/L", 0, 3, "NORMAL", "", 8.0, "WEEK 8", 56, "TREATMENT", "2014-03-05T12:25", 63], ["CDISCPILOT01", "LB", "01-701-1015", 184, "LYM", "Lymphocytes", "HEMATOLOGY", "2.09", "10^9/L", "0.8", "3", "2.09", 2, "10^9/L", 0, 3, "NORMAL", "", 9.0, "WEEK 12", 84, "TREATMENT", "2014-03-26T15:15", 84], ["CDISCPILOT01", "LB", "01-701-1015", 217, "LYM", "Lymphocytes", "HEMATOLOGY", "2.02", "10^9/L", "0.8", "3", "2.02", 2, "10^9/L", 0, 3, "NORMAL", "", 10.0, "WEEK 16", 112, "TREATMENT", "2014-05-07T11:21", 126], ["CDISCPILOT01", "LB", "01-701-1015", 247, "LYM", "Lymphocytes", "HEMATOLOGY", "1.78", "10^9/L", "0.8", "3", "1.78", 1, "10^9/L", 0, 3, "NORMAL", "", 11.0, "WEEK 20", 140, "TREATMENT", "2014-05-21T10:58", 140], ["CDISCPILOT01", "LB", "01-701-1015", 279, "LYM", "Lymphocytes", "HEMATOLOGY", "2.55", "10^9/L", "0.8", "3", "2.55", 2, "10^9/L", 0, 3, "NORMAL", "", 12.0, "WEEK 24", 168, "TREATMENT", "2014-06-18T13:00", 168], ["CDISCPILOT01", "LB", "01-701-1015", 312, "LYM", "Lymphocytes", "HEMATOLOGY", "2.03", "10^9/L", "0.8", "3", "2.03", 2, "10^9/L", 0, 3, "NORMAL", "", 13.0, "WEEK 26", 182, "TREATMENT", "2014-07-02T11:45", 182], ["CDISCPILOT01", "LB", "01-701-1015", 23, "MCH", "Ery. Mean Corpuscular Hemoglobin", "HEMATOLOGY", "27", "pg", "26", "34", "1.67562", 1, "fmol", 1, 2, "NORMAL", "Y", 1.0, "SCREENING 1", -7, "SCREENING", "2013-12-26T14:45", -7], ["CDISCPILOT01", "LB", "01-701-1015", 60, "MCH", "Ery. Mean Corpuscular Hemoglobin", "HEMATOLOGY", "27", "pg", "26", "34", "1.67562", 1, "fmol", 1, 2, "NORMAL", "", 4.0, "WEEK 2", 14, "TREATMENT", "2014-01-16T13:17", 15], ["CDISCPILOT01", "LB", "01-701-1015", 93, "MCH", "Ery. Mean Corpuscular Hemoglobin", "HEMATOLOGY", "27", "pg", "26", "34", "1.67562", 1, "fmol", 1, 2, "NORMAL", "", 5.0, "WEEK 4", 28, "TREATMENT", "2014-01-30T08:50", 29], ["CDISCPILOT01", "LB", "01-701-1015", 123, "MCH", "Ery. Mean Corpuscular Hemoglobin", "HEMATOLOGY", "27", "pg", "26", "34", "1.67562", 1, "fmol", 1, 2, "NORMAL", "", 7.0, "WEEK 6", 42, "TREATMENT", "2014-02-12T12:56", 42], ["CDISCPILOT01", "LB", "01-701-1015", 153, "MCH", "Ery. Mean Corpuscular Hemoglobin", "HEMATOLOGY", "27", "pg", "26", "34", "1.67562", 1, "fmol", 1, 2, "NORMAL", "", 8.0, "WEEK 8", 56, "TREATMENT", "2014-03-05T12:25", 63], ["CDISCPILOT01", "LB", "01-701-1015", 185, "MCH", "Ery. Mean Corpuscular Hemoglobin", "HEMATOLOGY", "27", "pg", "26", "34", "1.67562", 1, "fmol", 1, 2, "NORMAL", "", 9.0, "WEEK 12", 84, "TREATMENT", "2014-03-26T15:15", 84], ["CDISCPILOT01", "LB", "01-701-1015", 218, "MCH", "Ery. Mean Corpuscular Hemoglobin", "HEMATOLOGY", "27", "pg", "26", "34", "1.67562", 1, "fmol", 1, 2, "NORMAL", "", 10.0, "WEEK 16", 112, "TREATMENT", "2014-05-07T11:21", 126], ["CDISCPILOT01", "LB", "01-701-1015", 248, "MCH", "Ery. Mean Corpuscular Hemoglobin", "HEMATOLOGY", "28", "pg", "26", "34", "1.73768", 1, "fmol", 1, 2, "NORMAL", "", 11.0, "WEEK 20", 140, "TREATMENT", "2014-05-21T10:58", 140], ["CDISCPILOT01", "LB", "01-701-1015", 280, "MCH", "Ery. Mean Corpuscular Hemoglobin", "HEMATOLOGY", "27", "pg", "26", "34", "1.67562", 1, "fmol", 1, 2, "NORMAL", "", 12.0, "WEEK 24", 168, "TREATMENT", "2014-06-18T13:00", 168], ["CDISCPILOT01", "LB", "01-701-1015", 313, "MCH", "Ery. Mean Corpuscular Hemoglobin", "HEMATOLOGY", "27", "pg", "26", "34", "1.67562", 1, "fmol", 1, 2, "NORMAL", "", 13.0, "WEEK 26", 182, "TREATMENT", "2014-07-02T11:45", 182], ["CDISCPILOT01", "LB", "01-701-1015", 24, "MCHC", "Ery. Mean Corpuscular HGB Concentration", "HEMATOLOGY", "34", "g/dL", "31", "38", "21.1004", 21, "mmol/L", 19, 24, "NORMAL", "Y", 1.0, "SCREENING 1", -7, "SCREENING", "2013-12-26T14:45", -7], ["CDISCPILOT01", "LB", "01-701-1015", 61, "MCHC", "Ery. Mean Corpuscular HGB Concentration", "HEMATOLOGY", "33", "g/dL", "31", "38", "20.4798", 20, "mmol/L", 19, 24, "NORMAL", "", 4.0, "WEEK 2", 14, "TREATMENT", "2014-01-16T13:17", 15], ["CDISCPILOT01", "LB", "01-701-1015", 94, "MCHC", "Ery. Mean Corpuscular HGB Concentration", "HEMATOLOGY", "34", "g/dL", "31", "38", "21.1004", 21, "mmol/L", 19, 24, "NORMAL", "", 5.0, "WEEK 4", 28, "TREATMENT", "2014-01-30T08:50", 29], ["CDISCPILOT01", "LB", "01-701-1015", 124, "MCHC", "Ery. Mean Corpuscular HGB Concentration", "HEMATOLOGY", "34", "g/dL", "31", "38", "21.1004", 21, "mmol/L", 19, 24, "NORMAL", "", 7.0, "WEEK 6", 42, "TREATMENT", "2014-02-12T12:56", 42], ["CDISCPILOT01", "LB", "01-701-1015", 154, "MCHC", "Ery. Mean Corpuscular HGB Concentration", "HEMATOLOGY", "33", "g/dL", "31", "38", "20.4798", 20, "mmol/L", 19, 24, "NORMAL", "", 8.0, "WEEK 8", 56, "TREATMENT", "2014-03-05T12:25", 63], ["CDISCPILOT01", "LB", "01-701-1015", 186, "MCHC", "Ery. Mean Corpuscular HGB Concentration", "HEMATOLOGY", "33", "g/dL", "31", "38", "20.4798", 20, "mmol/L", 19, 24, "NORMAL", "", 9.0, "WEEK 12", 84, "TREATMENT", "2014-03-26T15:15", 84], ["CDISCPILOT01", "LB", "01-701-1015", 219, "MCHC", "Ery. Mean Corpuscular HGB Concentration", "HEMATOLOGY", "35", "g/dL", "31", "38", "21.721", 21, "mmol/L", 19, 24, "NORMAL", "", 10.0, "WEEK 16", 112, "TREATMENT", "2014-05-07T11:21", 126], ["CDISCPILOT01", "LB", "01-701-1015", 249, "MCHC", "Ery. Mean Corpuscular HGB Concentration", "HEMATOLOGY", "35", "g/dL", "31", "38", "21.721", 21, "mmol/L", 19, 24, "NORMAL", "", 11.0, "WEEK 20", 140, "TREATMENT", "2014-05-21T10:58", 140], ["CDISCPILOT01", "LB", "01-701-1015", 281, "MCHC", "Ery. Mean Corpuscular HGB Concentration", "HEMATOLOGY", "32", "g/dL", "31", "38", "19.8592", 19, "mmol/L", 19, 24, "NORMAL", "", 12.0, "WEEK 24", 168, "TREATMENT", "2014-06-18T13:00", 168], ["CDISCPILOT01", "LB", "01-701-1015", 314, "MCHC", "Ery. Mean Corpuscular HGB Concentration", "HEMATOLOGY", "32", "g/dL", "31", "38", "19.8592", 19, "mmol/L", 19, 24, "NORMAL", "", 13.0, "WEEK 26", 182, "TREATMENT", "2014-07-02T11:45", 182], ["CDISCPILOT01", "LB", "01-701-1015", 25, "MCV", "Ery. Mean Corpuscular Volume", "HEMATOLOGY", "80", "fL", "80", "100", "80", 80, "fL", 80, 100, "NORMAL", "Y", 1.0, "SCREENING 1", -7, "SCREENING", "2013-12-26T14:45", -7], ["CDISCPILOT01", "LB", "01-701-1015", 62, "MCV", "Ery. Mean Corpuscular Volume", "HEMATOLOGY", "81", "fL", "80", "100", "81", 81, "fL", 80, 100, "NORMAL", "", 4.0, "WEEK 2", 14, "TREATMENT", "2014-01-16T13:17", 15], ["CDISCPILOT01", "LB", "01-701-1015", 95, "MCV", "Ery. Mean Corpuscular Volume", "HEMATOLOGY", "78", "fL", "80", "100", "78", 78, "fL", 80, 100, "LOW", "", 5.0, "WEEK 4", 28, "TREATMENT", "2014-01-30T08:50", 29], ["CDISCPILOT01", "LB", "01-701-1015", 125, "MCV", "Ery. Mean Corpuscular Volume", "HEMATOLOGY", "80", "fL", "80", "100", "80", 80, "fL", 80, 100, "NORMAL", "", 7.0, "WEEK 6", 42, "TREATMENT", "2014-02-12T12:56", 42], ["CDISCPILOT01", "LB", "01-701-1015", 155, "MCV", "Ery. Mean Corpuscular Volume", "HEMATOLOGY", "83", "fL", "80", "100", "83", 83, "fL", 80, 100, "NORMAL", "", 8.0, "WEEK 8", 56, "TREATMENT", "2014-03-05T12:25", 63], ["CDISCPILOT01", "LB", "01-701-1015", 187, "MCV", "Ery. Mean Corpuscular Volume", "HEMATOLOGY", "81", "fL", "80", "100", "81", 81, "fL", 80, 100, "NORMAL", "", 9.0, "WEEK 12", 84, "TREATMENT", "2014-03-26T15:15", 84], ["CDISCPILOT01", "LB", "01-701-1015", 220, "MCV", "Ery. Mean Corpuscular Volume", "HEMATOLOGY", "79", "fL", "80", "100", "79", 79, "fL", 80, 100, "LOW", "", 10.0, "WEEK 16", 112, "TREATMENT", "2014-05-07T11:21", 126], ["CDISCPILOT01", "LB", "01-701-1015", 250, "MCV", "Ery. Mean Corpuscular Volume", "HEMATOLOGY", "80", "fL", "80", "100", "80", 80, "fL", 80, 100, "NORMAL", "", 11.0, "WEEK 20", 140, "TREATMENT", "2014-05-21T10:58", 140], ["CDISCPILOT01", "LB", "01-701-1015", 282, "MCV", "Ery. Mean Corpuscular Volume", "HEMATOLOGY", "82", "fL", "80", "100", "82", 82, "fL", 80, 100, "NORMAL", "", 12.0, "WEEK 24", 168, "TREATMENT", "2014-06-18T13:00", 168], ["CDISCPILOT01", "LB", "01-701-1015", 315, "MCV", "Ery. Mean Corpuscular Volume", "HEMATOLOGY", "84", "fL", "80", "100", "84", 84, "fL", 80, 100, "NORMAL", "", 13.0, "WEEK 26", 182, "TREATMENT", "2014-07-02T11:45", 182], ["CDISCPILOT01", "LB", "01-701-1015", 26, "MONO", "Monocytes", "HEMATOLOGY", "0.22", "10^9/L", "0.12", "0.92", "0.22", 0, "10^9/L", 0, 0, "NORMAL", "Y", 1.0, "SCREENING 1", -7, "SCREENING", "2013-12-26T14:45", -7], ["CDISCPILOT01", "LB", "01-701-1015", 63, "MONO", "Monocytes", "HEMATOLOGY", "0.26", "10^9/L", "0.12", "0.92", "0.26", 0, "10^9/L", 0, 0, "NORMAL", "", 4.0, "WEEK 2", 14, "TREATMENT", "2014-01-16T13:17", 15], ["CDISCPILOT01", "LB", "01-701-1015", 96, "MONO", "Monocytes", "HEMATOLOGY", "0.23", "10^9/L", "0.12", "0.92", "0.23", 0, "10^9/L", 0, 0, "NORMAL", "", 5.0, "WEEK 4", 28, "TREATMENT", "2014-01-30T08:50", 29], ["CDISCPILOT01", "LB", "01-701-1015", 126, "MONO", "Monocytes", "HEMATOLOGY", "0.28", "10^9/L", "0.12", "0.92", "0.28", 0, "10^9/L", 0, 0, "NORMAL", "", 7.0, "WEEK 6", 42, "TREATMENT", "2014-02-12T12:56", 42], ["CDISCPILOT01", "LB", "01-701-1015", 156, "MONO", "Monocytes", "HEMATOLOGY", "0.24", "10^9/L", "0.12", "0.92", "0.24", 0, "10^9/L", 0, 0, "NORMAL", "", 8.0, "WEEK 8", 56, "TREATMENT", "2014-03-05T12:25", 63], ["CDISCPILOT01", "LB", "01-701-1015", 188, "MONO", "Monocytes", "HEMATOLOGY", "0.24", "10^9/L", "0.12", "0.92", "0.24", 0, "10^9/L", 0, 0, "NORMAL", "", 9.0, "WEEK 12", 84, "TREATMENT", "2014-03-26T15:15", 84], ["CDISCPILOT01", "LB", "01-701-1015", 221, "MONO", "Monocytes", "HEMATOLOGY", "0.33", "10^9/L", "0.12", "0.92", "0.33", 0, "10^9/L", 0, 0, "NORMAL", "", 10.0, "WEEK 16", 112, "TREATMENT", "2014-05-07T11:21", 126], ["CDISCPILOT01", "LB", "01-701-1015", 251, "MONO", "Monocytes", "HEMATOLOGY", "0.28", "10^9/L", "0.12", "0.92", "0.28", 0, "10^9/L", 0, 0, "NORMAL", "", 11.0, "WEEK 20", 140, "TREATMENT", "2014-05-21T10:58", 140], ["CDISCPILOT01", "LB", "01-701-1015", 283, "MONO", "Monocytes", "HEMATOLOGY", "0.31", "10^9/L", "0.12", "0.92", "0.31", 0, "10^9/L", 0, 0, "NORMAL", "", 12.0, "WEEK 24", 168, "TREATMENT", "2014-06-18T13:00", 168], ["CDISCPILOT01", "LB", "01-701-1015", 316, "MONO", "Monocytes", "HEMATOLOGY", "0.31", "10^9/L", "0.12", "0.92", "0.31", 0, "10^9/L", 0, 0, "NORMAL", "", 13.0, "WEEK 26", 182, "TREATMENT", "2014-07-02T11:45", 182], ["CDISCPILOT01", "LB", "01-701-1015", 30, "PLAT", "Platelets", "HEMATOLOGY", "266", "10^9/L", "130", "394", "266", 266, "10^9/L", 130, 394, "NORMAL", "Y", 1.0, "SCREENING 1", -7, "SCREENING", "2013-12-26T14:45", -7], ["CDISCPILOT01", "LB", "01-701-1015", 67, "PLAT", "Platelets", "HEMATOLOGY", "306", "10^9/L", "130", "394", "306", 306, "10^9/L", 130, 394, "NORMAL", "", 4.0, "WEEK 2", 14, "TREATMENT", "2014-01-16T13:17", 15], ["CDISCPILOT01", "LB", "01-701-1015", 99, "PLAT", "Platelets", "HEMATOLOGY", "238", "10^9/L", "130", "394", "238", 238, "10^9/L", 130, 394, "NORMAL", "", 5.0, "WEEK 4", 28, "TREATMENT", "2014-01-30T08:50", 29], ["CDISCPILOT01", "LB", "01-701-1015", 129, "PLAT", "Platelets", "HEMATOLOGY", "237", "10^9/L", "130", "394", "237", 237, "10^9/L", 130, 394, "NORMAL", "", 7.0, "WEEK 6", 42, "TREATMENT", "2014-02-12T12:56", 42], ["CDISCPILOT01", "LB", "01-701-1015", 159, "PLAT", "Platelets", "HEMATOLOGY", "266", "10^9/L", "130", "394", "266", 266, "10^9/L", 130, 394, "NORMAL", "", 8.0, "WEEK 8", 56, "TREATMENT", "2014-03-05T12:25", 63], ["CDISCPILOT01", "LB", "01-701-1015", 192, "PLAT", "Platelets", "HEMATOLOGY", "260", "10^9/L", "130", "394", "260", 260, "10^9/L", 130, 394, "NORMAL", "", 9.0, "WEEK 12", 84, "TREATMENT", "2014-03-26T15:15", 84], ["CDISCPILOT01", "LB", "01-701-1015", 224, "PLAT", "Platelets", "HEMATOLOGY", "266", "10^9/L", "130", "394", "266", 266, "10^9/L", 130, 394, "NORMAL", "", 10.0, "WEEK 16", 112, "TREATMENT", "2014-05-07T11:21", 126], ["CDISCPILOT01", "LB", "01-701-1015", 254, "PLAT", "Platelets", "HEMATOLOGY", "233", "10^9/L", "130", "394", "233", 233, "10^9/L", 130, 394, "NORMAL", "", 11.0, "WEEK 20", 140, "TREATMENT", "2014-05-21T10:58", 140], ["CDISCPILOT01", "LB", "01-701-1015", 287, "PLAT", "Platelets", "HEMATOLOGY", "259", "10^9/L", "130", "394", "259", 259, "10^9/L", 130, 394, "NORMAL", "", 12.0, "WEEK 24", 168, "TREATMENT", "2014-06-18T13:00", 168], ["CDISCPILOT01", "LB", "01-701-1015", 319, "PLAT", "Platelets", "HEMATOLOGY", "300", "10^9/L", "130", "394", "300", 300, "10^9/L", 130, 394, "NORMAL", "", 13.0, "WEEK 26", 182, "TREATMENT", "2014-07-02T11:45", 182], ["CDISCPILOT01", "LB", "01-701-1015", 32, "RBC", "Erythrocytes", "HEMATOLOGY", "5.30", "10^12/L", "3.9", "5.5", "5.3", 5, "10^12/L", 3, 5, "NORMAL", "Y", 1.0, "SCREENING 1", -7, "SCREENING", "2013-12-26T14:45", -7], ["CDISCPILOT01", "LB", "01-701-1015", 69, "RBC", "Erythrocytes", "HEMATOLOGY", "5.30", "10^12/L", "3.9", "5.5", "5.3", 5, "10^12/L", 3, 5, "NORMAL", "", 4.0, "WEEK 2", 14, "TREATMENT", "2014-01-16T13:17", 15], ["CDISCPILOT01", "LB", "01-701-1015", 101, "RBC", "Erythrocytes", "HEMATOLOGY", "5.00", "10^12/L", "3.9", "5.5", "5", 5, "10^12/L", 3, 5, "NORMAL", "", 5.0, "WEEK 4", 28, "TREATMENT", "2014-01-30T08:50", 29], ["CDISCPILOT01", "LB", "01-701-1015", 131, "RBC", "Erythrocytes", "HEMATOLOGY", "5.10", "10^12/L", "3.9", "5.5", "5.1", 5, "10^12/L", 3, 5, "NORMAL", "", 7.0, "WEEK 6", 42, "TREATMENT", "2014-02-12T12:56", 42], ["CDISCPILOT01", "LB", "01-701-1015", 161, "RBC", "Erythrocytes", "HEMATOLOGY", "5.10", "10^12/L", "3.9", "5.5", "5.1", 5, "10^12/L", 3, 5, "NORMAL", "", 8.0, "WEEK 8", 56, "TREATMENT", "2014-03-05T12:25", 63], ["CDISCPILOT01", "LB", "01-701-1015", 194, "RBC", "Erythrocytes", "HEMATOLOGY", "5.00", "10^12/L", "3.9", "5.5", "5", 5, "10^12/L", 3, 5, "NORMAL", "", 9.0, "WEEK 12", 84, "TREATMENT", "2014-03-26T15:15", 84], ["CDISCPILOT01", "LB", "01-701-1015", 226, "RBC", "Erythrocytes", "HEMATOLOGY", "5.20", "10^12/L", "3.9", "5.5", "5.2", 5, "10^12/L", 3, 5, "NORMAL", "", 10.0, "WEEK 16", 112, "TREATMENT", "2014-05-07T11:21", 126], ["CDISCPILOT01", "LB", "01-701-1015", 256, "RBC", "Erythrocytes", "HEMATOLOGY", "4.90", "10^12/L", "3.9", "5.5", "4.9", 4, "10^12/L", 3, 5, "NORMAL", "", 11.0, "WEEK 20", 140, "TREATMENT", "2014-05-21T10:58", 140], ["CDISCPILOT01", "LB", "01-701-1015", 289, "RBC", "Erythrocytes", "HEMATOLOGY", "5.30", "10^12/L", "3.9", "5.5", "5.3", 5, "10^12/L", 3, 5, "NORMAL", "", 12.0, "WEEK 24", 168, "TREATMENT", "2014-06-18T13:00", 168], ["CDISCPILOT01", "LB", "01-701-1015", 321, "RBC", "Erythrocytes", "HEMATOLOGY", "5.40", "10^12/L", "3.9", "5.5", "5.4", 5, "10^12/L", 3, 5, "NORMAL", "", 13.0, "WEEK 26", 182, "TREATMENT", "2014-07-02T11:45", 182], ["CDISCPILOT01", "LB", "01-701-1015", 38, "WBC", "Leukocytes", "HEMATOLOGY", "5.78", "10^9/L", "3.8", "10.7", "5.78", 5, "10^9/L", 3, 10, "NORMAL", "Y", 1.0, "SCREENING 1", -7, "SCREENING", "2013-12-26T14:45", -7], ["CDISCPILOT01", "LB", "01-701-1015", 73, "WBC", "Leukocytes", "HEMATOLOGY", "5.33", "10^9/L", "3.8", "10.7", "5.33", 5, "10^9/L", 3, 10, "NORMAL", "", 4.0, "WEEK 2", 14, "TREATMENT", "2014-01-16T13:17", 15], ["CDISCPILOT01", "LB", "01-701-1015", 103, "WBC", "Leukocytes", "HEMATOLOGY", "4.54", "10^9/L", "3.8", "10.7", "4.54", 4, "10^9/L", 3, 10, "NORMAL", "", 5.0, "WEEK 4", 28, "TREATMENT", "2014-01-30T08:50", 29], ["CDISCPILOT01", "LB", "01-701-1015", 133, "WBC", "Leukocytes", "HEMATOLOGY", "4.25", "10^9/L", "3.8", "10.7", "4.25", 4, "10^9/L", 3, 10, "NORMAL", "", 7.0, "WEEK 6", 42, "TREATMENT", "2014-02-12T12:56", 42], ["CDISCPILOT01", "LB", "01-701-1015", 163, "WBC", "Leukocytes", "HEMATOLOGY", "5.35", "10^9/L", "3.8", "10.7", "5.35", 5, "10^9/L", 3, 10, "NORMAL", "", 8.0, "WEEK 8", 56, "TREATMENT", "2014-03-05T12:25", 63], ["CDISCPILOT01", "LB", "01-701-1015", 198, "WBC", "Leukocytes", "HEMATOLOGY", "5.24", "10^9/L", "3.8", "10.7", "5.24", 5, "10^9/L", 3, 10, "NORMAL", "", 9.0, "WEEK 12", 84, "TREATMENT", "2014-03-26T15:15", 84], ["CDISCPILOT01", "LB", "01-701-1015", 228, "WBC", "Leukocytes", "HEMATOLOGY", "5.62", "10^9/L", "3.8", "10.7", "5.62", 5, "10^9/L", 3, 10, "NORMAL", "", 10.0, "WEEK 16", 112, "TREATMENT", "2014-05-07T11:21", 126], ["CDISCPILOT01", "LB", "01-701-1015", 258, "WBC", "Leukocytes", "HEMATOLOGY", "4.36", "10^9/L", "3.8", "10.7", "4.36", 4, "10^9/L", 3, 10, "NORMAL", "", 11.0, "WEEK 20", 140, "TREATMENT", "2014-05-21T10:58", 140], ["CDISCPILOT01", "LB", "01-701-1015", 293, "WBC", "Leukocytes", "HEMATOLOGY", "7.23", "10^9/L", "3.8", "10.7", "7.23", 7, "10^9/L", 3, 10, "NORMAL", "", 12.0, "WEEK 24", 168, "TREATMENT", "2014-06-18T13:00", 168], ["CDISCPILOT01", "LB", "01-701-1015", 323, "WBC", "Leukocytes", "HEMATOLOGY", "5.43", "10^9/L", "3.8", "10.7", "5.43", 5, "10^9/L", 3, 10, "NORMAL", "", 13.0, "WEEK 26", 182, "TREATMENT", "2014-07-02T11:45", 182], ["CDISCPILOT01", "LB", "01-701-1023", 5, "BASO", "Basophils", "HEMATOLOGY", "0.06", "10^9/L", "0", "0.2", "0.06", 0, "10^9/L", 0, 0, "NORMAL", "Y", 1.0, "SCREENING 1", -7, "SCREENING", "2012-07-22T12:13", -14], ["CDISCPILOT01", "LB", "01-701-1023", 42, "BASO", "Basophils", "HEMATOLOGY", "0.03", "10^9/L", "0", "0.2", "0.03", 0, "10^9/L", 0, 0, "NORMAL", "", 4.0, "WEEK 2", 14, "TREATMENT", "2012-08-27T15:47", 23], ["CDISCPILOT01", "LB", "01-701-1023", 77, "BASO", "Basophils", "HEMATOLOGY", "0.04", "10^9/L", "0", "0.2", "0.04", 0, "10^9/L", 0, 0, "NORMAL", "", 5.0, "WEEK 4", 28, "TREATMENT", "2012-09-02T10:15", 29], ["CDISCPILOT01", "LB", "01-701-1023", 14, "EOS", "Eosinophils", "HEMATOLOGY", "0.09", "10^9/L", "0", "0.57", "0.09", 0, "10^9/L", 0, 0, "NORMAL", "Y", 1.0, "SCREENING 1", -7, "SCREENING", "2012-07-22T12:13", -14], ["CDISCPILOT01", "LB", "01-701-1023", 51, "EOS", "Eosinophils", "HEMATOLOGY", "0.07", "10^9/L", "0", "0.57", "0.07", 0, "10^9/L", 0, 0, "NORMAL", "", 4.0, "WEEK 2", 14, "TREATMENT", "2012-08-27T15:47", 23], ["CDISCPILOT01", "LB", "01-701-1023", 86, "EOS", "Eosinophils", "HEMATOLOGY", "0.07", "10^9/L", "0", "0.57", "0.07", 0, "10^9/L", 0, 0, "NORMAL", "", 5.0, "WEEK 4", 28, "TREATMENT", "2012-09-02T10:15", 29], ["CDISCPILOT01", "LB", "01-701-1023", 17, "HCT", "Hematocrit", "HEMATOLOGY", "49.0", "%", "37", "51", "0.49", 0, "", 0, 0, "NORMAL", "Y", 1.0, "SCREENING 1", -7, "SCREENING", "2012-07-22T12:13", -14], ["CDISCPILOT01", "LB", "01-701-1023", 54, "HCT", "Hematocrit", "HEMATOLOGY", "46.0", "%", "37", "51", "0.46", 0, "", 0, 0, "NORMAL", "", 4.0, "WEEK 2", 14, "TREATMENT", "2012-08-27T15:47", 23], ["CDISCPILOT01", "LB", "01-701-1023", 89, "HCT", "Hematocrit", "HEMATOLOGY", "48.0", "%", "37", "51", "0.48", 0, "", 0, 0, "NORMAL", "", 5.0, "WEEK 4", 28, "TREATMENT", "2012-09-02T10:15", 29], ["CDISCPILOT01", "LB", "01-701-1023", 18, "HGB", "Hemoglobin", "HEMATOLOGY", "16.2", "g/dL", "12.5", "17", "10.05372", 10, "mmol/L", 7, 10, "NORMAL", "Y", 1.0, "SCREENING 1", -7, "SCREENING", "2012-07-22T12:13", -14], ["CDISCPILOT01", "LB", "01-701-1023", 55, "HGB", "Hemoglobin", "HEMATOLOGY", "14.9", "g/dL", "12.5", "17", "9.24694", 9, "mmol/L", 7, 10, "NORMAL", "", 4.0, "WEEK 2", 14, "TREATMENT", "2012-08-27T15:47", 23], ["CDISCPILOT01", "LB", "01-701-1023", 90, "HGB", "Hemoglobin", "HEMATOLOGY", "15.3", "g/dL", "12.5", "17", "9.49518", 9, "mmol/L", 7, 10, "NORMAL", "", 5.0, "WEEK 4", 28, "TREATMENT", "2012-09-02T10:15", 29], ["CDISCPILOT01", "LB", "01-701-1023", 21, "LYM", "Lymphocytes", "HEMATOLOGY", "1.69", "10^9/L", "0.8", "3", "1.69", 1, "10^9/L", 0, 3, "NORMAL", "Y", 1.0, "SCREENING 1", -7, "SCREENING", "2012-07-22T12:13", -14], ["CDISCPILOT01", "LB", "01-701-1023", 58, "LYM", "Lymphocytes", "HEMATOLOGY", "2.33", "10^9/L", "0.8", "3", "2.33", 2, "10^9/L", 0, 3, "NORMAL", "", 4.0, "WEEK 2", 14, "TREATMENT", "2012-08-27T15:47", 23], ["CDISCPILOT01", "LB", "01-701-1023", 93, "LYM", "Lymphocytes", "HEMATOLOGY", "1.40", "10^9/L", "0.8", "3", "1.4", 1, "10^9/L", 0, 3, "NORMAL", "", 5.0, "WEEK 4", 28, "TREATMENT", "2012-09-02T10:15", 29], ["CDISCPILOT01", "LB", "01-701-1023", 22, "MCH", "Ery. Mean Corpuscular Hemoglobin", "HEMATOLOGY", "30", "pg", "26", "34", "1.8618", 1, "fmol", 1, 2, "NORMAL", "Y", 1.0, "SCREENING 1", -7, "SCREENING", "2012-07-22T12:13", -14], ["CDISCPILOT01", "LB", "01-701-1023", 59, "MCH", "Ery. Mean Corpuscular Hemoglobin", "HEMATOLOGY", "31", "pg", "26", "34", "1.92386", 1, "fmol", 1, 2, "NORMAL", "", 4.0, "WEEK 2", 14, "TREATMENT", "2012-08-27T15:47", 23], ["CDISCPILOT01", "LB", "01-701-1023", 94, "MCH", "Ery. Mean Corpuscular Hemoglobin", "HEMATOLOGY", "30", "pg", "26", "34", "1.8618", 1, "fmol", 1, 2, "NORMAL", "", 5.0, "WEEK 4", 28, "TREATMENT", "2012-09-02T10:15", 29], ["CDISCPILOT01", "LB", "01-701-1023", 23, "MCHC", "Ery. Mean Corpuscular HGB Concentration", "HEMATOLOGY", "33", "g/dL", "31", "38", "20.4798", 20, "mmol/L", 19, 24, "NORMAL", "Y", 1.0, "SCREENING 1", -7, "SCREENING", "2012-07-22T12:13", -14], ["CDISCPILOT01", "LB", "01-701-1023", 60, "MCHC", "Ery. Mean Corpuscular HGB Concentration", "HEMATOLOGY", "33", "g/dL", "31", "38", "20.4798", 20, "mmol/L", 19, 24, "NORMAL", "", 4.0, "WEEK 2", 14, "TREATMENT", "2012-08-27T15:47", 23], ["CDISCPILOT01", "LB", "01-701-1023", 95, "MCHC", "Ery. Mean Corpuscular HGB Concentration", "HEMATOLOGY", "32", "g/dL", "31", "38", "19.8592", 19, "mmol/L", 19, 24, "NORMAL", "", 5.0, "WEEK 4", 28, "TREATMENT", "2012-09-02T10:15", 29], ["CDISCPILOT01", "LB", "01-701-1023", 24, "MCV", "Ery. Mean Corpuscular Volume", "HEMATOLOGY", "92", "fL", "80", "100", "92", 92, "fL", 80, 100, "NORMAL", "Y", 1.0, "SCREENING 1", -7, "SCREENING", "2012-07-22T12:13", -14], ["CDISCPILOT01", "LB", "01-701-1023", 61, "MCV", "Ery. Mean Corpuscular Volume", "HEMATOLOGY", "95", "fL", "80", "100", "95", 95, "fL", 80, 100, "NORMAL", "", 4.0, "WEEK 2", 14, "TREATMENT", "2012-08-27T15:47", 23], ["CDISCPILOT01", "LB", "01-701-1023", 96, "MCV", "Ery. Mean Corpuscular Volume", "HEMATOLOGY", "92", "fL", "80", "100", "92", 92, "fL", 80, 100, "NORMAL", "", 5.0, "WEEK 4", 28, "TREATMENT", "2012-09-02T10:15", 29], ["CDISCPILOT01", "LB", "01-701-1023", 25, "MONO", "Monocytes", "HEMATOLOGY", "0.61", "10^9/L", "0.12", "0.92", "0.61", 0, "10^9/L", 0, 0, "NORMAL", "Y", 1.0, "SCREENING 1", -7, "SCREENING", "2012-07-22T12:13", -14], ["CDISCPILOT01", "LB", "01-701-1023", 62, "MONO", "Monocytes", "HEMATOLOGY", "0.64", "10^9/L", "0.12", "0.92", "0.64", 0, "10^9/L", 0, 0, "NORMAL", "", 4.0, "WEEK 2", 14, "TREATMENT", "2012-08-27T15:47", 23], ["CDISCPILOT01", "LB", "01-701-1023", 97, "MONO", "Monocytes", "HEMATOLOGY", "0.58", "10^9/L", "0.12", "0.92", "0.58", 0, "10^9/L", 0, 0, "NORMAL", "", 5.0, "WEEK 4", 28, "TREATMENT", "2012-09-02T10:15", 29], ["CDISCPILOT01", "LB", "01-701-1023", 29, "PLAT", "Platelets", "HEMATOLOGY", "217", "10^9/L", "130", "394", "217", 217, "10^9/L", 130, 394, "NORMAL", "Y", 1.0, "SCREENING 1", -7, "SCREENING", "2012-07-22T12:13", -14], ["CDISCPILOT01", "LB", "01-701-1023", 66, "PLAT", "Platelets", "HEMATOLOGY", "222", "10^9/L", "130", "394", "222", 222, "10^9/L", 130, 394, "NORMAL", "", 4.0, "WEEK 2", 14, "TREATMENT", "2012-08-27T15:47", 23], ["CDISCPILOT01", "LB", "01-701-1023", 101, "PLAT", "Platelets", "HEMATOLOGY", "198", "10^9/L", "130", "394", "198", 198, "10^9/L", 130, 394, "NORMAL", "", 5.0, "WEEK 4", 28, "TREATMENT", "2012-09-02T10:15", 29], ["CDISCPILOT01", "LB", "01-701-1023", 31, "RBC", "Erythrocytes", "HEMATOLOGY", "5.30", "10^12/L", "4", "5.8", "5.3", 5, "10^12/L", 4, 5, "NORMAL", "Y", 1.0, "SCREENING 1", -7, "SCREENING", "2012-07-22T12:13", -14], ["CDISCPILOT01", "LB", "01-701-1023", 68, "RBC", "Erythrocytes", "HEMATOLOGY", "4.80", "10^12/L", "4", "5.8", "4.8", 4, "10^12/L", 4, 5, "NORMAL", "", 4.0, "WEEK 2", 14, "TREATMENT", "2012-08-27T15:47", 23], ["CDISCPILOT01", "LB", "01-701-1023", 103, "RBC", "Erythrocytes", "HEMATOLOGY", "5.20", "10^12/L", "4", "5.8", "5.2", 5, "10^12/L", 4, 5, "NORMAL", "", 5.0, "WEEK 4", 28, "TREATMENT", "2012-09-02T10:15", 29], ["CDISCPILOT01", "LB", "01-701-1023", 37, "WBC", "Leukocytes", "HEMATOLOGY", "8.78", "10^9/L", "3.8", "10.7", "8.78", 8, "10^9/L", 3, 10, "NORMAL", "Y", 1.0, "SCREENING 1", -7, "SCREENING", "2012-07-22T12:13", -14], ["CDISCPILOT01", "LB", "01-701-1023", 72, "WBC", "Leukocytes", "HEMATOLOGY", "8.55", "10^9/L", "3.8", "10.7", "8.55", 8, "10^9/L", 3, 10, "NORMAL", "", 4.0, "WEEK 2", 14, "TREATMENT", "2012-08-27T15:47", 23], ["CDISCPILOT01", "LB", "01-701-1023", 107, "WBC", "Leukocytes", "HEMATOLOGY", "7.67", "10^9/L", "3.8", "10.7", "7.67", 7, "10^9/L", 3, 10, "NORMAL", "", 5.0, "WEEK 4", 28, "TREATMENT", "2012-09-02T10:15", 29], ["CDISCPILOT01", "LB", "01-701-1028", 201, "ANISO", "Anisocytes", "HEMATOLOGY", "1", "", "", "", "1", 1, "", null, null, "ABNORMAL", "", 10.0, "WEEK 16", 112, "TREATMENT", "2013-11-06T10:08", 111], ["CDISCPILOT01", "LB", "01-701-1028", 233, "ANISO", "Anisocytes", "HEMATOLOGY", "1", "", "", "", "1", 1, "", null, null, "ABNORMAL", "", 11.0, "WEEK 20", 140, "TREATMENT", "2013-12-04T15:10", 139], ["CDISCPILOT01", "LB", "01-701-1028", 5, "BASO", "Basophils", "HEMATOLOGY", "0.06", "10^9/L", "0", "0.2", "0.06", 0, "10^9/L", 0, 0, "NORMAL", "Y", 1.0, "SCREENING 1", -7, "SCREENING", "2013-07-11T12:02", -8], ["CDISCPILOT01", "LB", "01-701-1028", 42, "BASO", "Basophils", "HEMATOLOGY", "0.06", "10^9/L", "0", "0.2", "0.06", 0, "10^9/L", 0, 0, "NORMAL", "", 4.0, "WEEK 2", 14, "TREATMENT", "2013-08-01T09:15", 14], ["CDISCPILOT01", "LB", "01-701-1028", 77, "BASO", "Basophils", "HEMATOLOGY", "0.04", "10^9/L", "0", "0.2", "0.04", 0, "10^9/L", 0, 0, "NORMAL", "", 5.0, "WEEK 4", 28, "TREATMENT", "2013-08-14T13:24", 27], ["CDISCPILOT01", "LB", "01-701-1028", 107, "BASO", "Basophils", "HEMATOLOGY", "0.04", "10^9/L", "0", "0.2", "0.04", 0, "10^9/L", 0, 0, "NORMAL", "", 7.0, "WEEK 6", 42, "TREATMENT", "2013-08-29T11:54", 42], ["CDISCPILOT01", "LB", "01-701-1028", 137, "BASO", "Basophils", "HEMATOLOGY", "0.04", "10^9/L", "0", "0.2", "0.04", 0, "10^9/L", 0, 0, "NORMAL", "", 8.0, "WEEK 8", 56, "TREATMENT", "2013-09-10T09:13", 54], ["CDISCPILOT01", "LB", "01-701-1028", 167, "BASO", "Basophils", "HEMATOLOGY", "0.07", "10^9/L", "0", "0.2", "0.07", 0, "10^9/L", 0, 0, "NORMAL", "", 9.0, "WEEK 12", 84, "TREATMENT", "2013-10-09T08:42", 83], ["CDISCPILOT01", "LB", "01-701-1028", 203, "BASO", "Basophils", "HEMATOLOGY", "0.05", "10^9/L", "0", "0.2", "0.05", 0, "10^9/L", 0, 0, "NORMAL", "", 10.0, "WEEK 16", 112, "TREATMENT", "2013-11-06T10:08", 111], ["CDISCPILOT01", "LB", "01-701-1028", 235, "BASO", "Basophils", "HEMATOLOGY", "0.06", "10^9/L", "0", "0.2", "0.06", 0, "10^9/L", 0, 0, "NORMAL", "", 11.0, "WEEK 20", 140, "TREATMENT", "2013-12-04T15:10", 139], ["CDISCPILOT01", "LB", "01-701-1028", 265, "BASO", "Basophils", "HEMATOLOGY", "0.04", "10^9/L", "0", "0.2", "0.04", 0, "10^9/L", 0, 0, "NORMAL", "", 12.0, "WEEK 24", 168, "TREATMENT", "2014-01-06T10:00", 172], ["CDISCPILOT01", "LB", "01-701-1028", 302, "BASO", "Basophils", "HEMATOLOGY", "0.06", "10^9/L", "0", "0.2", "0.06", 0, "10^9/L", 0, 0, "NORMAL", "", 13.0, "WEEK 26", 182, "TREATMENT", "2014-01-14T11:10", 180], ["CDISCPILOT01", "LB", "01-701-1028", 14, "EOS", "Eosinophils", "HEMATOLOGY", "0.12", "10^9/L", "0", "0.57", "0.12", 0, "10^9/L", 0, 0, "NORMAL", "Y", 1.0, "SCREENING 1", -7, "SCREENING", "2013-07-11T12:02", -8], ["CDISCPILOT01", "LB", "01-701-1028", 51, "EOS", "Eosinophils", "HEMATOLOGY", "0.28", "10^9/L", "0", "0.57", "0.28", 0, "10^9/L", 0, 0, "NORMAL", "", 4.0, "WEEK 2", 14, "TREATMENT", "2013-08-01T09:15", 14], ["CDISCPILOT01", "LB", "01-701-1028", 85, "EOS", "Eosinophils", "HEMATOLOGY", "0.21", "10^9/L", "0", "0.57", "0.21", 0, "10^9/L", 0, 0, "NORMAL", "", 5.0, "WEEK 4", 28, "TREATMENT", "2013-08-14T13:24", 27], ["CDISCPILOT01", "LB", "01-701-1028", 115, "EOS", "Eosinophils", "HEMATOLOGY", "0.17", "10^9/L", "0", "0.57", "0.17", 0, "10^9/L", 0, 0, "NORMAL", "", 7.0, "WEEK 6", 42, "TREATMENT", "2013-08-29T11:54", 42], ["CDISCPILOT01", "LB", "01-701-1028", 145, "EOS", "Eosinophils", "HEMATOLOGY", "0.26", "10^9/L", "0", "0.57", "0.26", 0, "10^9/L", 0, 0, "NORMAL", "", 8.0, "WEEK 8", 56, "TREATMENT", "2013-09-10T09:13", 54], ["CDISCPILOT01", "LB", "01-701-1028", 176, "EOS", "Eosinophils", "HEMATOLOGY", "0.17", "10^9/L", "0", "0.57", "0.17", 0, "10^9/L", 0, 0, "NORMAL", "", 9.0, "WEEK 12", 84, "TREATMENT", "2013-10-09T08:42", 83], ["CDISCPILOT01", "LB", "01-701-1028", 211, "EOS", "Eosinophils", "HEMATOLOGY", "0.18", "10^9/L", "0", "0.57", "0.18", 0, "10^9/L", 0, 0, "NORMAL", "", 10.0, "WEEK 16", 112, "TREATMENT", "2013-11-06T10:08", 111], ["CDISCPILOT01", "LB", "01-701-1028", 243, "EOS", "Eosinophils", "HEMATOLOGY", "0.19", "10^9/L", "0", "0.57", "0.19", 0, "10^9/L", 0, 0, "NORMAL", "", 11.0, "WEEK 20", 140, "TREATMENT", "2013-12-04T15:10", 139], ["CDISCPILOT01", "LB", "01-701-1028", 274, "EOS", "Eosinophils", "HEMATOLOGY", "0.10", "10^9/L", "0", "0.57", "0.1", 0, "10^9/L", 0, 0, "NORMAL", "", 12.0, "WEEK 24", 168, "TREATMENT", "2014-01-06T10:00", 172], ["CDISCPILOT01", "LB", "01-701-1028", 310, "EOS", "Eosinophils", "HEMATOLOGY", "0.06", "10^9/L", "0", "0.57", "0.06", 0, "10^9/L", 0, 0, "NORMAL", "", 13.0, "WEEK 26", 182, "TREATMENT", "2014-01-14T11:10", 180], ["CDISCPILOT01", "LB", "01-701-1028", 17, "HCT", "Hematocrit", "HEMATOLOGY", "47.0", "%", "37", "51", "0.47", 0, "", 0, 0, "NORMAL", "Y", 1.0, "SCREENING 1", -7, "SCREENING", "2013-07-11T12:02", -8], ["CDISCPILOT01", "LB", "01-701-1028", 54, "HCT", "Hematocrit", "HEMATOLOGY", "46.0", "%", "37", "51", "0.46", 0, "", 0, 0, "NORMAL", "", 4.0, "WEEK 2", 14, "TREATMENT", "2013-08-01T09:15", 14], ["CDISCPILOT01", "LB", "01-701-1028", 88, "HCT", "Hematocrit", "HEMATOLOGY", "45.0", "%", "37", "51", "0.45", 0, "", 0, 0, "NORMAL", "", 5.0, "WEEK 4", 28, "TREATMENT", "2013-08-14T13:24", 27], ["CDISCPILOT01", "LB", "01-701-1028", 118, "HCT", "Hematocrit", "HEMATOLOGY", "47.0", "%", "37", "51", "0.47", 0, "", 0, 0, "NORMAL", "", 7.0, "WEEK 6", 42, "TREATMENT", "2013-08-29T11:54", 42], ["CDISCPILOT01", "LB", "01-701-1028", 148, "HCT", "Hematocrit", "HEMATOLOGY", "45.0", "%", "37", "51", "0.45", 0, "", 0, 0, "NORMAL", "", 8.0, "WEEK 8", 56, "TREATMENT", "2013-09-10T09:13", 54], ["CDISCPILOT01", "LB", "01-701-1028", 179, "HCT", "Hematocrit", "HEMATOLOGY", "49.0", "%", "37", "51", "0.49", 0, "", 0, 0, "NORMAL", "", 9.0, "WEEK 12", 84, "TREATMENT", "2013-10-09T08:42", 83], ["CDISCPILOT01", "LB", "01-701-1028", 214, "HCT", "Hematocrit", "HEMATOLOGY", "43.0", "%", "37", "51", "0.43", 0, "", 0, 0, "NORMAL", "", 10.0, "WEEK 16", 112, "TREATMENT", "2013-11-06T10:08", 111], ["CDISCPILOT01", "LB", "01-701-1028", 246, "HCT", "Hematocrit", "HEMATOLOGY", "43.0", "%", "37", "51", "0.43", 0, "", 0, 0, "NORMAL", "", 11.0, "WEEK 20", 140, "TREATMENT", "2013-12-04T15:10", 139], ["CDISCPILOT01", "LB", "01-701-1028", 277, "HCT", "Hematocrit", "HEMATOLOGY", "48.0", "%", "37", "51", "0.48", 0, "", 0, 0, "NORMAL", "", 12.0, "WEEK 24", 168, "TREATMENT", "2014-01-06T10:00", 172], ["CDISCPILOT01", "LB", "01-701-1028", 313, "HCT", "Hematocrit", "HEMATOLOGY", "48.0", "%", "37", "51", "0.48", 0, "", 0, 0, "NORMAL", "", 13.0, "WEEK 26", 182, "TREATMENT", "2014-01-14T11:10", 180], ["CDISCPILOT01", "LB", "01-701-1028", 18, "HGB", "Hemoglobin", "HEMATOLOGY", "16.8", "g/dL", "12.5", "17", "10.42608", 10, "mmol/L", 7, 10, "NORMAL", "Y", 1.0, "SCREENING 1", -7, "SCREENING", "2013-07-11T12:02", -8], ["CDISCPILOT01", "LB", "01-701-1028", 55, "HGB", "Hemoglobin", "HEMATOLOGY", "15.7", "g/dL", "12.5", "17", "9.74342", 9, "mmol/L", 7, 10, "NORMAL", "", 4.0, "WEEK 2", 14, "TREATMENT", "2013-08-01T09:15", 14], ["CDISCPILOT01", "LB", "01-701-1028", 89, "HGB", "Hemoglobin", "HEMATOLOGY", "15.4", "g/dL", "12.5", "17", "9.55724", 9, "mmol/L", 7, 10, "NORMAL", "", 5.0, "WEEK 4", 28, "TREATMENT", "2013-08-14T13:24", 27], ["CDISCPILOT01", "LB", "01-701-1028", 119, "HGB", "Hemoglobin", "HEMATOLOGY", "15.9", "g/dL", "12.5", "17", "9.86754", 9, "mmol/L", 7, 10, "NORMAL", "", 7.0, "WEEK 6", 42, "TREATMENT", "2013-08-29T11:54", 42], ["CDISCPILOT01", "LB", "01-701-1028", 149, "HGB", "Hemoglobin", "HEMATOLOGY", "15.6", "g/dL", "12.5", "17", "9.68136", 9, "mmol/L", 7, 10, "NORMAL", "", 8.0, "WEEK 8", 56, "TREATMENT", "2013-09-10T09:13", 54], ["CDISCPILOT01", "LB", "01-701-1028", 180, "HGB", "Hemoglobin", "HEMATOLOGY", "16.3", "g/dL", "12.5", "17", "10.11578", 10, "mmol/L", 7, 10, "NORMAL", "", 9.0, "WEEK 12", 84, "TREATMENT", "2013-10-09T08:42", 83], ["CDISCPILOT01", "LB", "01-701-1028", 215, "HGB", "Hemoglobin", "HEMATOLOGY", "14.9", "g/dL", "12.5", "17", "9.24694", 9, "mmol/L", 7, 10, "NORMAL", "", 10.0, "WEEK 16", 112, "TREATMENT", "2013-11-06T10:08", 111], ["CDISCPILOT01", "LB", "01-701-1028", 247, "HGB", "Hemoglobin", "HEMATOLOGY", "14.9", "g/dL", "12.5", "17", "9.24694", 9, "mmol/L", 7, 10, "NORMAL", "", 11.0, "WEEK 20", 140, "TREATMENT", "2013-12-04T15:10", 139], ["CDISCPILOT01", "LB", "01-701-1028", 278, "HGB", "Hemoglobin", "HEMATOLOGY", "15.9", "g/dL", "12.5", "17", "9.86754", 9, "mmol/L", 7, 10, "NORMAL", "", 12.0, "WEEK 24", 168, "TREATMENT", "2014-01-06T10:00", 172], ["CDISCPILOT01", "LB", "01-701-1028", 314, "HGB", "Hemoglobin", "HEMATOLOGY", "15.8", "g/dL", "12.5", "17", "9.80548", 9, "mmol/L", 7, 10, "NORMAL", "", 13.0, "WEEK 26", 182, "TREATMENT", "2014-01-14T11:10", 180], ["CDISCPILOT01", "LB", "01-701-1028", 21, "LYM", "Lymphocytes", "HEMATOLOGY", "1.97", "10^9/L", "0.8", "3", "1.97", 1, "10^9/L", 0, 3, "NORMAL", "Y", 1.0, "SCREENING 1", -7, "SCREENING", "2013-07-11T12:02", -8], ["CDISCPILOT01", "LB", "01-701-1028", 58, "LYM", "Lymphocytes", "HEMATOLOGY", "1.85", "10^9/L", "0.8", "3", "1.85", 1, "10^9/L", 0, 3, "NORMAL", "", 4.0, "WEEK 2", 14, "TREATMENT", "2013-08-01T09:15", 14], ["CDISCPILOT01", "LB", "01-701-1028", 91, "LYM", "Lymphocytes", "HEMATOLOGY", "1.94", "10^9/L", "0.8", "3", "1.94", 1, "10^9/L", 0, 3, "NORMAL", "", 5.0, "WEEK 4", 28, "TREATMENT", "2013-08-14T13:24", 27], ["CDISCPILOT01", "LB", "01-701-1028", 121, "LYM", "Lymphocytes", "HEMATOLOGY", "1.97", "10^9/L", "0.8", "3", "1.97", 1, "10^9/L", 0, 3, "NORMAL", "", 7.0, "WEEK 6", 42, "TREATMENT", "2013-08-29T11:54", 42], ["CDISCPILOT01", "LB", "01-701-1028", 151, "LYM", "Lymphocytes", "HEMATOLOGY", "2.05", "10^9/L", "0.8", "3", "2.05", 2, "10^9/L", 0, 3, "NORMAL", "", 8.0, "WEEK 8", 56, "TREATMENT", "2013-09-10T09:13", 54], ["CDISCPILOT01", "LB", "01-701-1028", 183, "LYM", "Lymphocytes", "HEMATOLOGY", "1.71", "10^9/L", "0.8", "3", "1.71", 1, "10^9/L", 0, 3, "NORMAL", "", 9.0, "WEEK 12", 84, "TREATMENT", "2013-10-09T08:42", 83], ["CDISCPILOT01", "LB", "01-701-1028", 217, "LYM", "Lymphocytes", "HEMATOLOGY", "1.46", "10^9/L", "0.8", "3", "1.46", 1, "10^9/L", 0, 3, "NORMAL", "", 10.0, "WEEK 16", 112, "TREATMENT", "2013-11-06T10:08", 111], ["CDISCPILOT01", "LB", "01-701-1028", 249, "LYM", "Lymphocytes", "HEMATOLOGY", "2.30", "10^9/L", "0.8", "3", "2.3", 2, "10^9/L", 0, 3, "NORMAL", "", 11.0, "WEEK 20", 140, "TREATMENT", "2013-12-04T15:10", 139], ["CDISCPILOT01", "LB", "01-701-1028", 281, "LYM", "Lymphocytes", "HEMATOLOGY", "1.68", "10^9/L", "0.8", "3", "1.68", 1, "10^9/L", 0, 3, "NORMAL", "", 12.0, "WEEK 24", 168, "TREATMENT", "2014-01-06T10:00", 172], ["CDISCPILOT01", "LB", "01-701-1028", 316, "LYM", "Lymphocytes", "HEMATOLOGY", "2.06", "10^9/L", "0.8", "3", "2.06", 2, "10^9/L", 0, 3, "NORMAL", "", 13.0, "WEEK 26", 182, "TREATMENT", "2014-01-14T11:10", 180], ["CDISCPILOT01", "LB", "01-701-1028", 218, "MACROCY", "Macrocytes", "HEMATOLOGY", "1", "", "", "", "1", 1, "", null, null, "ABNORMAL", "", 10.0, "WEEK 16", 112, "TREATMENT", "2013-11-06T10:08", 111], ["CDISCPILOT01", "LB", "01-701-1028", 282, "MACROCY", "Macrocytes", "HEMATOLOGY", "1", "", "", "", "1", 1, "", null, null, "ABNORMAL", "", 12.0, "WEEK 24", 168, "TREATMENT", "2014-01-06T10:00", 172], ["CDISCPILOT01", "LB", "01-701-1028", 317, "MACROCY", "Macrocytes", "HEMATOLOGY", "1", "", "", "", "1", 1, "", null, null, "ABNORMAL", "", 13.0, "WEEK 26", 182, "TREATMENT", "2014-01-14T11:10", 180], ["CDISCPILOT01", "LB", "01-701-1028", 22, "MCH", "Ery. Mean Corpuscular Hemoglobin", "HEMATOLOGY", "37", "pg", "26", "34", "2.29622", 2, "fmol", 1, 2, "HIGH", "Y", 1.0, "SCREENING 1", -7, "SCREENING", "2013-07-11T12:02", -8], ["CDISCPILOT01", "LB", "01-701-1028", 59, "MCH", "Ery. Mean Corpuscular Hemoglobin", "HEMATOLOGY", "34", "pg", "26", "34", "2.11004", 2, "fmol", 1, 2, "NORMAL", "", 4.0, "WEEK 2", 14, "TREATMENT", "2013-08-01T09:15", 14], ["CDISCPILOT01", "LB", "01-701-1028", 92, "MCH", "Ery. Mean Corpuscular Hemoglobin", "HEMATOLOGY", "35", "pg", "26", "34", "2.1721", 2, "fmol", 1, 2, "HIGH", "", 5.0, "WEEK 4", 28, "TREATMENT", "2013-08-14T13:24", 27], ["CDISCPILOT01", "LB", "01-701-1028", 122, "MCH", "Ery. Mean Corpuscular Hemoglobin", "HEMATOLOGY", "34", "pg", "26", "34", "2.11004", 2, "fmol", 1, 2, "NORMAL", "", 7.0, "WEEK 6", 42, "TREATMENT", "2013-08-29T11:54", 42], ["CDISCPILOT01", "LB", "01-701-1028", 152, "MCH", "Ery. Mean Corpuscular Hemoglobin", "HEMATOLOGY", "35", "pg", "26", "34", "2.1721", 2, "fmol", 1, 2, "HIGH", "", 8.0, "WEEK 8", 56, "TREATMENT", "2013-09-10T09:13", 54], ["CDISCPILOT01", "LB", "01-701-1028", 184, "MCH", "Ery. Mean Corpuscular Hemoglobin", "HEMATOLOGY", "34", "pg", "26", "34", "2.11004", 2, "fmol", 1, 2, "NORMAL", "", 9.0, "WEEK 12", 84, "TREATMENT", "2013-10-09T08:42", 83], ["CDISCPILOT01", "LB", "01-701-1028", 219, "MCH", "Ery. Mean Corpuscular Hemoglobin", "HEMATOLOGY", "35", "pg", "26", "34", "2.1721", 2, "fmol", 1, 2, "HIGH", "", 10.0, "WEEK 16", 112, "TREATMENT", "2013-11-06T10:08", 111], ["CDISCPILOT01", "LB", "01-701-1028", 250, "MCH", "Ery. Mean Corpuscular Hemoglobin", "HEMATOLOGY", "35", "pg", "26", "34", "2.1721", 2, "fmol", 1, 2, "HIGH", "", 11.0, "WEEK 20", 140, "TREATMENT", "2013-12-04T15:10", 139], ["CDISCPILOT01", "LB", "01-701-1028", 283, "MCH", "Ery. Mean Corpuscular Hemoglobin", "HEMATOLOGY", "34", "pg", "26", "34", "2.11004", 2, "fmol", 1, 2, "NORMAL", "", 12.0, "WEEK 24", 168, "TREATMENT", "2014-01-06T10:00", 172], ["CDISCPILOT01", "LB", "01-701-1028", 318, "MCH", "Ery. Mean Corpuscular Hemoglobin", "HEMATOLOGY", "35", "pg", "26", "34", "2.1721", 2, "fmol", 1, 2, "HIGH", "", 13.0, "WEEK 26", 182, "TREATMENT", "2014-01-14T11:10", 180], ["CDISCPILOT01", "LB", "01-701-1028", 23, "MCHC", "Ery. Mean Corpuscular HGB Concentration", "HEMATOLOGY", "36", "g/dL", "31", "38", "22.3416", 22, "mmol/L", 19, 24, "NORMAL", "Y", 1.0, "SCREENING 1", -7, "SCREENING", "2013-07-11T12:02", -8], ["CDISCPILOT01", "LB", "01-701-1028", 60, "MCHC", "Ery. Mean Corpuscular HGB Concentration", "HEMATOLOGY", "35", "g/dL", "31", "38", "21.721", 21, "mmol/L", 19, 24, "NORMAL", "", 4.0, "WEEK 2", 14, "TREATMENT", "2013-08-01T09:15", 14], ["CDISCPILOT01", "LB", "01-701-1028", 93, "MCHC", "Ery. Mean Corpuscular HGB Concentration", "HEMATOLOGY", "34", "g/dL", "31", "38", "21.1004", 21, "mmol/L", 19, 24, "NORMAL", "", 5.0, "WEEK 4", 28, "TREATMENT", "2013-08-14T13:24", 27], ["CDISCPILOT01", "LB", "01-701-1028", 123, "MCHC", "Ery. Mean Corpuscular HGB Concentration", "HEMATOLOGY", "34", "g/dL", "31", "38", "21.1004", 21, "mmol/L", 19, 24, "NORMAL", "", 7.0, "WEEK 6", 42, "TREATMENT", "2013-08-29T11:54", 42], ["CDISCPILOT01", "LB", "01-701-1028", 153, "MCHC", "Ery. Mean Corpuscular HGB Concentration", "HEMATOLOGY", "35", "g/dL", "31", "38", "21.721", 21, "mmol/L", 19, 24, "NORMAL", "", 8.0, "WEEK 8", 56, "TREATMENT", "2013-09-10T09:13", 54], ["CDISCPILOT01", "LB", "01-701-1028", 185, "MCHC", "Ery. Mean Corpuscular HGB Concentration", "HEMATOLOGY", "33", "g/dL", "31", "38", "20.4798", 20, "mmol/L", 19, 24, "NORMAL", "", 9.0, "WEEK 12", 84, "TREATMENT", "2013-10-09T08:42", 83], ["CDISCPILOT01", "LB", "01-701-1028", 220, "MCHC", "Ery. Mean Corpuscular HGB Concentration", "HEMATOLOGY", "35", "g/dL", "31", "38", "21.721", 21, "mmol/L", 19, 24, "NORMAL", "", 10.0, "WEEK 16", 112, "TREATMENT", "2013-11-06T10:08", 111], ["CDISCPILOT01", "LB", "01-701-1028", 251, "MCHC", "Ery. Mean Corpuscular HGB Concentration", "HEMATOLOGY", "35", "g/dL", "31", "38", "21.721", 21, "mmol/L", 19, 24, "NORMAL", "", 11.0, "WEEK 20", 140, "TREATMENT", "2013-12-04T15:10", 139], ["CDISCPILOT01", "LB", "01-701-1028", 284, "MCHC", "Ery. Mean Corpuscular HGB Concentration", "HEMATOLOGY", "33", "g/dL", "31", "38", "20.4798", 20, "mmol/L", 19, 24, "NORMAL", "", 12.0, "WEEK 24", 168, "TREATMENT", "2014-01-06T10:00", 172], ["CDISCPILOT01", "LB", "01-701-1028", 319, "MCHC", "Ery. Mean Corpuscular HGB Concentration", "HEMATOLOGY", "33", "g/dL", "31", "38", "20.4798", 20, "mmol/L", 19, 24, "NORMAL", "", 13.0, "WEEK 26", 182, "TREATMENT", "2014-01-14T11:10", 180], ["CDISCPILOT01", "LB", "01-701-1028", 24, "MCV", "Ery. Mean Corpuscular Volume", "HEMATOLOGY", "104", "fL", "80", "100", "104", 104, "fL", 80, 100, "HIGH", "Y", 1.0, "SCREENING 1", -7, "SCREENING", "2013-07-11T12:02", -8], ["CDISCPILOT01", "LB", "01-701-1028", 61, "MCV", "Ery. Mean Corpuscular Volume", "HEMATOLOGY", "99", "fL", "80", "100", "99", 99, "fL", 80, 100, "NORMAL", "", 4.0, "WEEK 2", 14, "TREATMENT", "2013-08-01T09:15", 14], ["CDISCPILOT01", "LB", "01-701-1028", 94, "MCV", "Ery. Mean Corpuscular Volume", "HEMATOLOGY", "101", "fL", "80", "100", "101", 101, "fL", 80, 100, "HIGH", "", 5.0, "WEEK 4", 28, "TREATMENT", "2013-08-14T13:24", 27], ["CDISCPILOT01", "LB", "01-701-1028", 124, "MCV", "Ery. Mean Corpuscular Volume", "HEMATOLOGY", "101", "fL", "80", "100", "101", 101, "fL", 80, 100, "HIGH", "", 7.0, "WEEK 6", 42, "TREATMENT", "2013-08-29T11:54", 42], ["CDISCPILOT01", "LB", "01-701-1028", 154, "MCV", "Ery. Mean Corpuscular Volume", "HEMATOLOGY", "100", "fL", "80", "100", "100", 100, "fL", 80, 100, "NORMAL", "", 8.0, "WEEK 8", 56, "TREATMENT", "2013-09-10T09:13", 54], ["CDISCPILOT01", "LB", "01-701-1028", 186, "MCV", "Ery. Mean Corpuscular Volume", "HEMATOLOGY", "103", "fL", "80", "100", "103", 103, "fL", 80, 100, "HIGH", "", 9.0, "WEEK 12", 84, "TREATMENT", "2013-10-09T08:42", 83], ["CDISCPILOT01", "LB", "01-701-1028", 221, "MCV", "Ery. Mean Corpuscular Volume", "HEMATOLOGY", "102", "fL", "80", "100", "102", 102, "fL", 80, 100, "HIGH", "", 10.0, "WEEK 16", 112, "TREATMENT", "2013-11-06T10:08", 111], ["CDISCPILOT01", "LB", "01-701-1028", 252, "MCV", "Ery. Mean Corpuscular Volume", "HEMATOLOGY", "100", "fL", "80", "100", "100", 100, "fL", 80, 100, "NORMAL", "", 11.0, "WEEK 20", 140, "TREATMENT", "2013-12-04T15:10", 139], ["CDISCPILOT01", "LB", "01-701-1028", 285, "MCV", "Ery. Mean Corpuscular Volume", "HEMATOLOGY", "104", "fL", "80", "100", "104", 104, "fL", 80, 100, "HIGH", "", 12.0, "WEEK 24", 168, "TREATMENT", "2014-01-06T10:00", 172], ["CDISCPILOT01", "LB", "01-701-1028", 320, "MCV", "Ery. Mean Corpuscular Volume", "HEMATOLOGY", "106", "fL", "80", "100", "106", 106, "fL", 80, 100, "HIGH", "", 13.0, "WEEK 26", 182, "TREATMENT", "2014-01-14T11:10", 180], ["CDISCPILOT01", "LB", "01-701-1028", 25, "MONO", "Monocytes", "HEMATOLOGY", "0.43", "10^9/L", "0.12", "0.92", "0.43", 0, "10^9/L", 0, 0, "NORMAL", "Y", 1.0, "SCREENING 1", -7, "SCREENING", "2013-07-11T12:02", -8], ["CDISCPILOT01", "LB", "01-701-1028", 62, "MONO", "Monocytes", "HEMATOLOGY", "0.50", "10^9/L", "0.12", "0.92", "0.5", 0, "10^9/L", 0, 0, "NORMAL", "", 4.0, "WEEK 2", 14, "TREATMENT", "2013-08-01T09:15", 14], ["CDISCPILOT01", "LB", "01-701-1028", 95, "MONO", "Monocytes", "HEMATOLOGY", "0.65", "10^9/L", "0.12", "0.92", "0.65", 0, "10^9/L", 0, 0, "NORMAL", "", 5.0, "WEEK 4", 28, "TREATMENT", "2013-08-14T13:24", 27], ["CDISCPILOT01", "LB", "01-701-1028", 125, "MONO", "Monocytes", "HEMATOLOGY", "0.42", "10^9/L", "0.12", "0.92", "0.42", 0, "10^9/L", 0, 0, "NORMAL", "", 7.0, "WEEK 6", 42, "TREATMENT", "2013-08-29T11:54", 42], ["CDISCPILOT01", "LB", "01-701-1028", 155, "MONO", "Monocytes", "HEMATOLOGY", "0.66", "10^9/L", "0.12", "0.92", "0.66", 0, "10^9/L", 0, 0, "NORMAL", "", 8.0, "WEEK 8", 56, "TREATMENT", "2013-09-10T09:13", 54], ["CDISCPILOT01", "LB", "01-701-1028", 187, "MONO", "Monocytes", "HEMATOLOGY", "0.50", "10^9/L", "0.12", "0.92", "0.5", 0, "10^9/L", 0, 0, "NORMAL", "", 9.0, "WEEK 12", 84, "TREATMENT", "2013-10-09T08:42", 83], ["CDISCPILOT01", "LB", "01-701-1028", 222, "MONO", "Monocytes", "HEMATOLOGY", "0.44", "10^9/L", "0.12", "0.92", "0.44", 0, "10^9/L", 0, 0, "NORMAL", "", 10.0, "WEEK 16", 112, "TREATMENT", "2013-11-06T10:08", 111], ["CDISCPILOT01", "LB", "01-701-1028", 253, "MONO", "Monocytes", "HEMATOLOGY", "0.47", "10^9/L", "0.12", "0.92", "0.47", 0, "10^9/L", 0, 0, "NORMAL", "", 11.0, "WEEK 20", 140, "TREATMENT", "2013-12-04T15:10", 139], ["CDISCPILOT01", "LB", "01-701-1028", 286, "MONO", "Monocytes", "HEMATOLOGY", "0.28", "10^9/L", "0.12", "0.92", "0.28", 0, "10^9/L", 0, 0, "NORMAL", "", 12.0, "WEEK 24", 168, "TREATMENT", "2014-01-06T10:00", 172], ["CDISCPILOT01", "LB", "01-701-1028", 321, "MONO", "Monocytes", "HEMATOLOGY", "0.37", "10^9/L", "0.12", "0.92", "0.37", 0, "10^9/L", 0, 0, "NORMAL", "", 13.0, "WEEK 26", 182, "TREATMENT", "2014-01-14T11:10", 180], ["CDISCPILOT01", "LB", "01-701-1028", 29, "PLAT", "Platelets", "HEMATOLOGY", "168", "10^9/L", "130", "394", "168", 168, "10^9/L", 130, 394, "NORMAL", "Y", 1.0, "SCREENING 1", -7, "SCREENING", "2013-07-11T12:02", -8], ["CDISCPILOT01", "LB", "01-701-1028", 66, "PLAT", "Platelets", "HEMATOLOGY", "177", "10^9/L", "130", "394", "177", 177, "10^9/L", 130, 394, "NORMAL", "", 4.0, "WEEK 2", 14, "TREATMENT", "2013-08-01T09:15", 14], ["CDISCPILOT01", "LB", "01-701-1028", 98, "PLAT", "Platelets", "HEMATOLOGY", "152", "10^9/L", "130", "394", "152", 152, "10^9/L", 130, 394, "NORMAL", "", 5.0, "WEEK 4", 28, "TREATMENT", "2013-08-14T13:24", 27], ["CDISCPILOT01", "LB", "01-701-1028", 128, "PLAT", "Platelets", "HEMATOLOGY", "181", "10^9/L", "130", "394", "181", 181, "10^9/L", 130, 394, "NORMAL", "", 7.0, "WEEK 6", 42, "TREATMENT", "2013-08-29T11:54", 42], ["CDISCPILOT01", "LB", "01-701-1028", 158, "PLAT", "Platelets", "HEMATOLOGY", "176", "10^9/L", "130", "394", "176", 176, "10^9/L", 130, 394, "NORMAL", "", 8.0, "WEEK 8", 56, "TREATMENT", "2013-09-10T09:13", 54], ["CDISCPILOT01", "LB", "01-701-1028", 191, "PLAT", "Platelets", "HEMATOLOGY", "167", "10^9/L", "130", "394", "167", 167, "10^9/L", 130, 394, "NORMAL", "", 9.0, "WEEK 12", 84, "TREATMENT", "2013-10-09T08:42", 83], ["CDISCPILOT01", "LB", "01-701-1028", 225, "PLAT", "Platelets", "HEMATOLOGY", "153", "10^9/L", "130", "394", "153", 153, "10^9/L", 130, 394, "NORMAL", "", 10.0, "WEEK 16", 112, "TREATMENT", "2013-11-06T10:08", 111], ["CDISCPILOT01", "LB", "01-701-1028", 256, "PLAT", "Platelets", "HEMATOLOGY", "160", "10^9/L", "130", "394", "160", 160, "10^9/L", 130, 394, "NORMAL", "", 11.0, "WEEK 20", 140, "TREATMENT", "2013-12-04T15:10", 139], ["CDISCPILOT01", "LB", "01-701-1028", 290, "PLAT", "Platelets", "HEMATOLOGY", "188", "10^9/L", "130", "394", "188", 188, "10^9/L", 130, 394, "NORMAL", "", 12.0, "WEEK 24", 168, "TREATMENT", "2014-01-06T10:00", 172], ["CDISCPILOT01", "LB", "01-701-1028", 324, "PLAT", "Platelets", "HEMATOLOGY", "161", "10^9/L", "130", "394", "161", 161, "10^9/L", 130, 394, "NORMAL", "", 13.0, "WEEK 26", 182, "TREATMENT", "2014-01-14T11:10", 180], ["CDISCPILOT01", "LB", "01-701-1028", 291, "POLYCHR", "Polychromasia", "HEMATOLOGY", "1", "", "", "", "1", 1, "", null, null, "ABNORMAL", "", 12.0, "WEEK 24", 168, "TREATMENT", "2014-01-06T10:00", 172], ["CDISCPILOT01", "LB", "01-701-1028", 31, "RBC", "Erythrocytes", "HEMATOLOGY", "4.50", "10^12/L", "4", "5.8", "4.5", 4, "10^12/L", 4, 5, "NORMAL", "Y", 1.0, "SCREENING 1", -7, "SCREENING", "2013-07-11T12:02", -8], ["CDISCPILOT01", "LB", "01-701-1028", 68, "RBC", "Erythrocytes", "HEMATOLOGY", "4.60", "10^12/L", "4", "5.8", "4.6", 4, "10^12/L", 4, 5, "NORMAL", "", 4.0, "WEEK 2", 14, "TREATMENT", "2013-08-01T09:15", 14], ["CDISCPILOT01", "LB", "01-701-1028", 100, "RBC", "Erythrocytes", "HEMATOLOGY", "4.50", "10^12/L", "4", "5.8", "4.5", 4, "10^12/L", 4, 5, "NORMAL", "", 5.0, "WEEK 4", 28, "TREATMENT", "2013-08-14T13:24", 27], ["CDISCPILOT01", "LB", "01-701-1028", 130, "RBC", "Erythrocytes", "HEMATOLOGY", "4.60", "10^12/L", "4", "5.8", "4.6", 4, "10^12/L", 4, 5, "NORMAL", "", 7.0, "WEEK 6", 42, "TREATMENT", "2013-08-29T11:54", 42], ["CDISCPILOT01", "LB", "01-701-1028", 160, "RBC", "Erythrocytes", "HEMATOLOGY", "4.50", "10^12/L", "4", "5.8", "4.5", 4, "10^12/L", 4, 5, "NORMAL", "", 8.0, "WEEK 8", 56, "TREATMENT", "2013-09-10T09:13", 54], ["CDISCPILOT01", "LB", "01-701-1028", 193, "RBC", "Erythrocytes", "HEMATOLOGY", "4.80", "10^12/L", "4", "5.8", "4.8", 4, "10^12/L", 4, 5, "NORMAL", "", 9.0, "WEEK 12", 84, "TREATMENT", "2013-10-09T08:42", 83], ["CDISCPILOT01", "LB", "01-701-1028", 227, "RBC", "Erythrocytes", "HEMATOLOGY", "4.20", "10^12/L", "4", "5.8", "4.2", 4, "10^12/L", 4, 5, "NORMAL", "", 10.0, "WEEK 16", 112, "TREATMENT", "2013-11-06T10:08", 111], ["CDISCPILOT01", "LB", "01-701-1028", 258, "RBC", "Erythrocytes", "HEMATOLOGY", "4.30", "10^12/L", "4", "5.8", "4.3", 4, "10^12/L", 4, 5, "NORMAL", "", 11.0, "WEEK 20", 140, "TREATMENT", "2013-12-04T15:10", 139], ["CDISCPILOT01", "LB", "01-701-1028", 293, "RBC", "Erythrocytes", "HEMATOLOGY", "4.60", "10^12/L", "4", "5.8", "4.6", 4, "10^12/L", 4, 5, "NORMAL", "", 12.0, "WEEK 24", 168, "TREATMENT", "2014-01-06T10:00", 172], ["CDISCPILOT01", "LB", "01-701-1028", 326, "RBC", "Erythrocytes", "HEMATOLOGY", "4.50", "10^12/L", "4", "5.8", "4.5", 4, "10^12/L", 4, 5, "NORMAL", "", 13.0, "WEEK 26", 182, "TREATMENT", "2014-01-14T11:10", 180], ["CDISCPILOT01", "LB", "01-701-1028", 37, "WBC", "Leukocytes", "HEMATOLOGY", "5.05", "10^9/L", "3.8", "10.7", "5.05", 5, "10^9/L", 3, 10, "NORMAL", "Y", 1.0, "SCREENING 1", -7, "SCREENING", "2013-07-11T12:02", -8], ["CDISCPILOT01", "LB", "01-701-1028", 72, "WBC", "Leukocytes", "HEMATOLOGY", "4.95", "10^9/L", "3.8", "10.7", "4.95", 4, "10^9/L", 3, 10, "NORMAL", "", 4.0, "WEEK 2", 14, "TREATMENT", "2013-08-01T09:15", 14], ["CDISCPILOT01", "LB", "01-701-1028", 102, "WBC", "Leukocytes", "HEMATOLOGY", "5.67", "10^9/L", "3.8", "10.7", "5.67", 5, "10^9/L", 3, 10, "NORMAL", "", 5.0, "WEEK 4", 28, "TREATMENT", "2013-08-14T13:24", 27], ["CDISCPILOT01", "LB", "01-701-1028", 132, "WBC", "Leukocytes", "HEMATOLOGY", "5.62", "10^9/L", "3.8", "10.7", "5.62", 5, "10^9/L", 3, 10, "NORMAL", "", 7.0, "WEEK 6", 42, "TREATMENT", "2013-08-29T11:54", 42], ["CDISCPILOT01", "LB", "01-701-1028", 162, "WBC", "Leukocytes", "HEMATOLOGY", "5.63", "10^9/L", "3.8", "10.7", "5.63", 5, "10^9/L", 3, 10, "NORMAL", "", 8.0, "WEEK 8", 56, "TREATMENT", "2013-09-10T09:13", 54], ["CDISCPILOT01", "LB", "01-701-1028", 197, "WBC", "Leukocytes", "HEMATOLOGY", "5.61", "10^9/L", "3.8", "10.7", "5.61", 5, "10^9/L", 3, 10, "NORMAL", "", 9.0, "WEEK 12", 84, "TREATMENT", "2013-10-09T08:42", 83], ["CDISCPILOT01", "LB", "01-701-1028", 229, "WBC", "Leukocytes", "HEMATOLOGY", "4.66", "10^9/L", "3.8", "10.7", "4.66", 4, "10^9/L", 3, 10, "NORMAL", "", 10.0, "WEEK 16", 112, "TREATMENT", "2013-11-06T10:08", 111], ["CDISCPILOT01", "LB", "01-701-1028", 260, "WBC", "Leukocytes", "HEMATOLOGY", "5.45", "10^9/L", "3.8", "10.7", "5.45", 5, "10^9/L", 3, 10, "NORMAL", "", 11.0, "WEEK 20", 140, "TREATMENT", "2013-12-04T15:10", 139], ["CDISCPILOT01", "LB", "01-701-1028", 297, "WBC", "Leukocytes", "HEMATOLOGY", "4.69", "10^9/L", "3.8", "10.7", "4.69", 4, "10^9/L", 3, 10, "NORMAL", "", 12.0, "WEEK 24", 168, "TREATMENT", "2014-01-06T10:00", 172], ["CDISCPILOT01", "LB", "01-701-1028", 328, "WBC", "Leukocytes", "HEMATOLOGY", "5.03", "10^9/L", "3.8", "10.7", "5.03", 5, "10^9/L", 3, 10, "NORMAL", "", 13.0, "WEEK 26", 182, "TREATMENT", "2014-01-14T11:10", 180], ["CDISCPILOT01", "LB", "01-701-1033", 5, "BASO", "Basophils", "HEMATOLOGY", "0.10", "10^9/L", "0", "0.2", "0.1", 0, "10^9/L", 0, 0, "NORMAL", "Y", 1.0, "SCREENING 1", -7, "SCREENING", "2014-03-10T12:31", -8], ["CDISCPILOT01", "LB", "01-701-1033", 42, "BASO", "Basophils", "HEMATOLOGY", "0.10", "10^9/L", "0", "0.2", "0.1", 0, "10^9/L", 0, 0, "NORMAL", "", 4.0, "WEEK 2", 14, "TREATMENT", "2014-04-01T08:55", 15], ["CDISCPILOT01", "LB", "01-701-1033", 77, "BASO", "Basophils", "HEMATOLOGY", "0.09", "10^9/L", "0", "0.2", "0.09", 0, "10^9/L", 0, 0, "NORMAL", "", 5.0, "WEEK 4", 28, "TREATMENT", "2014-04-14T10:38", 28], ["CDISCPILOT01", "LB", "01-701-1033", 14, "EOS", "Eosinophils", "HEMATOLOGY", "0.08", "10^9/L", "0", "0.57", "0.08", 0, "10^9/L", 0, 0, "NORMAL", "Y", 1.0, "SCREENING 1", -7, "SCREENING", "2014-03-10T12:31", -8], ["CDISCPILOT01", "LB", "01-701-1033", 51, "EOS", "Eosinophils", "HEMATOLOGY", "0.12", "10^9/L", "0", "0.57", "0.12", 0, "10^9/L", 0, 0, "NORMAL", "", 4.0, "WEEK 2", 14, "TREATMENT", "2014-04-01T08:55", 15], ["CDISCPILOT01", "LB", "01-701-1033", 86, "EOS", "Eosinophils", "HEMATOLOGY", "0.16", "10^9/L", "0", "0.57", "0.16", 0, "10^9/L", 0, 0, "NORMAL", "", 5.0, "WEEK 4", 28, "TREATMENT", "2014-04-14T10:38", 28], ["CDISCPILOT01", "LB", "01-701-1033", 17, "HCT", "Hematocrit", "HEMATOLOGY", "50.0", "%", "37", "51", "0.5", 0, "", 0, 0, "NORMAL", "Y", 1.0, "SCREENING 1", -7, "SCREENING", "2014-03-10T12:31", -8], ["CDISCPILOT01", "LB", "01-701-1033", 54, "HCT", "Hematocrit", "HEMATOLOGY", "49.0", "%", "37", "51", "0.49", 0, "", 0, 0, "NORMAL", "", 4.0, "WEEK 2", 14, "TREATMENT", "2014-04-01T08:55", 15], ["CDISCPILOT01", "LB", "01-701-1033", 89, "HCT", "Hematocrit", "HEMATOLOGY", "48.0", "%", "37", "51", "0.48", 0, "", 0, 0, "NORMAL", "", 5.0, "WEEK 4", 28, "TREATMENT", "2014-04-14T10:38", 28], ["CDISCPILOT01", "LB", "01-701-1033", 18, "HGB", "Hemoglobin", "HEMATOLOGY", "16.1", "g/dL", "12.5", "17", "9.99166", 9, "mmol/L", 7, 10, "NORMAL", "Y", 1.0, "SCREENING 1", -7, "SCREENING", "2014-03-10T12:31", -8], ["CDISCPILOT01", "LB", "01-701-1033", 55, "HGB", "Hemoglobin", "HEMATOLOGY", "16.4", "g/dL", "12.5", "17", "10.17784", 10, "mmol/L", 7, 10, "NORMAL", "", 4.0, "WEEK 2", 14, "TREATMENT", "2014-04-01T08:55", 15], ["CDISCPILOT01", "LB", "01-701-1033", 90, "HGB", "Hemoglobin", "HEMATOLOGY", "16.2", "g/dL", "12.5", "17", "10.05372", 10, "mmol/L", 7, 10, "NORMAL", "", 5.0, "WEEK 4", 28, "TREATMENT", "2014-04-14T10:38", 28], ["CDISCPILOT01", "LB", "01-701-1033", 21, "LYM", "Lymphocytes", "HEMATOLOGY", "3.03", "10^9/L", "0.8", "3", "3.03", 3, "10^9/L", 0, 3, "HIGH", "Y", 1.0, "SCREENING 1", -7, "SCREENING", "2014-03-10T12:31", -8], ["CDISCPILOT01", "LB", "01-701-1033", 58, "LYM", "Lymphocytes", "HEMATOLOGY", "2.54", "10^9/L", "0.8", "3", "2.54", 2, "10^9/L", 0, 3, "NORMAL", "", 4.0, "WEEK 2", 14, "TREATMENT", "2014-04-01T08:55", 15], ["CDISCPILOT01", "LB", "01-701-1033", 93, "LYM", "Lymphocytes", "HEMATOLOGY", "2.94", "10^9/L", "0.8", "3", "2.94", 2, "10^9/L", 0, 3, "NORMAL", "", 5.0, "WEEK 4", 28, "TREATMENT", "2014-04-14T10:38", 28], ["CDISCPILOT01", "LB", "01-701-1033", 22, "MCH", "Ery. Mean Corpuscular Hemoglobin", "HEMATOLOGY", "31", "pg", "26", "34", "1.92386", 1, "fmol", 1, 2, "NORMAL", "Y", 1.0, "SCREENING 1", -7, "SCREENING", "2014-03-10T12:31", -8], ["CDISCPILOT01", "LB", "01-701-1033", 59, "MCH", "Ery. Mean Corpuscular Hemoglobin", "HEMATOLOGY", "32", "pg", "26", "34", "1.98592", 1, "fmol", 1, 2, "NORMAL", "", 4.0, "WEEK 2", 14, "TREATMENT", "2014-04-01T08:55", 15], ["CDISCPILOT01", "LB", "01-701-1033", 94, "MCH", "Ery. Mean Corpuscular Hemoglobin", "HEMATOLOGY", "31", "pg", "26", "34", "1.92386", 1, "fmol", 1, 2, "NORMAL", "", 5.0, "WEEK 4", 28, "TREATMENT", "2014-04-14T10:38", 28], ["CDISCPILOT01", "LB", "01-701-1033", 23, "MCHC", "Ery. Mean Corpuscular HGB Concentration", "HEMATOLOGY", "32", "g/dL", "31", "38", "19.8592", 19, "mmol/L", 19, 24, "NORMAL", "Y", 1.0, "SCREENING 1", -7, "SCREENING", "2014-03-10T12:31", -8], ["CDISCPILOT01", "LB", "01-701-1033", 60, "MCHC", "Ery. Mean Corpuscular HGB Concentration", "HEMATOLOGY", "34", "g/dL", "31", "38", "21.1004", 21, "mmol/L", 19, 24, "NORMAL", "", 4.0, "WEEK 2", 14, "TREATMENT", "2014-04-01T08:55", 15], ["CDISCPILOT01", "LB", "01-701-1033", 95, "MCHC", "Ery. Mean Corpuscular HGB Concentration", "HEMATOLOGY", "34", "g/dL", "31", "38", "21.1004", 21, "mmol/L", 19, 24, "NORMAL", "", 5.0, "WEEK 4", 28, "TREATMENT", "2014-04-14T10:38", 28], ["CDISCPILOT01", "LB", "01-701-1033", 24, "MCV", "Ery. Mean Corpuscular Volume", "HEMATOLOGY", "95", "fL", "80", "100", "95", 95, "fL", 80, 100, "NORMAL", "Y", 1.0, "SCREENING 1", -7, "SCREENING", "2014-03-10T12:31", -8], ["CDISCPILOT01", "LB", "01-701-1033", 61, "MCV", "Ery. Mean Corpuscular Volume", "HEMATOLOGY", "95", "fL", "80", "100", "95", 95, "fL", 80, 100, "NORMAL", "", 4.0, "WEEK 2", 14, "TREATMENT", "2014-04-01T08:55", 15], ["CDISCPILOT01", "LB", "01-701-1033", 96, "MCV", "Ery. Mean Corpuscular Volume", "HEMATOLOGY", "94", "fL", "80", "100", "94", 94, "fL", 80, 100, "NORMAL", "", 5.0, "WEEK 4", 28, "TREATMENT", "2014-04-14T10:38", 28], ["CDISCPILOT01", "LB", "01-701-1033", 25, "MONO", "Monocytes", "HEMATOLOGY", "0.64", "10^9/L", "0.12", "0.92", "0.64", 0, "10^9/L", 0, 0, "NORMAL", "Y", 1.0, "SCREENING 1", -7, "SCREENING", "2014-03-10T12:31", -8], ["CDISCPILOT01", "LB", "01-701-1033", 62, "MONO", "Monocytes", "HEMATOLOGY", "0.49", "10^9/L", "0.12", "0.92", "0.49", 0, "10^9/L", 0, 0, "NORMAL", "", 4.0, "WEEK 2", 14, "TREATMENT", "2014-04-01T08:55", 15], ["CDISCPILOT01", "LB", "01-701-1033", 97, "MONO", "Monocytes", "HEMATOLOGY", "0.44", "10^9/L", "0.12", "0.92", "0.44", 0, "10^9/L", 0, 0, "NORMAL", "", 5.0, "WEEK 4", 28, "TREATMENT", "2014-04-14T10:38", 28], ["CDISCPILOT01", "LB", "01-701-1033", 29, "PLAT", "Platelets", "HEMATOLOGY", "190", "10^9/L", "130", "394", "190", 190, "10^9/L", 130, 394, "NORMAL", "Y", 1.0, "SCREENING 1", -7, "SCREENING", "2014-03-10T12:31", -8], ["CDISCPILOT01", "LB", "01-701-1033", 66, "PLAT", "Platelets", "HEMATOLOGY", "188", "10^9/L", "130", "394", "188", 188, "10^9/L", 130, 394, "NORMAL", "", 4.0, "WEEK 2", 14, "TREATMENT", "2014-04-01T08:55", 15], ["CDISCPILOT01", "LB", "01-701-1033", 101, "PLAT", "Platelets", "HEMATOLOGY", "158", "10^9/L", "130", "394", "158", 158, "10^9/L", 130, 394, "NORMAL", "", 5.0, "WEEK 4", 28, "TREATMENT", "2014-04-14T10:38", 28], ["CDISCPILOT01", "LB", "01-701-1033", 31, "RBC", "Erythrocytes", "HEMATOLOGY", "5.30", "10^12/L", "4", "5.8", "5.3", 5, "10^12/L", 4, 5, "NORMAL", "Y", 1.0, "SCREENING 1", -7, "SCREENING", "2014-03-10T12:31", -8], ["CDISCPILOT01", "LB", "01-701-1033", 68, "RBC", "Erythrocytes", "HEMATOLOGY", "5.20", "10^12/L", "4", "5.8", "5.2", 5, "10^12/L", 4, 5, "NORMAL", "", 4.0, "WEEK 2", 14, "TREATMENT", "2014-04-01T08:55", 15], ["CDISCPILOT01", "LB", "01-701-1033", 103, "RBC", "Erythrocytes", "HEMATOLOGY", "5.20", "10^12/L", "4", "5.8", "5.2", 5, "10^12/L", 4, 5, "NORMAL", "", 5.0, "WEEK 4", 28, "TREATMENT", "2014-04-14T10:38", 28], ["CDISCPILOT01", "LB", "01-701-1033", 37, "WBC", "Leukocytes", "HEMATOLOGY", "9.53", "10^9/L", "3.8", "10.7", "9.53", 9, "10^9/L", 3, 10, "NORMAL", "Y", 1.0, "SCREENING 1", -7, "SCREENING", "2014-03-10T12:31", -8], ["CDISCPILOT01", "LB", "01-701-1033", 72, "WBC", "Leukocytes", "HEMATOLOGY", "8.13", "10^9/L", "3.8", "10.7", "8.13", 8, "10^9/L", 3, 10, "NORMAL", "", 4.0, "WEEK 2", 14, "TREATMENT", "2014-04-01T08:55", 15], ["CDISCPILOT01", "LB", "01-701-1033", 107, "WBC", "Leukocytes", "HEMATOLOGY", "8.20", "10^9/L", "3.8", "10.7", "8.2", 8, "10^9/L", 3, 10, "NORMAL", "", 5.0, "WEEK 4", 28, "TREATMENT", "2014-04-14T10:38", 28], ["CDISCPILOT01", "LB", "01-701-1034", 4, "ANISO", "Anisocytes", "HEMATOLOGY", "1", "", "", "", "1", 1, "", null, null, "ABNORMAL", "Y", 1.0, "SCREENING 1", -7, "SCREENING", "2014-06-24T15:30", -7], ["CDISCPILOT01", "LB", "01-701-1034", 78, "ANISO", "Anisocytes", "HEMATOLOGY", "1", "", "", "", "1", 1, "", null, null, "ABNORMAL", "", 5.0, "WEEK 4", 28, "TREATMENT", "2014-07-29T08:40", 29], ["CDISCPILOT01", "LB", "01-701-1034", 109, "ANISO", "Anisocytes", "HEMATOLOGY", "1", "", "", "", "1", 1, "", null, null, "ABNORMAL", "", 7.0, "WEEK 6", 42, "TREATMENT", "2014-08-11T13:15", 42], ["CDISCPILOT01", "LB", "01-701-1034", 303, "ANISO", "Anisocytes", "HEMATOLOGY", "1", "", "", "", "1", 1, "", null, null, "ABNORMAL", "", 13.0, "WEEK 26", 182, "TREATMENT", "2014-12-30T09:50", 183], ["CDISCPILOT01", "LB", "01-701-1034", 6, "BASO", "Basophils", "HEMATOLOGY", "0.03", "10^9/L", "0", "0.2", "0.03", 0, "10^9/L", 0, 0, "NORMAL", "Y", 1.0, "SCREENING 1", -7, "SCREENING", "2014-06-24T15:30", -7], ["CDISCPILOT01", "LB", "01-701-1034", 43, "BASO", "Basophils", "HEMATOLOGY", "0.05", "10^9/L", "0", "0.2", "0.05", 0, "10^9/L", 0, 0, "NORMAL", "", 4.0, "WEEK 2", 14, "TREATMENT", "2014-07-15T09:25", 15], ["CDISCPILOT01", "LB", "01-701-1034", 80, "BASO", "Basophils", "HEMATOLOGY", "0.04", "10^9/L", "0", "0.2", "0.04", 0, "10^9/L", 0, 0, "NORMAL", "", 5.0, "WEEK 4", 28, "TREATMENT", "2014-07-29T08:40", 29], ["CDISCPILOT01", "LB", "01-701-1034", 111, "BASO", "Basophils", "HEMATOLOGY", "0.04", "10^9/L", "0", "0.2", "0.04", 0, "10^9/L", 0, 0, "NORMAL", "", 7.0, "WEEK 6", 42, "TREATMENT", "2014-08-11T13:15", 42], ["CDISCPILOT01", "LB", "01-701-1034", 141, "BASO", "Basophils", "HEMATOLOGY", "0.04", "10^9/L", "0", "0.2", "0.04", 0, "10^9/L", 0, 0, "NORMAL", "", 8.0, "WEEK 8", 56, "TREATMENT", "2014-08-26T09:57", 57], ["CDISCPILOT01", "LB", "01-701-1034", 171, "BASO", "Basophils", "HEMATOLOGY", "0.02", "10^9/L", "0", "0.2", "0.02", 0, "10^9/L", 0, 0, "NORMAL", "", 9.0, "WEEK 12", 84, "TREATMENT", "2014-09-25T15:40", 87], ["CDISCPILOT01", "LB", "01-701-1034", 206, "BASO", "Basophils", "HEMATOLOGY", "0.04", "10^9/L", "0", "0.2", "0.04", 0, "10^9/L", 0, 0, "NORMAL", "", 10.0, "WEEK 16", 112, "TREATMENT", "2014-10-21T09:52", 113], ["CDISCPILOT01", "LB", "01-701-1034", 237, "BASO", "Basophils", "HEMATOLOGY", "0.03", "10^9/L", "0", "0.2", "0.03", 0, "10^9/L", 0, 0, "NORMAL", "", 11.0, "WEEK 20", 140, "TREATMENT", "2014-11-18T12:23", 141], ["CDISCPILOT01", "LB", "01-701-1034", 268, "BASO", "Basophils", "HEMATOLOGY", "0.04", "10^9/L", "0", "0.2", "0.04", 0, "10^9/L", 0, 0, "NORMAL", "", 12.0, "WEEK 24", 168, "TREATMENT", "2014-12-17T14:27", 170], ["CDISCPILOT01", "LB", "01-701-1034", 305, "BASO", "Basophils", "HEMATOLOGY", "0.03", "10^9/L", "0", "0.2", "0.03", 0, "10^9/L", 0, 0, "NORMAL", "", 13.0, "WEEK 26", 182, "TREATMENT", "2014-12-30T09:50", 183], ["CDISCPILOT01", "LB", "01-701-1034", 15, "EOS", "Eosinophils", "HEMATOLOGY", "0.10", "10^9/L", "0", "0.57", "0.1", 0, "10^9/L", 0, 0, "NORMAL", "Y", 1.0, "SCREENING 1", -7, "SCREENING", "2014-06-24T15:30", -7], ["CDISCPILOT01", "LB", "01-701-1034", 52, "EOS", "Eosinophils", "HEMATOLOGY", "0.10", "10^9/L", "0", "0.57", "0.1", 0, "10^9/L", 0, 0, "NORMAL", "", 4.0, "WEEK 2", 14, "TREATMENT", "2014-07-15T09:25", 15], ["CDISCPILOT01", "LB", "01-701-1034", 88, "EOS", "Eosinophils", "HEMATOLOGY", "0.06", "10^9/L", "0", "0.57", "0.06", 0, "10^9/L", 0, 0, "NORMAL", "", 5.0, "WEEK 4", 28, "TREATMENT", "2014-07-29T08:40", 29], ["CDISCPILOT01", "LB", "01-701-1034", 119, "EOS", "Eosinophils", "HEMATOLOGY", "0.04", "10^9/L", "0", "0.57", "0.04", 0, "10^9/L", 0, 0, "NORMAL", "", 7.0, "WEEK 6", 42, "TREATMENT", "2014-08-11T13:15", 42], ["CDISCPILOT01", "LB", "01-701-1034", 149, "EOS", "Eosinophils", "HEMATOLOGY", "0.09", "10^9/L", "0", "0.57", "0.09", 0, "10^9/L", 0, 0, "NORMAL", "", 8.0, "WEEK 8", 56, "TREATMENT", "2014-08-26T09:57", 57], ["CDISCPILOT01", "LB", "01-701-1034", 180, "EOS", "Eosinophils", "HEMATOLOGY", "0.10", "10^9/L", "0", "0.57", "0.1", 0, "10^9/L", 0, 0, "NORMAL", "", 9.0, "WEEK 12", 84, "TREATMENT", "2014-09-25T15:40", 87], ["CDISCPILOT01", "LB", "01-701-1034", 214, "EOS", "Eosinophils", "HEMATOLOGY", "0.10", "10^9/L", "0", "0.57", "0.1", 0, "10^9/L", 0, 0, "NORMAL", "", 10.0, "WEEK 16", 112, "TREATMENT", "2014-10-21T09:52", 113], ["CDISCPILOT01", "LB", "01-701-1034", 245, "EOS", "Eosinophils", "HEMATOLOGY", "0.09", "10^9/L", "0", "0.57", "0.09", 0, "10^9/L", 0, 0, "NORMAL", "", 11.0, "WEEK 20", 140, "TREATMENT", "2014-11-18T12:23", 141], ["CDISCPILOT01", "LB", "01-701-1034", 277, "EOS", "Eosinophils", "HEMATOLOGY", "0.18", "10^9/L", "0", "0.57", "0.18", 0, "10^9/L", 0, 0, "NORMAL", "", 12.0, "WEEK 24", 168, "TREATMENT", "2014-12-17T14:27", 170], ["CDISCPILOT01", "LB", "01-701-1034", 313, "EOS", "Eosinophils", "HEMATOLOGY", "0.13", "10^9/L", "0", "0.57", "0.13", 0, "10^9/L", 0, 0, "NORMAL", "", 13.0, "WEEK 26", 182, "TREATMENT", "2014-12-30T09:50", 183], ["CDISCPILOT01", "LB", "01-701-1034", 18, "HCT", "Hematocrit", "HEMATOLOGY", "40.0", "%", "34", "48", "0.4", 0, "", 0, 0, "NORMAL", "Y", 1.0, "SCREENING 1", -7, "SCREENING", "2014-06-24T15:30", -7], ["CDISCPILOT01", "LB", "01-701-1034", 55, "HCT", "Hematocrit", "HEMATOLOGY", "42.0", "%", "34", "48", "0.42", 0, "", 0, 0, "NORMAL", "", 4.0, "WEEK 2", 14, "TREATMENT", "2014-07-15T09:25", 15], ["CDISCPILOT01", "LB", "01-701-1034", 91, "HCT", "Hematocrit", "HEMATOLOGY", "39.0", "%", "34", "48", "0.39", 0, "", 0, 0, "NORMAL", "", 5.0, "WEEK 4", 28, "TREATMENT", "2014-07-29T08:40", 29], ["CDISCPILOT01", "LB", "01-701-1034", 122, "HCT", "Hematocrit", "HEMATOLOGY", "38.0", "%", "34", "48", "0.38", 0, "", 0, 0, "NORMAL", "", 7.0, "WEEK 6", 42, "TREATMENT", "2014-08-11T13:15", 42], ["CDISCPILOT01", "LB", "01-701-1034", 152, "HCT", "Hematocrit", "HEMATOLOGY", "40.0", "%", "34", "48", "0.4", 0, "", 0, 0, "NORMAL", "", 8.0, "WEEK 8", 56, "TREATMENT", "2014-08-26T09:57", 57], ["CDISCPILOT01", "LB", "01-701-1034", 183, "HCT", "Hematocrit", "HEMATOLOGY", "39.0", "%", "34", "48", "0.39", 0, "", 0, 0, "NORMAL", "", 9.0, "WEEK 12", 84, "TREATMENT", "2014-09-25T15:40", 87], ["CDISCPILOT01", "LB", "01-701-1034", 217, "HCT", "Hematocrit", "HEMATOLOGY", "39.0", "%", "34", "48", "0.39", 0, "", 0, 0, "NORMAL", "", 10.0, "WEEK 16", 112, "TREATMENT", "2014-10-21T09:52", 113], ["CDISCPILOT01", "LB", "01-701-1034", 248, "HCT", "Hematocrit", "HEMATOLOGY", "40.0", "%", "34", "48", "0.4", 0, "", 0, 0, "NORMAL", "", 11.0, "WEEK 20", 140, "TREATMENT", "2014-11-18T12:23", 141], ["CDISCPILOT01", "LB", "01-701-1034", 280, "HCT", "Hematocrit", "HEMATOLOGY", "36.0", "%", "34", "48", "0.36", 0, "", 0, 0, "NORMAL", "", 12.0, "WEEK 24", 168, "TREATMENT", "2014-12-17T14:27", 170], ["CDISCPILOT01", "LB", "01-701-1034", 316, "HCT", "Hematocrit", "HEMATOLOGY", "37.0", "%", "34", "48", "0.37", 0, "", 0, 0, "NORMAL", "", 13.0, "WEEK 26", 182, "TREATMENT", "2014-12-30T09:50", 183], ["CDISCPILOT01", "LB", "01-701-1034", 19, "HGB", "Hemoglobin", "HEMATOLOGY", "13.2", "g/dL", "11.5", "15.8", "8.19192", 8, "mmol/L", 7, 9, "NORMAL", "Y", 1.0, "SCREENING 1", -7, "SCREENING", "2014-06-24T15:30", -7], ["CDISCPILOT01", "LB", "01-701-1034", 56, "HGB", "Hemoglobin", "HEMATOLOGY", "13.7", "g/dL", "11.5", "15.8", "8.50222", 8, "mmol/L", 7, 9, "NORMAL", "", 4.0, "WEEK 2", 14, "TREATMENT", "2014-07-15T09:25", 15], ["CDISCPILOT01", "LB", "01-701-1034", 92, "HGB", "Hemoglobin", "HEMATOLOGY", "12.8", "g/dL", "11.5", "15.8", "7.94368", 7, "mmol/L", 7, 9, "NORMAL", "", 5.0, "WEEK 4", 28, "TREATMENT", "2014-07-29T08:40", 29], ["CDISCPILOT01", "LB", "01-701-1034", 123, "HGB", "Hemoglobin", "HEMATOLOGY", "12.6", "g/dL", "11.5", "15.8", "7.81956", 7, "mmol/L", 7, 9, "NORMAL", "", 7.0, "WEEK 6", 42, "TREATMENT", "2014-08-11T13:15", 42], ["CDISCPILOT01", "LB", "01-701-1034", 153, "HGB", "Hemoglobin", "HEMATOLOGY", "13.4", "g/dL", "11.5", "15.8", "8.31604", 8, "mmol/L", 7, 9, "NORMAL", "", 8.0, "WEEK 8", 56, "TREATMENT", "2014-08-26T09:57", 57], ["CDISCPILOT01", "LB", "01-701-1034", 184, "HGB", "Hemoglobin", "HEMATOLOGY", "12.9", "g/dL", "11.5", "15.8", "8.00574", 8, "mmol/L", 7, 9, "NORMAL", "", 9.0, "WEEK 12", 84, "TREATMENT", "2014-09-25T15:40", 87], ["CDISCPILOT01", "LB", "01-701-1034", 218, "HGB", "Hemoglobin", "HEMATOLOGY", "13.1", "g/dL", "11.5", "15.8", "8.12986", 8, "mmol/L", 7, 9, "NORMAL", "", 10.0, "WEEK 16", 112, "TREATMENT", "2014-10-21T09:52", 113], ["CDISCPILOT01", "LB", "01-701-1034", 249, "HGB", "Hemoglobin", "HEMATOLOGY", "13.0", "g/dL", "11.5", "15.8", "8.0678", 8, "mmol/L", 7, 9, "NORMAL", "", 11.0, "WEEK 20", 140, "TREATMENT", "2014-11-18T12:23", 141], ["CDISCPILOT01", "LB", "01-701-1034", 281, "HGB", "Hemoglobin", "HEMATOLOGY", "13.0", "g/dL", "11.5", "15.8", "8.0678", 8, "mmol/L", 7, 9, "NORMAL", "", 12.0, "WEEK 24", 168, "TREATMENT", "2014-12-17T14:27", 170], ["CDISCPILOT01", "LB", "01-701-1034", 317, "HGB", "Hemoglobin", "HEMATOLOGY", "12.8", "g/dL", "11.5", "15.8", "7.94368", 7, "mmol/L", 7, 9, "NORMAL", "", 13.0, "WEEK 26", 182, "TREATMENT", "2014-12-30T09:50", 183], ["CDISCPILOT01", "LB", "01-701-1034", 22, "LYM", "Lymphocytes", "HEMATOLOGY", "2.46", "10^9/L", "0.8", "3", "2.46", 2, "10^9/L", 0, 3, "NORMAL", "Y", 1.0, "SCREENING 1", -7, "SCREENING", "2014-06-24T15:30", -7], ["CDISCPILOT01", "LB", "01-701-1034", 59, "LYM", "Lymphocytes", "HEMATOLOGY", "2.17", "10^9/L", "0.8", "3", "2.17", 2, "10^9/L", 0, 3, "NORMAL", "", 4.0, "WEEK 2", 14, "TREATMENT", "2014-07-15T09:25", 15], ["CDISCPILOT01", "LB", "01-701-1034", 94, "LYM", "Lymphocytes", "HEMATOLOGY", "1.99", "10^9/L", "0.8", "3", "1.99", 1, "10^9/L", 0, 3, "NORMAL", "", 5.0, "WEEK 4", 28, "TREATMENT", "2014-07-29T08:40", 29], ["CDISCPILOT01", "LB", "01-701-1034", 125, "LYM", "Lymphocytes", "HEMATOLOGY", "1.96", "10^9/L", "0.8", "3", "1.96", 1, "10^9/L", 0, 3, "NORMAL", "", 7.0, "WEEK 6", 42, "TREATMENT", "2014-08-11T13:15", 42], ["CDISCPILOT01", "LB", "01-701-1034", 155, "LYM", "Lymphocytes", "HEMATOLOGY", "2.41", "10^9/L", "0.8", "3", "2.41", 2, "10^9/L", 0, 3, "NORMAL", "", 8.0, "WEEK 8", 56, "TREATMENT", "2014-08-26T09:57", 57], ["CDISCPILOT01", "LB", "01-701-1034", 187, "LYM", "Lymphocytes", "HEMATOLOGY", "2.68", "10^9/L", "0.8", "3", "2.68", 2, "10^9/L", 0, 3, "NORMAL", "", 9.0, "WEEK 12", 84, "TREATMENT", "2014-09-25T15:40", 87], ["CDISCPILOT01", "LB", "01-701-1034", 220, "LYM", "Lymphocytes", "HEMATOLOGY", "1.92", "10^9/L", "0.8", "3", "1.92", 1, "10^9/L", 0, 3, "NORMAL", "", 10.0, "WEEK 16", 112, "TREATMENT", "2014-10-21T09:52", 113], ["CDISCPILOT01", "LB", "01-701-1034", 251, "LYM", "Lymphocytes", "HEMATOLOGY", "2.24", "10^9/L", "0.8", "3", "2.24", 2, "10^9/L", 0, 3, "NORMAL", "", 11.0, "WEEK 20", 140, "TREATMENT", "2014-11-18T12:23", 141], ["CDISCPILOT01", "LB", "01-701-1034", 284, "LYM", "Lymphocytes", "HEMATOLOGY", "2.77", "10^9/L", "0.8", "3", "2.77", 2, "10^9/L", 0, 3, "NORMAL", "", 12.0, "WEEK 24", 168, "TREATMENT", "2014-12-17T14:27", 170], ["CDISCPILOT01", "LB", "01-701-1034", 319, "LYM", "Lymphocytes", "HEMATOLOGY", "2.09", "10^9/L", "0.8", "3", "2.09", 2, "10^9/L", 0, 3, "NORMAL", "", 13.0, "WEEK 26", 182, "TREATMENT", "2014-12-30T09:50", 183], ["CDISCPILOT01", "LB", "01-701-1034", 60, "MACROCY", "Macrocytes", "HEMATOLOGY", "1", "", "", "", "1", 1, "", null, null, "ABNORMAL", "", 4.0, "WEEK 2", 14, "TREATMENT", "2014-07-15T09:25", 15], ["CDISCPILOT01", "LB", "01-701-1034", 221, "MACROCY", "Macrocytes", "HEMATOLOGY", "1", "", "", "", "1", 1, "", null, null, "ABNORMAL", "", 10.0, "WEEK 16", 112, "TREATMENT", "2014-10-21T09:52", 113], ["CDISCPILOT01", "LB", "01-701-1034", 252, "MACROCY", "Macrocytes", "HEMATOLOGY", "1", "", "", "", "1", 1, "", null, null, "ABNORMAL", "", 11.0, "WEEK 20", 140, "TREATMENT", "2014-11-18T12:23", 141], ["CDISCPILOT01", "LB", "01-701-1034", 285, "MACROCY", "Macrocytes", "HEMATOLOGY", "1", "", "", "", "1", 1, "", null, null, "ABNORMAL", "", 12.0, "WEEK 24", 168, "TREATMENT", "2014-12-17T14:27", 170], ["CDISCPILOT01", "LB", "01-701-1034", 23, "MCH", "Ery. Mean Corpuscular Hemoglobin", "HEMATOLOGY", "34", "pg", "26", "34", "2.11004", 2, "fmol", 1, 2, "NORMAL", "Y", 1.0, "SCREENING 1", -7, "SCREENING", "2014-06-24T15:30", -7], ["CDISCPILOT01", "LB", "01-701-1034", 61, "MCH", "Ery. Mean Corpuscular Hemoglobin", "HEMATOLOGY", "34", "pg", "26", "34", "2.11004", 2, "fmol", 1, 2, "NORMAL", "", 4.0, "WEEK 2", 14, "TREATMENT", "2014-07-15T09:25", 15], ["CDISCPILOT01", "LB", "01-701-1034", 95, "MCH", "Ery. Mean Corpuscular Hemoglobin", "HEMATOLOGY", "34", "pg", "26", "34", "2.11004", 2, "fmol", 1, 2, "NORMAL", "", 5.0, "WEEK 4", 28, "TREATMENT", "2014-07-29T08:40", 29], ["CDISCPILOT01", "LB", "01-701-1034", 126, "MCH", "Ery. Mean Corpuscular Hemoglobin", "HEMATOLOGY", "34", "pg", "26", "34", "2.11004", 2, "fmol", 1, 2, "NORMAL", "", 7.0, "WEEK 6", 42, "TREATMENT", "2014-08-11T13:15", 42], ["CDISCPILOT01", "LB", "01-701-1034", 156, "MCH", "Ery. Mean Corpuscular Hemoglobin", "HEMATOLOGY", "34", "pg", "26", "34", "2.11004", 2, "fmol", 1, 2, "NORMAL", "", 8.0, "WEEK 8", 56, "TREATMENT", "2014-08-26T09:57", 57], ["CDISCPILOT01", "LB", "01-701-1034", 188, "MCH", "Ery. Mean Corpuscular Hemoglobin", "HEMATOLOGY", "34", "pg", "26", "34", "2.11004", 2, "fmol", 1, 2, "NORMAL", "", 9.0, "WEEK 12", 84, "TREATMENT", "2014-09-25T15:40", 87], ["CDISCPILOT01", "LB", "01-701-1034", 222, "MCH", "Ery. Mean Corpuscular Hemoglobin", "HEMATOLOGY", "35", "pg", "26", "34", "2.1721", 2, "fmol", 1, 2, "HIGH", "", 10.0, "WEEK 16", 112, "TREATMENT", "2014-10-21T09:52", 113], ["CDISCPILOT01", "LB", "01-701-1034", 253, "MCH", "Ery. Mean Corpuscular Hemoglobin", "HEMATOLOGY", "33", "pg", "26", "34", "2.04798", 2, "fmol", 1, 2, "NORMAL", "", 11.0, "WEEK 20", 140, "TREATMENT", "2014-11-18T12:23", 141], ["CDISCPILOT01", "LB", "01-701-1034", 286, "MCH", "Ery. Mean Corpuscular Hemoglobin", "HEMATOLOGY", "37", "pg", "26", "34", "2.29622", 2, "fmol", 1, 2, "HIGH", "", 12.0, "WEEK 24", 168, "TREATMENT", "2014-12-17T14:27", 170], ["CDISCPILOT01", "LB", "01-701-1034", 320, "MCH", "Ery. Mean Corpuscular Hemoglobin", "HEMATOLOGY", "35", "pg", "26", "34", "2.1721", 2, "fmol", 1, 2, "HIGH", "", 13.0, "WEEK 26", 182, "TREATMENT", "2014-12-30T09:50", 183], ["CDISCPILOT01", "LB", "01-701-1034", 24, "MCHC", "Ery. Mean Corpuscular HGB Concentration", "HEMATOLOGY", "33", "g/dL", "31", "38", "20.4798", 20, "mmol/L", 19, 24, "NORMAL", "Y", 1.0, "SCREENING 1", -7, "SCREENING", "2014-06-24T15:30", -7], ["CDISCPILOT01", "LB", "01-701-1034", 62, "MCHC", "Ery. Mean Corpuscular HGB Concentration", "HEMATOLOGY", "33", "g/dL", "31", "38", "20.4798", 20, "mmol/L", 19, 24, "NORMAL", "", 4.0, "WEEK 2", 14, "TREATMENT", "2014-07-15T09:25", 15], ["CDISCPILOT01", "LB", "01-701-1034", 96, "MCHC", "Ery. Mean Corpuscular HGB Concentration", "HEMATOLOGY", "33", "g/dL", "31", "38", "20.4798", 20, "mmol/L", 19, 24, "NORMAL", "", 5.0, "WEEK 4", 28, "TREATMENT", "2014-07-29T08:40", 29], ["CDISCPILOT01", "LB", "01-701-1034", 127, "MCHC", "Ery. Mean Corpuscular HGB Concentration", "HEMATOLOGY", "33", "g/dL", "31", "38", "20.4798", 20, "mmol/L", 19, 24, "NORMAL", "", 7.0, "WEEK 6", 42, "TREATMENT", "2014-08-11T13:15", 42], ["CDISCPILOT01", "LB", "01-701-1034", 157, "MCHC", "Ery. Mean Corpuscular HGB Concentration", "HEMATOLOGY", "33", "g/dL", "31", "38", "20.4798", 20, "mmol/L", 19, 24, "NORMAL", "", 8.0, "WEEK 8", 56, "TREATMENT", "2014-08-26T09:57", 57], ["CDISCPILOT01", "LB", "01-701-1034", 189, "MCHC", "Ery. Mean Corpuscular HGB Concentration", "HEMATOLOGY", "33", "g/dL", "31", "38", "20.4798", 20, "mmol/L", 19, 24, "NORMAL", "", 9.0, "WEEK 12", 84, "TREATMENT", "2014-09-25T15:40", 87], ["CDISCPILOT01", "LB", "01-701-1034", 223, "MCHC", "Ery. Mean Corpuscular HGB Concentration", "HEMATOLOGY", "34", "g/dL", "31", "38", "21.1004", 21, "mmol/L", 19, 24, "NORMAL", "", 10.0, "WEEK 16", 112, "TREATMENT", "2014-10-21T09:52", 113], ["CDISCPILOT01", "LB", "01-701-1034", 254, "MCHC", "Ery. Mean Corpuscular HGB Concentration", "HEMATOLOGY", "32", "g/dL", "31", "38", "19.8592", 19, "mmol/L", 19, 24, "NORMAL", "", 11.0, "WEEK 20", 140, "TREATMENT", "2014-11-18T12:23", 141], ["CDISCPILOT01", "LB", "01-701-1034", 287, "MCHC", "Ery. Mean Corpuscular HGB Concentration", "HEMATOLOGY", "36", "g/dL", "31", "38", "22.3416", 22, "mmol/L", 19, 24, "NORMAL", "", 12.0, "WEEK 24", 168, "TREATMENT", "2014-12-17T14:27", 170], ["CDISCPILOT01", "LB", "01-701-1034", 321, "MCHC", "Ery. Mean Corpuscular HGB Concentration", "HEMATOLOGY", "34", "g/dL", "31", "38", "21.1004", 21, "mmol/L", 19, 24, "NORMAL", "", 13.0, "WEEK 26", 182, "TREATMENT", "2014-12-30T09:50", 183], ["CDISCPILOT01", "LB", "01-701-1034", 25, "MCV", "Ery. Mean Corpuscular Volume", "HEMATOLOGY", "102", "fL", "80", "100", "102", 102, "fL", 80, 100, "HIGH", "Y", 1.0, "SCREENING 1", -7, "SCREENING", "2014-06-24T15:30", -7], ["CDISCPILOT01", "LB", "01-701-1034", 63, "MCV", "Ery. Mean Corpuscular Volume", "HEMATOLOGY", "106", "fL", "80", "100", "106", 106, "fL", 80, 100, "HIGH", "", 4.0, "WEEK 2", 14, "TREATMENT", "2014-07-15T09:25", 15], ["CDISCPILOT01", "LB", "01-701-1034", 97, "MCV", "Ery. Mean Corpuscular Volume", "HEMATOLOGY", "103", "fL", "80", "100", "103", 103, "fL", 80, 100, "HIGH", "", 5.0, "WEEK 4", 28, "TREATMENT", "2014-07-29T08:40", 29], ["CDISCPILOT01", "LB", "01-701-1034", 128, "MCV", "Ery. Mean Corpuscular Volume", "HEMATOLOGY", "103", "fL", "80", "100", "103", 103, "fL", 80, 100, "HIGH", "", 7.0, "WEEK 6", 42, "TREATMENT", "2014-08-11T13:15", 42], ["CDISCPILOT01", "LB", "01-701-1034", 158, "MCV", "Ery. Mean Corpuscular Volume", "HEMATOLOGY", "101", "fL", "80", "100", "101", 101, "fL", 80, 100, "HIGH", "", 8.0, "WEEK 8", 56, "TREATMENT", "2014-08-26T09:57", 57], ["CDISCPILOT01", "LB", "01-701-1034", 190, "MCV", "Ery. Mean Corpuscular Volume", "HEMATOLOGY", "101", "fL", "80", "100", "101", 101, "fL", 80, 100, "HIGH", "", 9.0, "WEEK 12", 84, "TREATMENT", "2014-09-25T15:40", 87], ["CDISCPILOT01", "LB", "01-701-1034", 224, "MCV", "Ery. Mean Corpuscular Volume", "HEMATOLOGY", "103", "fL", "80", "100", "103", 103, "fL", 80, 100, "HIGH", "", 10.0, "WEEK 16", 112, "TREATMENT", "2014-10-21T09:52", 113], ["CDISCPILOT01", "LB", "01-701-1034", 255, "MCV", "Ery. Mean Corpuscular Volume", "HEMATOLOGY", "102", "fL", "80", "100", "102", 102, "fL", 80, 100, "HIGH", "", 11.0, "WEEK 20", 140, "TREATMENT", "2014-11-18T12:23", 141], ["CDISCPILOT01", "LB", "01-701-1034", 288, "MCV", "Ery. Mean Corpuscular Volume", "HEMATOLOGY", "102", "fL", "80", "100", "102", 102, "fL", 80, 100, "HIGH", "", 12.0, "WEEK 24", 168, "TREATMENT", "2014-12-17T14:27", 170], ["CDISCPILOT01", "LB", "01-701-1034", 322, "MCV", "Ery. Mean Corpuscular Volume", "HEMATOLOGY", "102", "fL", "80", "100", "102", 102, "fL", 80, 100, "HIGH", "", 13.0, "WEEK 26", 182, "TREATMENT", "2014-12-30T09:50", 183], ["CDISCPILOT01", "LB", "01-701-1034", 26, "MONO", "Monocytes", "HEMATOLOGY", "0.62", "10^9/L", "0.12", "0.92", "0.62", 0, "10^9/L", 0, 0, "NORMAL", "Y", 1.0, "SCREENING 1", -7, "SCREENING", "2014-06-24T15:30", -7], ["CDISCPILOT01", "LB", "01-701-1034", 64, "MONO", "Monocytes", "HEMATOLOGY", "0.66", "10^9/L", "0.12", "0.92", "0.66", 0, "10^9/L", 0, 0, "NORMAL", "", 4.0, "WEEK 2", 14, "TREATMENT", "2014-07-15T09:25", 15], ["CDISCPILOT01", "LB", "01-701-1034", 98, "MONO", "Monocytes", "HEMATOLOGY", "0.60", "10^9/L", "0.12", "0.92", "0.6", 0, "10^9/L", 0, 0, "NORMAL", "", 5.0, "WEEK 4", 28, "TREATMENT", "2014-07-29T08:40", 29], ["CDISCPILOT01", "LB", "01-701-1034", 129, "MONO", "Monocytes", "HEMATOLOGY", "0.66", "10^9/L", "0.12", "0.92", "0.66", 0, "10^9/L", 0, 0, "NORMAL", "", 7.0, "WEEK 6", 42, "TREATMENT", "2014-08-11T13:15", 42], ["CDISCPILOT01", "LB", "01-701-1034", 159, "MONO", "Monocytes", "HEMATOLOGY", "0.63", "10^9/L", "0.12", "0.92", "0.63", 0, "10^9/L", 0, 0, "NORMAL", "", 8.0, "WEEK 8", 56, "TREATMENT", "2014-08-26T09:57", 57], ["CDISCPILOT01", "LB", "01-701-1034", 191, "MONO", "Monocytes", "HEMATOLOGY", "0.40", "10^9/L", "0.12", "0.92", "0.4", 0, "10^9/L", 0, 0, "NORMAL", "", 9.0, "WEEK 12", 84, "TREATMENT", "2014-09-25T15:40", 87], ["CDISCPILOT01", "LB", "01-701-1034", 225, "MONO", "Monocytes", "HEMATOLOGY", "0.58", "10^9/L", "0.12", "0.92", "0.58", 0, "10^9/L", 0, 0, "NORMAL", "", 10.0, "WEEK 16", 112, "TREATMENT", "2014-10-21T09:52", 113], ["CDISCPILOT01", "LB", "01-701-1034", 256, "MONO", "Monocytes", "HEMATOLOGY", "0.63", "10^9/L", "0.12", "0.92", "0.63", 0, "10^9/L", 0, 0, "NORMAL", "", 11.0, "WEEK 20", 140, "TREATMENT", "2014-11-18T12:23", 141], ["CDISCPILOT01", "LB", "01-701-1034", 289, "MONO", "Monocytes", "HEMATOLOGY", "0.56", "10^9/L", "0.12", "0.92", "0.56", 0, "10^9/L", 0, 0, "NORMAL", "", 12.0, "WEEK 24", 168, "TREATMENT", "2014-12-17T14:27", 170], ["CDISCPILOT01", "LB", "01-701-1034", 323, "MONO", "Monocytes", "HEMATOLOGY", "0.58", "10^9/L", "0.12", "0.92", "0.58", 0, "10^9/L", 0, 0, "NORMAL", "", 13.0, "WEEK 26", 182, "TREATMENT", "2014-12-30T09:50", 183], ["CDISCPILOT01", "LB", "01-701-1034", 30, "PLAT", "Platelets", "HEMATOLOGY", "253", "10^9/L", "130", "394", "253", 253, "10^9/L", 130, 394, "NORMAL", "Y", 1.0, "SCREENING 1", -7, "SCREENING", "2014-06-24T15:30", -7], ["CDISCPILOT01", "LB", "01-701-1034", 68, "PLAT", "Platelets", "HEMATOLOGY", "239", "10^9/L", "130", "394", "239", 239, "10^9/L", 130, 394, "NORMAL", "", 4.0, "WEEK 2", 14, "TREATMENT", "2014-07-15T09:25", 15], ["CDISCPILOT01", "LB", "01-701-1034", 101, "PLAT", "Platelets", "HEMATOLOGY", "227", "10^9/L", "130", "394", "227", 227, "10^9/L", 130, 394, "NORMAL", "", 5.0, "WEEK 4", 28, "TREATMENT", "2014-07-29T08:40", 29], ["CDISCPILOT01", "LB", "01-701-1034", 132, "PLAT", "Platelets", "HEMATOLOGY", "208", "10^9/L", "130", "394", "208", 208, "10^9/L", 130, 394, "NORMAL", "", 7.0, "WEEK 6", 42, "TREATMENT", "2014-08-11T13:15", 42], ["CDISCPILOT01", "LB", "01-701-1034", 162, "PLAT", "Platelets", "HEMATOLOGY", "293", "10^9/L", "130", "394", "293", 293, "10^9/L", 130, 394, "NORMAL", "", 8.0, "WEEK 8", 56, "TREATMENT", "2014-08-26T09:57", 57], ["CDISCPILOT01", "LB", "01-701-1034", 195, "PLAT", "Platelets", "HEMATOLOGY", "267", "10^9/L", "130", "394", "267", 267, "10^9/L", 130, 394, "NORMAL", "", 9.0, "WEEK 12", 84, "TREATMENT", "2014-09-25T15:40", 87], ["CDISCPILOT01", "LB", "01-701-1034", 228, "PLAT", "Platelets", "HEMATOLOGY", "252", "10^9/L", "130", "394", "252", 252, "10^9/L", 130, 394, "NORMAL", "", 10.0, "WEEK 16", 112, "TREATMENT", "2014-10-21T09:52", 113], ["CDISCPILOT01", "LB", "01-701-1034", 259, "PLAT", "Platelets", "HEMATOLOGY", "274", "10^9/L", "130", "394", "274", 274, "10^9/L", 130, 394, "NORMAL", "", 11.0, "WEEK 20", 140, "TREATMENT", "2014-11-18T12:23", 141], ["CDISCPILOT01", "LB", "01-701-1034", 293, "PLAT", "Platelets", "HEMATOLOGY", "246", "10^9/L", "130", "394", "246", 246, "10^9/L", 130, 394, "NORMAL", "", 12.0, "WEEK 24", 168, "TREATMENT", "2014-12-17T14:27", 170], ["CDISCPILOT01", "LB", "01-701-1034", 326, "PLAT", "Platelets", "HEMATOLOGY", "267", "10^9/L", "130", "394", "267", 267, "10^9/L", 130, 394, "NORMAL", "", 13.0, "WEEK 26", 182, "TREATMENT", "2014-12-30T09:50", 183], ["CDISCPILOT01", "LB", "01-701-1034", 32, "RBC", "Erythrocytes", "HEMATOLOGY", "3.90", "10^12/L", "3.9", "5.5", "3.9", 3, "10^12/L", 3, 5, "NORMAL", "Y", 1.0, "SCREENING 1", -7, "SCREENING", "2014-06-24T15:30", -7], ["CDISCPILOT01", "LB", "01-701-1034", 70, "RBC", "Erythrocytes", "HEMATOLOGY", "4.00", "10^12/L", "3.9", "5.5", "4", 4, "10^12/L", 3, 5, "NORMAL", "", 4.0, "WEEK 2", 14, "TREATMENT", "2014-07-15T09:25", 15], ["CDISCPILOT01", "LB", "01-701-1034", 103, "RBC", "Erythrocytes", "HEMATOLOGY", "3.80", "10^12/L", "3.9", "5.5", "3.8", 3, "10^12/L", 3, 5, "LOW", "", 5.0, "WEEK 4", 28, "TREATMENT", "2014-07-29T08:40", 29], ["CDISCPILOT01", "LB", "01-701-1034", 134, "RBC", "Erythrocytes", "HEMATOLOGY", "3.70", "10^12/L", "3.9", "5.5", "3.7", 3, "10^12/L", 3, 5, "LOW", "", 7.0, "WEEK 6", 42, "TREATMENT", "2014-08-11T13:15", 42], ["CDISCPILOT01", "LB", "01-701-1034", 164, "RBC", "Erythrocytes", "HEMATOLOGY", "4.00", "10^12/L", "3.9", "5.5", "4", 4, "10^12/L", 3, 5, "NORMAL", "", 8.0, "WEEK 8", 56, "TREATMENT", "2014-08-26T09:57", 57], ["CDISCPILOT01", "LB", "01-701-1034", 197, "RBC", "Erythrocytes", "HEMATOLOGY", "3.80", "10^12/L", "3.9", "5.5", "3.8", 3, "10^12/L", 3, 5, "LOW", "", 9.0, "WEEK 12", 84, "TREATMENT", "2014-09-25T15:40", 87], ["CDISCPILOT01", "LB", "01-701-1034", 230, "RBC", "Erythrocytes", "HEMATOLOGY", "3.80", "10^12/L", "3.9", "5.5", "3.8", 3, "10^12/L", 3, 5, "LOW", "", 10.0, "WEEK 16", 112, "TREATMENT", "2014-10-21T09:52", 113], ["CDISCPILOT01", "LB", "01-701-1034", 261, "RBC", "Erythrocytes", "HEMATOLOGY", "3.90", "10^12/L", "3.9", "5.5", "3.9", 3, "10^12/L", 3, 5, "NORMAL", "", 11.0, "WEEK 20", 140, "TREATMENT", "2014-11-18T12:23", 141], ["CDISCPILOT01", "LB", "01-701-1034", 295, "RBC", "Erythrocytes", "HEMATOLOGY", "3.50", "10^12/L", "3.9", "5.5", "3.5", 3, "10^12/L", 3, 5, "LOW", "", 12.0, "WEEK 24", 168, "TREATMENT", "2014-12-17T14:27", 170], ["CDISCPILOT01", "LB", "01-701-1034", 328, "RBC", "Erythrocytes", "HEMATOLOGY", "3.70", "10^12/L", "3.9", "5.5", "3.7", 3, "10^12/L", 3, 5, "LOW", "", 13.0, "WEEK 26", 182, "TREATMENT", "2014-12-30T09:50", 183], ["CDISCPILOT01", "LB", "01-701-1034", 38, "WBC", "Leukocytes", "HEMATOLOGY", "7.10", "10^9/L", "3.8", "10.7", "7.1", 7, "10^9/L", 3, 10, "NORMAL", "Y", 1.0, "SCREENING 1", -7, "SCREENING", "2014-06-24T15:30", -7], ["CDISCPILOT01", "LB", "01-701-1034", 74, "WBC", "Leukocytes", "HEMATOLOGY", "8.35", "10^9/L", "3.8", "10.7", "8.35", 8, "10^9/L", 3, 10, "NORMAL", "", 4.0, "WEEK 2", 14, "TREATMENT", "2014-07-15T09:25", 15], ["CDISCPILOT01", "LB", "01-701-1034", 105, "WBC", "Leukocytes", "HEMATOLOGY", "5.66", "10^9/L", "3.8", "10.7", "5.66", 5, "10^9/L", 3, 10, "NORMAL", "", 5.0, "WEEK 4", 28, "TREATMENT", "2014-07-29T08:40", 29], ["CDISCPILOT01", "LB", "01-701-1034", 136, "WBC", "Leukocytes", "HEMATOLOGY", "10.46", "10^9/L", "3.8", "10.7", "10.46", 10, "10^9/L", 3, 10, "NORMAL", "", 7.0, "WEEK 6", 42, "TREATMENT", "2014-08-11T13:15", 42], ["CDISCPILOT01", "LB", "01-701-1034", 166, "WBC", "Leukocytes", "HEMATOLOGY", "6.90", "10^9/L", "3.8", "10.7", "6.9", 6, "10^9/L", 3, 10, "NORMAL", "", 8.0, "WEEK 8", 56, "TREATMENT", "2014-08-26T09:57", 57], ["CDISCPILOT01", "LB", "01-701-1034", 201, "WBC", "Leukocytes", "HEMATOLOGY", "7.45", "10^9/L", "3.8", "10.7", "7.45", 7, "10^9/L", 3, 10, "NORMAL", "", 9.0, "WEEK 12", 84, "TREATMENT", "2014-09-25T15:40", 87], ["CDISCPILOT01", "LB", "01-701-1034", 232, "WBC", "Leukocytes", "HEMATOLOGY", "6.72", "10^9/L", "3.8", "10.7", "6.72", 6, "10^9/L", 3, 10, "NORMAL", "", 10.0, "WEEK 16", 112, "TREATMENT", "2014-10-21T09:52", 113], ["CDISCPILOT01", "LB", "01-701-1034", 263, "WBC", "Leukocytes", "HEMATOLOGY", "8.26", "10^9/L", "3.8", "10.7", "8.26", 8, "10^9/L", 3, 10, "NORMAL", "", 11.0, "WEEK 20", 140, "TREATMENT", "2014-11-18T12:23", 141], ["CDISCPILOT01", "LB", "01-701-1034", 299, "WBC", "Leukocytes", "HEMATOLOGY", "9.71", "10^9/L", "3.8", "10.7", "9.71", 9, "10^9/L", 3, 10, "NORMAL", "", 12.0, "WEEK 24", 168, "TREATMENT", "2014-12-17T14:27", 170], ["CDISCPILOT01", "LB", "01-701-1034", 330, "WBC", "Leukocytes", "HEMATOLOGY", "9.08", "10^9/L", "3.8", "10.7", "9.08", 9, "10^9/L", 3, 10, "NORMAL", "", 13.0, "WEEK 26", 182, "TREATMENT", "2014-12-30T09:50", 183], ["CDISCPILOT01", "LB", "01-701-1047", 5, "BASO", "Basophils", "HEMATOLOGY", "0.05", "10^9/L", "0", "0.2", "0.05", 0, "10^9/L", 0, 0, "NORMAL", "Y", 1.0, "SCREENING 1", -7, "SCREENING", "2013-01-22T14:36", -21], ["CDISCPILOT01", "LB", "01-701-1047", 42, "BASO", "Basophils", "HEMATOLOGY", "0.05", "10^9/L", "0", "0.2", "0.05", 0, "10^9/L", 0, 0, "NORMAL", "", 4.0, "WEEK 2", 14, "TREATMENT", "2013-02-25T12:10", 14], ["CDISCPILOT01", "LB", "01-701-1047", 77, "BASO", "Basophils", "HEMATOLOGY", "0.04", "10^9/L", "0", "0.2", "0.04", 0, "10^9/L", 0, 0, "NORMAL", "", 5.0, "WEEK 4", 28, "TREATMENT", "2013-03-10T13:53", 27], ["CDISCPILOT01", "LB", "01-701-1047", 103, "BASO", "Basophils", "HEMATOLOGY", "0.03", "10^9/L", "0", "0.2", "0.03", 0, "10^9/L", 0, 0, "NORMAL", "", 6.0, "AMBUL ECG REMOVAL", 30, "TREATMENT", "2013-03-29T12:53", 46], ["CDISCPILOT01", "LB", "01-701-1047", 14, "EOS", "Eosinophils", "HEMATOLOGY", "0.09", "10^9/L", "0", "0.57", "0.09", 0, "10^9/L", 0, 0, "NORMAL", "Y", 1.0, "SCREENING 1", -7, "SCREENING", "2013-01-22T14:36", -21], ["CDISCPILOT01", "LB", "01-701-1047", 51, "EOS", "Eosinophils", "HEMATOLOGY", "0.15", "10^9/L", "0", "0.57", "0.15", 0, "10^9/L", 0, 0, "NORMAL", "", 4.0, "WEEK 2", 14, "TREATMENT", "2013-02-25T12:10", 14], ["CDISCPILOT01", "LB", "01-701-1047", 85, "EOS", "Eosinophils", "HEMATOLOGY", "0.22", "10^9/L", "0", "0.57", "0.22", 0, "10^9/L", 0, 0, "NORMAL", "", 5.0, "WEEK 4", 28, "TREATMENT", "2013-03-10T13:53", 27], ["CDISCPILOT01", "LB", "01-701-1047", 105, "EOS", "Eosinophils", "HEMATOLOGY", "0.21", "10^9/L", "0", "0.57", "0.21", 0, "10^9/L", 0, 0, "NORMAL", "", 6.0, "AMBUL ECG REMOVAL", 30, "TREATMENT", "2013-03-29T12:53", 46], ["CDISCPILOT01", "LB", "01-701-1047", 17, "HCT", "Hematocrit", "HEMATOLOGY", "46.0", "%", "34", "48", "0.46", 0, "", 0, 0, "NORMAL", "Y", 1.0, "SCREENING 1", -7, "SCREENING", "2013-01-22T14:36", -21], ["CDISCPILOT01", "LB", "01-701-1047", 54, "HCT", "Hematocrit", "HEMATOLOGY", "43.0", "%", "34", "48", "0.43", 0, "", 0, 0, "NORMAL", "", 4.0, "WEEK 2", 14, "TREATMENT", "2013-02-25T12:10", 14], ["CDISCPILOT01", "LB", "01-701-1047", 88, "HCT", "Hematocrit", "HEMATOLOGY", "40.0", "%", "34", "48", "0.4", 0, "", 0, 0, "NORMAL", "", 5.0, "WEEK 4", 28, "TREATMENT", "2013-03-10T13:53", 27], ["CDISCPILOT01", "LB", "01-701-1047", 106, "HCT", "Hematocrit", "HEMATOLOGY", "40.0", "%", "34", "48", "0.4", 0, "", 0, 0, "NORMAL", "", 6.0, "AMBUL ECG REMOVAL", 30, "TREATMENT", "2013-03-29T12:53", 46], ["CDISCPILOT01", "LB", "01-701-1047", 18, "HGB", "Hemoglobin", "HEMATOLOGY", "15.3", "g/dL", "11.5", "15.8", "9.49518", 9, "mmol/L", 7, 9, "NORMAL", "Y", 1.0, "SCREENING 1", -7, "SCREENING", "2013-01-22T14:36", -21], ["CDISCPILOT01", "LB", "01-701-1047", 55, "HGB", "Hemoglobin", "HEMATOLOGY", "14.0", "g/dL", "11.5", "15.8", "8.6884", 8, "mmol/L", 7, 9, "NORMAL", "", 4.0, "WEEK 2", 14, "TREATMENT", "2013-02-25T12:10", 14], ["CDISCPILOT01", "LB", "01-701-1047", 89, "HGB", "Hemoglobin", "HEMATOLOGY", "13.5", "g/dL", "11.5", "15.8", "8.3781", 8, "mmol/L", 7, 9, "NORMAL", "", 5.0, "WEEK 4", 28, "TREATMENT", "2013-03-10T13:53", 27], ["CDISCPILOT01", "LB", "01-701-1047", 107, "HGB", "Hemoglobin", "HEMATOLOGY", "13.3", "g/dL", "11.5", "15.8", "8.25398", 8, "mmol/L", 7, 9, "NORMAL", "", 6.0, "AMBUL ECG REMOVAL", 30, "TREATMENT", "2013-03-29T12:53", 46], ["CDISCPILOT01", "LB", "01-701-1047", 21, "LYM", "Lymphocytes", "HEMATOLOGY", "2.46", "10^9/L", "0.8", "3", "2.46", 2, "10^9/L", 0, 3, "NORMAL", "Y", 1.0, "SCREENING 1", -7, "SCREENING", "2013-01-22T14:36", -21], ["CDISCPILOT01", "LB", "01-701-1047", 58, "LYM", "Lymphocytes", "HEMATOLOGY", "2.15", "10^9/L", "0.8", "3", "2.15", 2, "10^9/L", 0, 3, "NORMAL", "", 4.0, "WEEK 2", 14, "TREATMENT", "2013-02-25T12:10", 14], ["CDISCPILOT01", "LB", "01-701-1047", 91, "LYM", "Lymphocytes", "HEMATOLOGY", "2.06", "10^9/L", "0.8", "3", "2.06", 2, "10^9/L", 0, 3, "NORMAL", "", 5.0, "WEEK 4", 28, "TREATMENT", "2013-03-10T13:53", 27], ["CDISCPILOT01", "LB", "01-701-1047", 109, "LYM", "Lymphocytes", "HEMATOLOGY", "1.84", "10^9/L", "0.8", "3", "1.84", 1, "10^9/L", 0, 3, "NORMAL", "", 6.0, "AMBUL ECG REMOVAL", 30, "TREATMENT", "2013-03-29T12:53", 46], ["CDISCPILOT01", "LB", "01-701-1047", 22, "MCH", "Ery. Mean Corpuscular Hemoglobin", "HEMATOLOGY", "33", "pg", "26", "34", "2.04798", 2, "fmol", 1, 2, "NORMAL", "Y", 1.0, "SCREENING 1", -7, "SCREENING", "2013-01-22T14:36", -21], ["CDISCPILOT01", "LB", "01-701-1047", 59, "MCH", "Ery. Mean Corpuscular Hemoglobin", "HEMATOLOGY", "31", "pg", "26", "34", "1.92386", 1, "fmol", 1, 2, "NORMAL", "", 4.0, "WEEK 2", 14, "TREATMENT", "2013-02-25T12:10", 14], ["CDISCPILOT01", "LB", "01-701-1047", 92, "MCH", "Ery. Mean Corpuscular Hemoglobin", "HEMATOLOGY", "32", "pg", "26", "34", "1.98592", 1, "fmol", 1, 2, "NORMAL", "", 5.0, "WEEK 4", 28, "TREATMENT", "2013-03-10T13:53", 27], ["CDISCPILOT01", "LB", "01-701-1047", 110, "MCH", "Ery. Mean Corpuscular Hemoglobin", "HEMATOLOGY", "32", "pg", "26", "34", "1.98592", 1, "fmol", 1, 2, "NORMAL", "", 6.0, "AMBUL ECG REMOVAL", 30, "TREATMENT", "2013-03-29T12:53", 46], ["CDISCPILOT01", "LB", "01-701-1047", 23, "MCHC", "Ery. Mean Corpuscular HGB Concentration", "HEMATOLOGY", "34", "g/dL", "31", "38", "21.1004", 21, "mmol/L", 19, 24, "NORMAL", "Y", 1.0, "SCREENING 1", -7, "SCREENING", "2013-01-22T14:36", -21], ["CDISCPILOT01", "LB", "01-701-1047", 60, "MCHC", "Ery. Mean Corpuscular HGB Concentration", "HEMATOLOGY", "33", "g/dL", "31", "38", "20.4798", 20, "mmol/L", 19, 24, "NORMAL", "", 4.0, "WEEK 2", 14, "TREATMENT", "2013-02-25T12:10", 14], ["CDISCPILOT01", "LB", "01-701-1047", 93, "MCHC", "Ery. Mean Corpuscular HGB Concentration", "HEMATOLOGY", "34", "g/dL", "31", "38", "21.1004", 21, "mmol/L", 19, 24, "NORMAL", "", 5.0, "WEEK 4", 28, "TREATMENT", "2013-03-10T13:53", 27], ["CDISCPILOT01", "LB", "01-701-1047", 111, "MCHC", "Ery. Mean Corpuscular HGB Concentration", "HEMATOLOGY", "33", "g/dL", "31", "38", "20.4798", 20, "mmol/L", 19, 24, "NORMAL", "", 6.0, "AMBUL ECG REMOVAL", 30, "TREATMENT", "2013-03-29T12:53", 46], ["CDISCPILOT01", "LB", "01-701-1047", 24, "MCV", "Ery. Mean Corpuscular Volume", "HEMATOLOGY", "97", "fL", "80", "100", "97", 97, "fL", 80, 100, "NORMAL", "Y", 1.0, "SCREENING 1", -7, "SCREENING", "2013-01-22T14:36", -21], ["CDISCPILOT01", "LB", "01-701-1047", 61, "MCV", "Ery. Mean Corpuscular Volume", "HEMATOLOGY", "95", "fL", "80", "100", "95", 95, "fL", 80, 100, "NORMAL", "", 4.0, "WEEK 2", 14, "TREATMENT", "2013-02-25T12:10", 14], ["CDISCPILOT01", "LB", "01-701-1047", 94, "MCV", "Ery. Mean Corpuscular Volume", "HEMATOLOGY", "94", "fL", "80", "100", "94", 94, "fL", 80, 100, "NORMAL", "", 5.0, "WEEK 4", 28, "TREATMENT", "2013-03-10T13:53", 27], ["CDISCPILOT01", "LB", "01-701-1047", 112, "MCV", "Ery. Mean Corpuscular Volume", "HEMATOLOGY", "96", "fL", "80", "100", "96", 96, "fL", 80, 100, "NORMAL", "", 6.0, "AMBUL ECG REMOVAL", 30, "TREATMENT", "2013-03-29T12:53", 46], ["CDISCPILOT01", "LB", "01-701-1047", 25, "MONO", "Monocytes", "HEMATOLOGY", "0.36", "10^9/L", "0.12", "0.92", "0.36", 0, "10^9/L", 0, 0, "NORMAL", "Y", 1.0, "SCREENING 1", -7, "SCREENING", "2013-01-22T14:36", -21], ["CDISCPILOT01", "LB", "01-701-1047", 62, "MONO", "Monocytes", "HEMATOLOGY", "0.36", "10^9/L", "0.12", "0.92", "0.36", 0, "10^9/L", 0, 0, "NORMAL", "", 4.0, "WEEK 2", 14, "TREATMENT", "2013-02-25T12:10", 14], ["CDISCPILOT01", "LB", "01-701-1047", 95, "MONO", "Monocytes", "HEMATOLOGY", "0.37", "10^9/L", "0.12", "0.92", "0.37", 0, "10^9/L", 0, 0, "NORMAL", "", 5.0, "WEEK 4", 28, "TREATMENT", "2013-03-10T13:53", 27], ["CDISCPILOT01", "LB", "01-701-1047", 113, "MONO", "Monocytes", "HEMATOLOGY", "0.42", "10^9/L", "0.12", "0.92", "0.42", 0, "10^9/L", 0, 0, "NORMAL", "", 6.0, "AMBUL ECG REMOVAL", 30, "TREATMENT", "2013-03-29T12:53", 46], ["CDISCPILOT01", "LB", "01-701-1047", 29, "PLAT", "Platelets", "HEMATOLOGY", "224", "10^9/L", "130", "394", "224", 224, "10^9/L", 130, 394, "NORMAL", "Y", 1.0, "SCREENING 1", -7, "SCREENING", "2013-01-22T14:36", -21], ["CDISCPILOT01", "LB", "01-701-1047", 66, "PLAT", "Platelets", "HEMATOLOGY", "224", "10^9/L", "130", "394", "224", 224, "10^9/L", 130, 394, "NORMAL", "", 4.0, "WEEK 2", 14, "TREATMENT", "2013-02-25T12:10", 14], ["CDISCPILOT01", "LB", "01-701-1047", 98, "PLAT", "Platelets", "HEMATOLOGY", "225", "10^9/L", "130", "394", "225", 225, "10^9/L", 130, 394, "NORMAL", "", 5.0, "WEEK 4", 28, "TREATMENT", "2013-03-10T13:53", 27], ["CDISCPILOT01", "LB", "01-701-1047", 115, "PLAT", "Platelets", "HEMATOLOGY", "194", "10^9/L", "130", "394", "194", 194, "10^9/L", 130, 394, "NORMAL", "", 6.0, "AMBUL ECG REMOVAL", 30, "TREATMENT", "2013-03-29T12:53", 46], ["CDISCPILOT01", "LB", "01-701-1047", 31, "RBC", "Erythrocytes", "HEMATOLOGY", "4.70", "10^12/L", "3.9", "5.5", "4.7", 4, "10^12/L", 3, 5, "NORMAL", "Y", 1.0, "SCREENING 1", -7, "SCREENING", "2013-01-22T14:36", -21], ["CDISCPILOT01", "LB", "01-701-1047", 68, "RBC", "Erythrocytes", "HEMATOLOGY", "4.50", "10^12/L", "3.9", "5.5", "4.5", 4, "10^12/L", 3, 5, "NORMAL", "", 4.0, "WEEK 2", 14, "TREATMENT", "2013-02-25T12:10", 14], ["CDISCPILOT01", "LB", "01-701-1047", 100, "RBC", "Erythrocytes", "HEMATOLOGY", "4.30", "10^12/L", "3.9", "5.5", "4.3", 4, "10^12/L", 3, 5, "NORMAL", "", 5.0, "WEEK 4", 28, "TREATMENT", "2013-03-10T13:53", 27], ["CDISCPILOT01", "LB", "01-701-1047", 116, "RBC", "Erythrocytes", "HEMATOLOGY", "4.20", "10^12/L", "3.9", "5.5", "4.2", 4, "10^12/L", 3, 5, "NORMAL", "", 6.0, "AMBUL ECG REMOVAL", 30, "TREATMENT", "2013-03-29T12:53", 46], ["CDISCPILOT01", "LB", "01-701-1047", 37, "WBC", "Leukocytes", "HEMATOLOGY", "7.15", "10^9/L", "3.8", "10.7", "7.15", 7, "10^9/L", 3, 10, "NORMAL", "Y", 1.0, "SCREENING 1", -7, "SCREENING", "2013-01-22T14:36", -21], ["CDISCPILOT01", "LB", "01-701-1047", 72, "WBC", "Leukocytes", "HEMATOLOGY", "5.88", "10^9/L", "3.8", "10.7", "5.88", 5, "10^9/L", 3, 10, "NORMAL", "", 4.0, "WEEK 2", 14, "TREATMENT", "2013-02-25T12:10", 14], ["CDISCPILOT01", "LB", "01-701-1047", 102, "WBC", "Leukocytes", "HEMATOLOGY", "5.68", "10^9/L", "3.8", "10.7", "5.68", 5, "10^9/L", 3, 10, "NORMAL", "", 5.0, "WEEK 4", 28, "TREATMENT", "2013-03-10T13:53", 27], ["CDISCPILOT01", "LB", "01-701-1047", 119, "WBC", "Leukocytes", "HEMATOLOGY", "7.68", "10^9/L", "3.8", "10.7", "7.68", 7, "10^9/L", 3, 10, "NORMAL", "", 6.0, "AMBUL ECG REMOVAL", 30, "TREATMENT", "2013-03-29T12:53", 46], ["CDISCPILOT01", "LB", "01-701-1097", 5, "BASO", "Basophils", "HEMATOLOGY", "0.06", "10^9/L", "0", "0.2", "0.06", 0, "10^9/L", 0, 0, "NORMAL", "Y", 1.0, "SCREENING 1", -7, "SCREENING", "2013-12-23T12:30", -9], ["CDISCPILOT01", "LB", "01-701-1097", 42, "BASO", "Basophils", "HEMATOLOGY", "0.05", "10^9/L", "0", "0.2", "0.05", 0, "10^9/L", 0, 0, "NORMAL", "", 4.0, "WEEK 2", 14, "TREATMENT", "2014-01-15T10:03", 15], ["CDISCPILOT01", "LB", "01-701-1097", 77, "BASO", "Basophils", "HEMATOLOGY", "0.06", "10^9/L", "0", "0.2", "0.06", 0, "10^9/L", 0, 0, "NORMAL", "", 5.0, "WEEK 4", 28, "TREATMENT", "2014-01-29T14:00", 29], ["CDISCPILOT01", "LB", "01-701-1097", 107, "BASO", "Basophils", "HEMATOLOGY", "0.07", "10^9/L", "0", "0.2", "0.07", 0, "10^9/L", 0, 0, "NORMAL", "", 7.0, "WEEK 6", 42, "TREATMENT", "2014-02-11T11:16", 42], ["CDISCPILOT01", "LB", "01-701-1097", 137, "BASO", "Basophils", "HEMATOLOGY", "0.08", "10^9/L", "0", "0.2", "0.08", 0, "10^9/L", 0, 0, "NORMAL", "", 8.0, "WEEK 8", 56, "TREATMENT", "2014-02-26T11:10", 57], ["CDISCPILOT01", "LB", "01-701-1097", 167, "BASO", "Basophils", "HEMATOLOGY", "0.06", "10^9/L", "0", "0.2", "0.06", 0, "10^9/L", 0, 0, "NORMAL", "", 9.0, "WEEK 12", 84, "TREATMENT", "2014-03-26T08:55", 85], ["CDISCPILOT01", "LB", "01-701-1097", 202, "BASO", "Basophils", "HEMATOLOGY", "0.08", "10^9/L", "0", "0.2", "0.08", 0, "10^9/L", 0, 0, "NORMAL", "", 10.0, "WEEK 16", 112, "TREATMENT", "2014-04-23T11:14", 113], ["CDISCPILOT01", "LB", "01-701-1097", 232, "BASO", "Basophils", "HEMATOLOGY", "0.04", "10^9/L", "0", "0.2", "0.04", 0, "10^9/L", 0, 0, "NORMAL", "", 11.0, "WEEK 20", 140, "TREATMENT", "2014-05-21T15:06", 141], ["CDISCPILOT01", "LB", "01-701-1097", 262, "BASO", "Basophils", "HEMATOLOGY", "0.06", "10^9/L", "0", "0.2", "0.06", 0, "10^9/L", 0, 0, "NORMAL", "", 12.0, "WEEK 24", 168, "TREATMENT", "2014-06-18T10:41", 169], ["CDISCPILOT01", "LB", "01-701-1097", 297, "BASO", "Basophils", "HEMATOLOGY", "0.06", "10^9/L", "0", "0.2", "0.06", 0, "10^9/L", 0, 0, "NORMAL", "", 13.0, "WEEK 26", 182, "TREATMENT", "2014-07-09T09:39", 190], ["CDISCPILOT01", "LB", "01-701-1097", 14, "EOS", "Eosinophils", "HEMATOLOGY", "0.08", "10^9/L", "0", "0.57", "0.08", 0, "10^9/L", 0, 0, "NORMAL", "Y", 1.0, "SCREENING 1", -7, "SCREENING", "2013-12-23T12:30", -9], ["CDISCPILOT01", "LB", "01-701-1097", 51, "EOS", "Eosinophils", "HEMATOLOGY", "0.08", "10^9/L", "0", "0.57", "0.08", 0, "10^9/L", 0, 0, "NORMAL", "", 4.0, "WEEK 2", 14, "TREATMENT", "2014-01-15T10:03", 15], ["CDISCPILOT01", "LB", "01-701-1097", 85, "EOS", "Eosinophils", "HEMATOLOGY", "0.30", "10^9/L", "0", "0.57", "0.3", 0, "10^9/L", 0, 0, "NORMAL", "", 5.0, "WEEK 4", 28, "TREATMENT", "2014-01-29T14:00", 29], ["CDISCPILOT01", "LB", "01-701-1097", 115, "EOS", "Eosinophils", "HEMATOLOGY", "0.39", "10^9/L", "0", "0.57", "0.39", 0, "10^9/L", 0, 0, "NORMAL", "", 7.0, "WEEK 6", 42, "TREATMENT", "2014-02-11T11:16", 42], ["CDISCPILOT01", "LB", "01-701-1097", 145, "EOS", "Eosinophils", "HEMATOLOGY", "0.89", "10^9/L", "0", "0.57", "0.89", 0, "10^9/L", 0, 0, "HIGH", "", 8.0, "WEEK 8", 56, "TREATMENT", "2014-02-26T11:10", 57], ["CDISCPILOT01", "LB", "01-701-1097", 176, "EOS", "Eosinophils", "HEMATOLOGY", "0.87", "10^9/L", "0", "0.57", "0.87", 0, "10^9/L", 0, 0, "HIGH", "", 9.0, "WEEK 12", 84, "TREATMENT", "2014-03-26T08:55", 85], ["CDISCPILOT01", "LB", "01-701-1097", 210, "EOS", "Eosinophils", "HEMATOLOGY", "0.44", "10^9/L", "0", "0.57", "0.44", 0, "10^9/L", 0, 0, "NORMAL", "", 10.0, "WEEK 16", 112, "TREATMENT", "2014-04-23T11:14", 113], ["CDISCPILOT01", "LB", "01-701-1097", 240, "EOS", "Eosinophils", "HEMATOLOGY", "0.56", "10^9/L", "0", "0.57", "0.56", 0, "10^9/L", 0, 0, "NORMAL", "", 11.0, "WEEK 20", 140, "TREATMENT", "2014-05-21T15:06", 141], ["CDISCPILOT01", "LB", "01-701-1097", 271, "EOS", "Eosinophils", "HEMATOLOGY", "0.21", "10^9/L", "0", "0.57", "0.21", 0, "10^9/L", 0, 0, "NORMAL", "", 12.0, "WEEK 24", 168, "TREATMENT", "2014-06-18T10:41", 169], ["CDISCPILOT01", "LB", "01-701-1097", 306, "EOS", "Eosinophils", "HEMATOLOGY", "0.30", "10^9/L", "0", "0.57", "0.3", 0, "10^9/L", 0, 0, "NORMAL", "", 13.0, "WEEK 26", 182, "TREATMENT", "2014-07-09T09:39", 190], ["CDISCPILOT01", "LB", "01-701-1097", 17, "HCT", "Hematocrit", "HEMATOLOGY", "42.0", "%", "37", "51", "0.42", 0, "", 0, 0, "NORMAL", "Y", 1.0, "SCREENING 1", -7, "SCREENING", "2013-12-23T12:30", -9], ["CDISCPILOT01", "LB", "01-701-1097", 54, "HCT", "Hematocrit", "HEMATOLOGY", "38.0", "%", "37", "51", "0.38", 0, "", 0, 0, "NORMAL", "", 4.0, "WEEK 2", 14, "TREATMENT", "2014-01-15T10:03", 15], ["CDISCPILOT01", "LB", "01-701-1097", 88, "HCT", "Hematocrit", "HEMATOLOGY", "41.0", "%", "37", "51", "0.41", 0, "", 0, 0, "NORMAL", "", 5.0, "WEEK 4", 28, "TREATMENT", "2014-01-29T14:00", 29], ["CDISCPILOT01", "LB", "01-701-1097", 118, "HCT", "Hematocrit", "HEMATOLOGY", "41.0", "%", "37", "51", "0.41", 0, "", 0, 0, "NORMAL", "", 7.0, "WEEK 6", 42, "TREATMENT", "2014-02-11T11:16", 42], ["CDISCPILOT01", "LB", "01-701-1097", 148, "HCT", "Hematocrit", "HEMATOLOGY", "42.0", "%", "37", "51", "0.42", 0, "", 0, 0, "NORMAL", "", 8.0, "WEEK 8", 56, "TREATMENT", "2014-02-26T11:10", 57], ["CDISCPILOT01", "LB", "01-701-1097", 179, "HCT", "Hematocrit", "HEMATOLOGY", "41.0", "%", "37", "51", "0.41", 0, "", 0, 0, "NORMAL", "", 9.0, "WEEK 12", 84, "TREATMENT", "2014-03-26T08:55", 85], ["CDISCPILOT01", "LB", "01-701-1097", 213, "HCT", "Hematocrit", "HEMATOLOGY", "41.0", "%", "37", "51", "0.41", 0, "", 0, 0, "NORMAL", "", 10.0, "WEEK 16", 112, "TREATMENT", "2014-04-23T11:14", 113], ["CDISCPILOT01", "LB", "01-701-1097", 243, "HCT", "Hematocrit", "HEMATOLOGY", "39.0", "%", "37", "51", "0.39", 0, "", 0, 0, "NORMAL", "", 11.0, "WEEK 20", 140, "TREATMENT", "2014-05-21T15:06", 141], ["CDISCPILOT01", "LB", "01-701-1097", 274, "HCT", "Hematocrit", "HEMATOLOGY", "41.0", "%", "37", "51", "0.41", 0, "", 0, 0, "NORMAL", "", 12.0, "WEEK 24", 168, "TREATMENT", "2014-06-18T10:41", 169], ["CDISCPILOT01", "LB", "01-701-1097", 309, "HCT", "Hematocrit", "HEMATOLOGY", "39.0", "%", "37", "51", "0.39", 0, "", 0, 0, "NORMAL", "", 13.0, "WEEK 26", 182, "TREATMENT", "2014-07-09T09:39", 190], ["CDISCPILOT01", "LB", "01-701-1097", 18, "HGB", "Hemoglobin", "HEMATOLOGY", "15.1", "g/dL", "12.5", "17", "9.37106", 9, "mmol/L", 7, 10, "NORMAL", "Y", 1.0, "SCREENING 1", -7, "SCREENING", "2013-12-23T12:30", -9], ["CDISCPILOT01", "LB", "01-701-1097", 55, "HGB", "Hemoglobin", "HEMATOLOGY", "14.4", "g/dL", "12.5", "17", "8.93664", 8, "mmol/L", 7, 10, "NORMAL", "", 4.0, "WEEK 2", 14, "TREATMENT", "2014-01-15T10:03", 15], ["CDISCPILOT01", "LB", "01-701-1097", 89, "HGB", "Hemoglobin", "HEMATOLOGY", "14.2", "g/dL", "12.5", "17", "8.81252", 8, "mmol/L", 7, 10, "NORMAL", "", 5.0, "WEEK 4", 28, "TREATMENT", "2014-01-29T14:00", 29], ["CDISCPILOT01", "LB", "01-701-1097", 119, "HGB", "Hemoglobin", "HEMATOLOGY", "13.8", "g/dL", "12.5", "17", "8.56428", 8, "mmol/L", 7, 10, "NORMAL", "", 7.0, "WEEK 6", 42, "TREATMENT", "2014-02-11T11:16", 42], ["CDISCPILOT01", "LB", "01-701-1097", 149, "HGB", "Hemoglobin", "HEMATOLOGY", "14.8", "g/dL", "12.5", "17", "9.18488", 9, "mmol/L", 7, 10, "NORMAL", "", 8.0, "WEEK 8", 56, "TREATMENT", "2014-02-26T11:10", 57], ["CDISCPILOT01", "LB", "01-701-1097", 180, "HGB", "Hemoglobin", "HEMATOLOGY", "14.8", "g/dL", "12.5", "17", "9.18488", 9, "mmol/L", 7, 10, "NORMAL", "", 9.0, "WEEK 12", 84, "TREATMENT", "2014-03-26T08:55", 85], ["CDISCPILOT01", "LB", "01-701-1097", 214, "HGB", "Hemoglobin", "HEMATOLOGY", "13.9", "g/dL", "12.5", "17", "8.62634", 8, "mmol/L", 7, 10, "NORMAL", "", 10.0, "WEEK 16", 112, "TREATMENT", "2014-04-23T11:14", 113], ["CDISCPILOT01", "LB", "01-701-1097", 244, "HGB", "Hemoglobin", "HEMATOLOGY", "13.7", "g/dL", "12.5", "17", "8.50222", 8, "mmol/L", 7, 10, "NORMAL", "", 11.0, "WEEK 20", 140, "TREATMENT", "2014-05-21T15:06", 141], ["CDISCPILOT01", "LB", "01-701-1097", 275, "HGB", "Hemoglobin", "HEMATOLOGY", "14.6", "g/dL", "12.5", "17", "9.06076", 9, "mmol/L", 7, 10, "NORMAL", "", 12.0, "WEEK 24", 168, "TREATMENT", "2014-06-18T10:41", 169], ["CDISCPILOT01", "LB", "01-701-1097", 310, "HGB", "Hemoglobin", "HEMATOLOGY", "14.1", "g/dL", "12.5", "17", "8.75046", 8, "mmol/L", 7, 10, "NORMAL", "", 13.0, "WEEK 26", 182, "TREATMENT", "2014-07-09T09:39", 190], ["CDISCPILOT01", "LB", "01-701-1097", 21, "LYM", "Lymphocytes", "HEMATOLOGY", "2.24", "10^9/L", "0.8", "3", "2.24", 2, "10^9/L", 0, 3, "NORMAL", "Y", 1.0, "SCREENING 1", -7, "SCREENING", "2013-12-23T12:30", -9], ["CDISCPILOT01", "LB", "01-701-1097", 58, "LYM", "Lymphocytes", "HEMATOLOGY", "2.61", "10^9/L", "0.8", "3", "2.61", 2, "10^9/L", 0, 3, "NORMAL", "", 4.0, "WEEK 2", 14, "TREATMENT", "2014-01-15T10:03", 15], ["CDISCPILOT01", "LB", "01-701-1097", 91, "LYM", "Lymphocytes", "HEMATOLOGY", "3.13", "10^9/L", "0.8", "3", "3.13", 3, "10^9/L", 0, 3, "HIGH", "", 5.0, "WEEK 4", 28, "TREATMENT", "2014-01-29T14:00", 29], ["CDISCPILOT01", "LB", "01-701-1097", 121, "LYM", "Lymphocytes", "HEMATOLOGY", "2.44", "10^9/L", "0.8", "3", "2.44", 2, "10^9/L", 0, 3, "NORMAL", "", 7.0, "WEEK 6", 42, "TREATMENT", "2014-02-11T11:16", 42], ["CDISCPILOT01", "LB", "01-701-1097", 151, "LYM", "Lymphocytes", "HEMATOLOGY", "2.03", "10^9/L", "0.8", "3", "2.03", 2, "10^9/L", 0, 3, "NORMAL", "", 8.0, "WEEK 8", 56, "TREATMENT", "2014-02-26T11:10", 57], ["CDISCPILOT01", "LB", "01-701-1097", 183, "LYM", "Lymphocytes", "HEMATOLOGY", "2.49", "10^9/L", "0.8", "3", "2.49", 2, "10^9/L", 0, 3, "NORMAL", "", 9.0, "WEEK 12", 84, "TREATMENT", "2014-03-26T08:55", 85], ["CDISCPILOT01", "LB", "01-701-1097", 216, "LYM", "Lymphocytes", "HEMATOLOGY", "2.28", "10^9/L", "0.8", "3", "2.28", 2, "10^9/L", 0, 3, "NORMAL", "", 10.0, "WEEK 16", 112, "TREATMENT", "2014-04-23T11:14", 113], ["CDISCPILOT01", "LB", "01-701-1097", 246, "LYM", "Lymphocytes", "HEMATOLOGY", "2.16", "10^9/L", "0.8", "3", "2.16", 2, "10^9/L", 0, 3, "NORMAL", "", 11.0, "WEEK 20", 140, "TREATMENT", "2014-05-21T15:06", 141], ["CDISCPILOT01", "LB", "01-701-1097", 278, "LYM", "Lymphocytes", "HEMATOLOGY", "2.14", "10^9/L", "0.8", "3", "2.14", 2, "10^9/L", 0, 3, "NORMAL", "", 12.0, "WEEK 24", 168, "TREATMENT", "2014-06-18T10:41", 169], ["CDISCPILOT01", "LB", "01-701-1097", 313, "LYM", "Lymphocytes", "HEMATOLOGY", "2.31", "10^9/L", "0.8", "3", "2.31", 2, "10^9/L", 0, 3, "NORMAL", "", 13.0, "WEEK 26", 182, "TREATMENT", "2014-07-09T09:39", 190], ["CDISCPILOT01", "LB", "01-701-1097", 22, "MCH", "Ery. Mean Corpuscular Hemoglobin", "HEMATOLOGY", "33", "pg", "26", "34", "2.04798", 2, "fmol", 1, 2, "NORMAL", "Y", 1.0, "SCREENING 1", -7, "SCREENING", "2013-12-23T12:30", -9], ["CDISCPILOT01", "LB", "01-701-1097", 59, "MCH", "Ery. Mean Corpuscular Hemoglobin", "HEMATOLOGY", "33", "pg", "26", "34", "2.04798", 2, "fmol", 1, 2, "NORMAL", "", 4.0, "WEEK 2", 14, "TREATMENT", "2014-01-15T10:03", 15], ["CDISCPILOT01", "LB", "01-701-1097", 92, "MCH", "Ery. Mean Corpuscular Hemoglobin", "HEMATOLOGY", "33", "pg", "26", "34", "2.04798", 2, "fmol", 1, 2, "NORMAL", "", 5.0, "WEEK 4", 28, "TREATMENT", "2014-01-29T14:00", 29], ["CDISCPILOT01", "LB", "01-701-1097", 122, "MCH", "Ery. Mean Corpuscular Hemoglobin", "HEMATOLOGY", "32", "pg", "26", "34", "1.98592", 1, "fmol", 1, 2, "NORMAL", "", 7.0, "WEEK 6", 42, "TREATMENT", "2014-02-11T11:16", 42], ["CDISCPILOT01", "LB", "01-701-1097", 152, "MCH", "Ery. Mean Corpuscular Hemoglobin", "HEMATOLOGY", "34", "pg", "26", "34", "2.11004", 2, "fmol", 1, 2, "NORMAL", "", 8.0, "WEEK 8", 56, "TREATMENT", "2014-02-26T11:10", 57], ["CDISCPILOT01", "LB", "01-701-1097", 184, "MCH", "Ery. Mean Corpuscular Hemoglobin", "HEMATOLOGY", "34", "pg", "26", "34", "2.11004", 2, "fmol", 1, 2, "NORMAL", "", 9.0, "WEEK 12", 84, "TREATMENT", "2014-03-26T08:55", 85], ["CDISCPILOT01", "LB", "01-701-1097", 217, "MCH", "Ery. Mean Corpuscular Hemoglobin", "HEMATOLOGY", "32", "pg", "26", "34", "1.98592", 1, "fmol", 1, 2, "NORMAL", "", 10.0, "WEEK 16", 112, "TREATMENT", "2014-04-23T11:14", 113], ["CDISCPILOT01", "LB", "01-701-1097", 247, "MCH", "Ery. Mean Corpuscular Hemoglobin", "HEMATOLOGY", "33", "pg", "26", "34", "2.04798", 2, "fmol", 1, 2, "NORMAL", "", 11.0, "WEEK 20", 140, "TREATMENT", "2014-05-21T15:06", 141], ["CDISCPILOT01", "LB", "01-701-1097", 279, "MCH", "Ery. Mean Corpuscular Hemoglobin", "HEMATOLOGY", "34", "pg", "26", "34", "2.11004", 2, "fmol", 1, 2, "NORMAL", "", 12.0, "WEEK 24", 168, "TREATMENT", "2014-06-18T10:41", 169], ["CDISCPILOT01", "LB", "01-701-1097", 314, "MCH", "Ery. Mean Corpuscular Hemoglobin", "HEMATOLOGY", "33", "pg", "26", "34", "2.04798", 2, "fmol", 1, 2, "NORMAL", "", 13.0, "WEEK 26", 182, "TREATMENT", "2014-07-09T09:39", 190], ["CDISCPILOT01", "LB", "01-701-1097", 23, "MCHC", "Ery. Mean Corpuscular HGB Concentration", "HEMATOLOGY", "36", "g/dL", "31", "38", "22.3416", 22, "mmol/L", 19, 24, "NORMAL", "Y", 1.0, "SCREENING 1", -7, "SCREENING", "2013-12-23T12:30", -9], ["CDISCPILOT01", "LB", "01-701-1097", 60, "MCHC", "Ery. Mean Corpuscular HGB Concentration", "HEMATOLOGY", "35", "g/dL", "31", "38", "21.721", 21, "mmol/L", 19, 24, "NORMAL", "", 4.0, "WEEK 2", 14, "TREATMENT", "2014-01-15T10:03", 15], ["CDISCPILOT01", "LB", "01-701-1097", 93, "MCHC", "Ery. Mean Corpuscular HGB Concentration", "HEMATOLOGY", "35", "g/dL", "31", "38", "21.721", 21, "mmol/L", 19, 24, "NORMAL", "", 5.0, "WEEK 4", 28, "TREATMENT", "2014-01-29T14:00", 29], ["CDISCPILOT01", "LB", "01-701-1097", 123, "MCHC", "Ery. Mean Corpuscular HGB Concentration", "HEMATOLOGY", "34", "g/dL", "31", "38", "21.1004", 21, "mmol/L", 19, 24, "NORMAL", "", 7.0, "WEEK 6", 42, "TREATMENT", "2014-02-11T11:16", 42], ["CDISCPILOT01", "LB", "01-701-1097", 153, "MCHC", "Ery. Mean Corpuscular HGB Concentration", "HEMATOLOGY", "35", "g/dL", "31", "38", "21.721", 21, "mmol/L", 19, 24, "NORMAL", "", 8.0, "WEEK 8", 56, "TREATMENT", "2014-02-26T11:10", 57], ["CDISCPILOT01", "LB", "01-701-1097", 185, "MCHC", "Ery. Mean Corpuscular HGB Concentration", "HEMATOLOGY", "36", "g/dL", "31", "38", "22.3416", 22, "mmol/L", 19, 24, "NORMAL", "", 9.0, "WEEK 12", 84, "TREATMENT", "2014-03-26T08:55", 85], ["CDISCPILOT01", "LB", "01-701-1097", 218, "MCHC", "Ery. Mean Corpuscular HGB Concentration", "HEMATOLOGY", "34", "g/dL", "31", "38", "21.1004", 21, "mmol/L", 19, 24, "NORMAL", "", 10.0, "WEEK 16", 112, "TREATMENT", "2014-04-23T11:14", 113], ["CDISCPILOT01", "LB", "01-701-1097", 248, "MCHC", "Ery. Mean Corpuscular HGB Concentration", "HEMATOLOGY", "35", "g/dL", "31", "38", "21.721", 21, "mmol/L", 19, 24, "NORMAL", "", 11.0, "WEEK 20", 140, "TREATMENT", "2014-05-21T15:06", 141], ["CDISCPILOT01", "LB", "01-701-1097", 280, "MCHC", "Ery. Mean Corpuscular HGB Concentration", "HEMATOLOGY", "36", "g/dL", "31", "38", "22.3416", 22, "mmol/L", 19, 24, "NORMAL", "", 12.0, "WEEK 24", 168, "TREATMENT", "2014-06-18T10:41", 169], ["CDISCPILOT01", "LB", "01-701-1097", 315, "MCHC", "Ery. Mean Corpuscular HGB Concentration", "HEMATOLOGY", "36", "g/dL", "31", "38", "22.3416", 22, "mmol/L", 19, 24, "NORMAL", "", 13.0, "WEEK 26", 182, "TREATMENT", "2014-07-09T09:39", 190], ["CDISCPILOT01", "LB", "01-701-1097", 24, "MCV", "Ery. Mean Corpuscular Volume", "HEMATOLOGY", "90", "fL", "80", "100", "90", 90, "fL", 80, 100, "NORMAL", "Y", 1.0, "SCREENING 1", -7, "SCREENING", "2013-12-23T12:30", -9], ["CDISCPILOT01", "LB", "01-701-1097", 61, "MCV", "Ery. Mean Corpuscular Volume", "HEMATOLOGY", "87", "fL", "80", "100", "87", 87, "fL", 80, 100, "NORMAL", "", 4.0, "WEEK 2", 14, "TREATMENT", "2014-01-15T10:03", 15], ["CDISCPILOT01", "LB", "01-701-1097", 94, "MCV", "Ery. Mean Corpuscular Volume", "HEMATOLOGY", "94", "fL", "80", "100", "94", 94, "fL", 80, 100, "NORMAL", "", 5.0, "WEEK 4", 28, "TREATMENT", "2014-01-29T14:00", 29], ["CDISCPILOT01", "LB", "01-701-1097", 124, "MCV", "Ery. Mean Corpuscular Volume", "HEMATOLOGY", "96", "fL", "80", "100", "96", 96, "fL", 80, 100, "NORMAL", "", 7.0, "WEEK 6", 42, "TREATMENT", "2014-02-11T11:16", 42], ["CDISCPILOT01", "LB", "01-701-1097", 154, "MCV", "Ery. Mean Corpuscular Volume", "HEMATOLOGY", "95", "fL", "80", "100", "95", 95, "fL", 80, 100, "NORMAL", "", 8.0, "WEEK 8", 56, "TREATMENT", "2014-02-26T11:10", 57], ["CDISCPILOT01", "LB", "01-701-1097", 186, "MCV", "Ery. Mean Corpuscular Volume", "HEMATOLOGY", "95", "fL", "80", "100", "95", 95, "fL", 80, 100, "NORMAL", "", 9.0, "WEEK 12", 84, "TREATMENT", "2014-03-26T08:55", 85], ["CDISCPILOT01", "LB", "01-701-1097", 219, "MCV", "Ery. Mean Corpuscular Volume", "HEMATOLOGY", "95", "fL", "80", "100", "95", 95, "fL", 80, 100, "NORMAL", "", 10.0, "WEEK 16", 112, "TREATMENT", "2014-04-23T11:14", 113], ["CDISCPILOT01", "LB", "01-701-1097", 249, "MCV", "Ery. Mean Corpuscular Volume", "HEMATOLOGY", "93", "fL", "80", "100", "93", 93, "fL", 80, 100, "NORMAL", "", 11.0, "WEEK 20", 140, "TREATMENT", "2014-05-21T15:06", 141], ["CDISCPILOT01", "LB", "01-701-1097", 281, "MCV", "Ery. Mean Corpuscular Volume", "HEMATOLOGY", "94", "fL", "80", "100", "94", 94, "fL", 80, 100, "NORMAL", "", 12.0, "WEEK 24", 168, "TREATMENT", "2014-06-18T10:41", 169], ["CDISCPILOT01", "LB", "01-701-1097", 316, "MCV", "Ery. Mean Corpuscular Volume", "HEMATOLOGY", "91", "fL", "80", "100", "91", 91, "fL", 80, 100, "NORMAL", "", 13.0, "WEEK 26", 182, "TREATMENT", "2014-07-09T09:39", 190], ["CDISCPILOT01", "LB", "01-701-1097", 25, "MONO", "Monocytes", "HEMATOLOGY", "0.44", "10^9/L", "0.12", "0.92", "0.44", 0, "10^9/L", 0, 0, "NORMAL", "Y", 1.0, "SCREENING 1", -7, "SCREENING", "2013-12-23T12:30", -9], ["CDISCPILOT01", "LB", "01-701-1097", 62, "MONO", "Monocytes", "HEMATOLOGY", "0.65", "10^9/L", "0.12", "0.92", "0.65", 0, "10^9/L", 0, 0, "NORMAL", "", 4.0, "WEEK 2", 14, "TREATMENT", "2014-01-15T10:03", 15], ["CDISCPILOT01", "LB", "01-701-1097", 95, "MONO", "Monocytes", "HEMATOLOGY", "0.52", "10^9/L", "0.12", "0.92", "0.52", 0, "10^9/L", 0, 0, "NORMAL", "", 5.0, "WEEK 4", 28, "TREATMENT", "2014-01-29T14:00", 29], ["CDISCPILOT01", "LB", "01-701-1097", 125, "MONO", "Monocytes", "HEMATOLOGY", "0.62", "10^9/L", "0.12", "0.92", "0.62", 0, "10^9/L", 0, 0, "NORMAL", "", 7.0, "WEEK 6", 42, "TREATMENT", "2014-02-11T11:16", 42], ["CDISCPILOT01", "LB", "01-701-1097", 155, "MONO", "Monocytes", "HEMATOLOGY", "0.66", "10^9/L", "0.12", "0.92", "0.66", 0, "10^9/L", 0, 0, "NORMAL", "", 8.0, "WEEK 8", 56, "TREATMENT", "2014-02-26T11:10", 57], ["CDISCPILOT01", "LB", "01-701-1097", 187, "MONO", "Monocytes", "HEMATOLOGY", "0.71", "10^9/L", "0.12", "0.92", "0.71", 0, "10^9/L", 0, 0, "NORMAL", "", 9.0, "WEEK 12", 84, "TREATMENT", "2014-03-26T08:55", 85], ["CDISCPILOT01", "LB", "01-701-1097", 220, "MONO", "Monocytes", "HEMATOLOGY", "0.63", "10^9/L", "0.12", "0.92", "0.63", 0, "10^9/L", 0, 0, "NORMAL", "", 10.0, "WEEK 16", 112, "TREATMENT", "2014-04-23T11:14", 113], ["CDISCPILOT01", "LB", "01-701-1097", 250, "MONO", "Monocytes", "HEMATOLOGY", "0.59", "10^9/L", "0.12", "0.92", "0.59", 0, "10^9/L", 0, 0, "NORMAL", "", 11.0, "WEEK 20", 140, "TREATMENT", "2014-05-21T15:06", 141], ["CDISCPILOT01", "LB", "01-701-1097", 282, "MONO", "Monocytes", "HEMATOLOGY", "0.55", "10^9/L", "0.12", "0.92", "0.55", 0, "10^9/L", 0, 0, "NORMAL", "", 12.0, "WEEK 24", 168, "TREATMENT", "2014-06-18T10:41", 169], ["CDISCPILOT01", "LB", "01-701-1097", 317, "MONO", "Monocytes", "HEMATOLOGY", "0.57", "10^9/L", "0.12", "0.92", "0.57", 0, "10^9/L", 0, 0, "NORMAL", "", 13.0, "WEEK 26", 182, "TREATMENT", "2014-07-09T09:39", 190], ["CDISCPILOT01", "LB", "01-701-1097", 29, "PLAT", "Platelets", "HEMATOLOGY", "270", "10^9/L", "130", "394", "270", 270, "10^9/L", 130, 394, "NORMAL", "Y", 1.0, "SCREENING 1", -7, "SCREENING", "2013-12-23T12:30", -9], ["CDISCPILOT01", "LB", "01-701-1097", 66, "PLAT", "Platelets", "HEMATOLOGY", "252", "10^9/L", "130", "394", "252", 252, "10^9/L", 130, 394, "NORMAL", "", 4.0, "WEEK 2", 14, "TREATMENT", "2014-01-15T10:03", 15], ["CDISCPILOT01", "LB", "01-701-1097", 98, "PLAT", "Platelets", "HEMATOLOGY", "284", "10^9/L", "130", "394", "284", 284, "10^9/L", 130, 394, "NORMAL", "", 5.0, "WEEK 4", 28, "TREATMENT", "2014-01-29T14:00", 29], ["CDISCPILOT01", "LB", "01-701-1097", 128, "PLAT", "Platelets", "HEMATOLOGY", "266", "10^9/L", "130", "394", "266", 266, "10^9/L", 130, 394, "NORMAL", "", 7.0, "WEEK 6", 42, "TREATMENT", "2014-02-11T11:16", 42], ["CDISCPILOT01", "LB", "01-701-1097", 158, "PLAT", "Platelets", "HEMATOLOGY", "261", "10^9/L", "130", "394", "261", 261, "10^9/L", 130, 394, "NORMAL", "", 8.0, "WEEK 8", 56, "TREATMENT", "2014-02-26T11:10", 57], ["CDISCPILOT01", "LB", "01-701-1097", 191, "PLAT", "Platelets", "HEMATOLOGY", "260", "10^9/L", "130", "394", "260", 260, "10^9/L", 130, 394, "NORMAL", "", 9.0, "WEEK 12", 84, "TREATMENT", "2014-03-26T08:55", 85], ["CDISCPILOT01", "LB", "01-701-1097", 223, "PLAT", "Platelets", "HEMATOLOGY", "293", "10^9/L", "130", "394", "293", 293, "10^9/L", 130, 394, "NORMAL", "", 10.0, "WEEK 16", 112, "TREATMENT", "2014-04-23T11:14", 113], ["CDISCPILOT01", "LB", "01-701-1097", 253, "PLAT", "Platelets", "HEMATOLOGY", "222", "10^9/L", "130", "394", "222", 222, "10^9/L", 130, 394, "NORMAL", "", 11.0, "WEEK 20", 140, "TREATMENT", "2014-05-21T15:06", 141], ["CDISCPILOT01", "LB", "01-701-1097", 286, "PLAT", "Platelets", "HEMATOLOGY", "230", "10^9/L", "130", "394", "230", 230, "10^9/L", 130, 394, "NORMAL", "", 12.0, "WEEK 24", 168, "TREATMENT", "2014-06-18T10:41", 169], ["CDISCPILOT01", "LB", "01-701-1097", 321, "PLAT", "Platelets", "HEMATOLOGY", "283", "10^9/L", "130", "394", "283", 283, "10^9/L", 130, 394, "NORMAL", "", 13.0, "WEEK 26", 182, "TREATMENT", "2014-07-09T09:39", 190], ["CDISCPILOT01", "LB", "01-701-1097", 31, "RBC", "Erythrocytes", "HEMATOLOGY", "4.60", "10^12/L", "4", "5.8", "4.6", 4, "10^12/L", 4, 5, "NORMAL", "Y", 1.0, "SCREENING 1", -7, "SCREENING", "2013-12-23T12:30", -9], ["CDISCPILOT01", "LB", "01-701-1097", 68, "RBC", "Erythrocytes", "HEMATOLOGY", "4.40", "10^12/L", "4", "5.8", "4.4", 4, "10^12/L", 4, 5, "NORMAL", "", 4.0, "WEEK 2", 14, "TREATMENT", "2014-01-15T10:03", 15], ["CDISCPILOT01", "LB", "01-701-1097", 100, "RBC", "Erythrocytes", "HEMATOLOGY", "4.30", "10^12/L", "4", "5.8", "4.3", 4, "10^12/L", 4, 5, "NORMAL", "", 5.0, "WEEK 4", 28, "TREATMENT", "2014-01-29T14:00", 29], ["CDISCPILOT01", "LB", "01-701-1097", 130, "RBC", "Erythrocytes", "HEMATOLOGY", "4.30", "10^12/L", "4", "5.8", "4.3", 4, "10^12/L", 4, 5, "NORMAL", "", 7.0, "WEEK 6", 42, "TREATMENT", "2014-02-11T11:16", 42], ["CDISCPILOT01", "LB", "01-701-1097", 160, "RBC", "Erythrocytes", "HEMATOLOGY", "4.40", "10^12/L", "4", "5.8", "4.4", 4, "10^12/L", 4, 5, "NORMAL", "", 8.0, "WEEK 8", 56, "TREATMENT", "2014-02-26T11:10", 57], ["CDISCPILOT01", "LB", "01-701-1097", 193, "RBC", "Erythrocytes", "HEMATOLOGY", "4.40", "10^12/L", "4", "5.8", "4.4", 4, "10^12/L", 4, 5, "NORMAL", "", 9.0, "WEEK 12", 84, "TREATMENT", "2014-03-26T08:55", 85], ["CDISCPILOT01", "LB", "01-701-1097", 225, "RBC", "Erythrocytes", "HEMATOLOGY", "4.30", "10^12/L", "4", "5.8", "4.3", 4, "10^12/L", 4, 5, "NORMAL", "", 10.0, "WEEK 16", 112, "TREATMENT", "2014-04-23T11:14", 113], ["CDISCPILOT01", "LB", "01-701-1097", 255, "RBC", "Erythrocytes", "HEMATOLOGY", "4.20", "10^12/L", "4", "5.8", "4.2", 4, "10^12/L", 4, 5, "NORMAL", "", 11.0, "WEEK 20", 140, "TREATMENT", "2014-05-21T15:06", 141], ["CDISCPILOT01", "LB", "01-701-1097", 288, "RBC", "Erythrocytes", "HEMATOLOGY", "4.30", "10^12/L", "4", "5.8", "4.3", 4, "10^12/L", 4, 5, "NORMAL", "", 12.0, "WEEK 24", 168, "TREATMENT", "2014-06-18T10:41", 169], ["CDISCPILOT01", "LB", "01-701-1097", 323, "RBC", "Erythrocytes", "HEMATOLOGY", "4.30", "10^12/L", "4", "5.8", "4.3", 4, "10^12/L", 4, 5, "NORMAL", "", 13.0, "WEEK 26", 182, "TREATMENT", "2014-07-09T09:39", 190], ["CDISCPILOT01", "LB", "01-701-1097", 37, "WBC", "Leukocytes", "HEMATOLOGY", "8.74", "10^9/L", "3.8", "10.7", "8.74", 8, "10^9/L", 3, 10, "NORMAL", "Y", 1.0, "SCREENING 1", -7, "SCREENING", "2013-12-23T12:30", -9], ["CDISCPILOT01", "LB", "01-701-1097", 72, "WBC", "Leukocytes", "HEMATOLOGY", "9.33", "10^9/L", "3.8", "10.7", "9.33", 9, "10^9/L", 3, 10, "NORMAL", "", 4.0, "WEEK 2", 14, "TREATMENT", "2014-01-15T10:03", 15], ["CDISCPILOT01", "LB", "01-701-1097", 102, "WBC", "Leukocytes", "HEMATOLOGY", "10.42", "10^9/L", "3.8", "10.7", "10.42", 10, "10^9/L", 3, 10, "NORMAL", "", 5.0, "WEEK 4", 28, "TREATMENT", "2014-01-29T14:00", 29], ["CDISCPILOT01", "LB", "01-701-1097", 132, "WBC", "Leukocytes", "HEMATOLOGY", "9.75", "10^9/L", "3.8", "10.7", "9.75", 9, "10^9/L", 3, 10, "NORMAL", "", 7.0, "WEEK 6", 42, "TREATMENT", "2014-02-11T11:16", 42], ["CDISCPILOT01", "LB", "01-701-1097", 162, "WBC", "Leukocytes", "HEMATOLOGY", "9.95", "10^9/L", "3.8", "10.7", "9.95", 9, "10^9/L", 3, 10, "NORMAL", "", 8.0, "WEEK 8", 56, "TREATMENT", "2014-02-26T11:10", 57], ["CDISCPILOT01", "LB", "01-701-1097", 197, "WBC", "Leukocytes", "HEMATOLOGY", "9.94", "10^9/L", "3.8", "10.7", "9.94", 9, "10^9/L", 3, 10, "NORMAL", "", 9.0, "WEEK 12", 84, "TREATMENT", "2014-03-26T08:55", 85], ["CDISCPILOT01", "LB", "01-701-1097", 227, "WBC", "Leukocytes", "HEMATOLOGY", "10.51", "10^9/L", "3.8", "10.7", "10.51", 10, "10^9/L", 3, 10, "NORMAL", "", 10.0, "WEEK 16", 112, "TREATMENT", "2014-04-23T11:14", 113], ["CDISCPILOT01", "LB", "01-701-1097", 257, "WBC", "Leukocytes", "HEMATOLOGY", "8.66", "10^9/L", "3.8", "10.7", "8.66", 8, "10^9/L", 3, 10, "NORMAL", "", 11.0, "WEEK 20", 140, "TREATMENT", "2014-05-21T15:06", 141], ["CDISCPILOT01", "LB", "01-701-1097", 292, "WBC", "Leukocytes", "HEMATOLOGY", "9.70", "10^9/L", "3.8", "10.7", "9.7", 9, "10^9/L", 3, 10, "NORMAL", "", 12.0, "WEEK 24", 168, "TREATMENT", "2014-06-18T10:41", 169], ["CDISCPILOT01", "LB", "01-701-1097", 327, "WBC", "Leukocytes", "HEMATOLOGY", "8.39", "10^9/L", "3.8", "10.7", "8.39", 8, "10^9/L", 3, 10, "NORMAL", "", 13.0, "WEEK 26", 182, "TREATMENT", "2014-07-09T09:39", 190], ["CDISCPILOT01", "LB", "01-701-1111", 41, "ANISO", "Anisocytes", "HEMATOLOGY", "1", "", "", "", "1", 1, "", null, null, "ABNORMAL", "", 4.0, "WEEK 2", 14, "TREATMENT", "2012-09-17T11:48", 11], ["CDISCPILOT01", "LB", "01-701-1111", 5, "BASO", "Basophils", "HEMATOLOGY", "0.04", "10^9/L", "0", "0.2", "0.04", 0, "10^9/L", 0, 0, "NORMAL", "Y", 1.0, "SCREENING 1", -7, "SCREENING", "2012-08-25T15:25", -13], ["CDISCPILOT01", "LB", "01-701-1111", 43, "BASO", "Basophils", "HEMATOLOGY", "0.04", "10^9/L", "0", "0.2", "0.04", 0, "10^9/L", 0, 0, "NORMAL", "", 4.0, "WEEK 2", 14, "TREATMENT", "2012-09-17T11:48", 11], ["CDISCPILOT01", "LB", "01-701-1111", 14, "EOS", "Eosinophils", "HEMATOLOGY", "0.04", "10^9/L", "0", "0.57", "0.04", 0, "10^9/L", 0, 0, "NORMAL", "Y", 1.0, "SCREENING 1", -7, "SCREENING", "2012-08-25T15:25", -13], ["CDISCPILOT01", "LB", "01-701-1111", 52, "EOS", "Eosinophils", "HEMATOLOGY", "0.08", "10^9/L", "0", "0.57", "0.08", 0, "10^9/L", 0, 0, "NORMAL", "", 4.0, "WEEK 2", 14, "TREATMENT", "2012-09-17T11:48", 11], ["CDISCPILOT01", "LB", "01-701-1111", 17, "HCT", "Hematocrit", "HEMATOLOGY", "37.0", "%", "34", "48", "0.37", 0, "", 0, 0, "NORMAL", "Y", 1.0, "SCREENING 1", -7, "SCREENING", "2012-08-25T15:25", -13], ["CDISCPILOT01", "LB", "01-701-1111", 55, "HCT", "Hematocrit", "HEMATOLOGY", "37.0", "%", "34", "48", "0.37", 0, "", 0, 0, "NORMAL", "", 4.0, "WEEK 2", 14, "TREATMENT", "2012-09-17T11:48", 11], ["CDISCPILOT01", "LB", "01-701-1111", 18, "HGB", "Hemoglobin", "HEMATOLOGY", "12.0", "g/dL", "11.5", "15.8", "7.4472", 7, "mmol/L", 7, 9, "NORMAL", "Y", 1.0, "SCREENING 1", -7, "SCREENING", "2012-08-25T15:25", -13], ["CDISCPILOT01", "LB", "01-701-1111", 56, "HGB", "Hemoglobin", "HEMATOLOGY", "12.2", "g/dL", "11.5", "15.8", "7.57132", 7, "mmol/L", 7, 9, "NORMAL", "", 4.0, "WEEK 2", 14, "TREATMENT", "2012-09-17T11:48", 11], ["CDISCPILOT01", "LB", "01-701-1111", 21, "LYM", "Lymphocytes", "HEMATOLOGY", "2.08", "10^9/L", "0.8", "3", "2.08", 2, "10^9/L", 0, 3, "NORMAL", "Y", 1.0, "SCREENING 1", -7, "SCREENING", "2012-08-25T15:25", -13], ["CDISCPILOT01", "LB", "01-701-1111", 59, "LYM", "Lymphocytes", "HEMATOLOGY", "1.00", "10^9/L", "0.8", "3", "1", 1, "10^9/L", 0, 3, "NORMAL", "", 4.0, "WEEK 2", 14, "TREATMENT", "2012-09-17T11:48", 11], ["CDISCPILOT01", "LB", "01-701-1111", 22, "MCH", "Ery. Mean Corpuscular Hemoglobin", "HEMATOLOGY", "32", "pg", "26", "34", "1.98592", 1, "fmol", 1, 2, "NORMAL", "Y", 1.0, "SCREENING 1", -7, "SCREENING", "2012-08-25T15:25", -13], ["CDISCPILOT01", "LB", "01-701-1111", 60, "MCH", "Ery. Mean Corpuscular Hemoglobin", "HEMATOLOGY", "33", "pg", "26", "34", "2.04798", 2, "fmol", 1, 2, "NORMAL", "", 4.0, "WEEK 2", 14, "TREATMENT", "2012-09-17T11:48", 11], ["CDISCPILOT01", "LB", "01-701-1111", 23, "MCHC", "Ery. Mean Corpuscular HGB Concentration", "HEMATOLOGY", "33", "g/dL", "31", "38", "20.4798", 20, "mmol/L", 19, 24, "NORMAL", "Y", 1.0, "SCREENING 1", -7, "SCREENING", "2012-08-25T15:25", -13], ["CDISCPILOT01", "LB", "01-701-1111", 61, "MCHC", "Ery. Mean Corpuscular HGB Concentration", "HEMATOLOGY", "33", "g/dL", "31", "38", "20.4798", 20, "mmol/L", 19, 24, "NORMAL", "", 4.0, "WEEK 2", 14, "TREATMENT", "2012-09-17T11:48", 11], ["CDISCPILOT01", "LB", "01-701-1111", 24, "MCV", "Ery. Mean Corpuscular Volume", "HEMATOLOGY", "97", "fL", "80", "100", "97", 97, "fL", 80, 100, "NORMAL", "Y", 1.0, "SCREENING 1", -7, "SCREENING", "2012-08-25T15:25", -13], ["CDISCPILOT01", "LB", "01-701-1111", 62, "MCV", "Ery. Mean Corpuscular Volume", "HEMATOLOGY", "101", "fL", "80", "100", "101", 101, "fL", 80, 100, "HIGH", "", 4.0, "WEEK 2", 14, "TREATMENT", "2012-09-17T11:48", 11], ["CDISCPILOT01", "LB", "01-701-1111", 25, "MONO", "Monocytes", "HEMATOLOGY", "0.37", "10^9/L", "0.12", "0.92", "0.37", 0, "10^9/L", 0, 0, "NORMAL", "Y", 1.0, "SCREENING 1", -7, "SCREENING", "2012-08-25T15:25", -13], ["CDISCPILOT01", "LB", "01-701-1111", 63, "MONO", "Monocytes", "HEMATOLOGY", "0.36", "10^9/L", "0.12", "0.92", "0.36", 0, "10^9/L", 0, 0, "NORMAL", "", 4.0, "WEEK 2", 14, "TREATMENT", "2012-09-17T11:48", 11], ["CDISCPILOT01", "LB", "01-701-1111", 29, "PLAT", "Platelets", "HEMATOLOGY", "255", "10^9/L", "130", "394", "255", 255, "10^9/L", 130, 394, "NORMAL", "Y", 1.0, "SCREENING 1", -7, "SCREENING", "2012-08-25T15:25", -13], ["CDISCPILOT01", "LB", "01-701-1111", 67, "PLAT", "Platelets", "HEMATOLOGY", "195", "10^9/L", "130", "394", "195", 195, "10^9/L", 130, 394, "NORMAL", "", 4.0, "WEEK 2", 14, "TREATMENT", "2012-09-17T11:48", 11], ["CDISCPILOT01", "LB", "01-701-1111", 31, "RBC", "Erythrocytes", "HEMATOLOGY", "3.80", "10^12/L", "3.9", "5.5", "3.8", 3, "10^12/L", 3, 5, "LOW", "Y", 1.0, "SCREENING 1", -7, "SCREENING", "2012-08-25T15:25", -13], ["CDISCPILOT01", "LB", "01-701-1111", 69, "RBC", "Erythrocytes", "HEMATOLOGY", "3.70", "10^12/L", "3.9", "5.5", "3.7", 3, "10^12/L", 3, 5, "LOW", "", 4.0, "WEEK 2", 14, "TREATMENT", "2012-09-17T11:48", 11], ["CDISCPILOT01", "LB", "01-701-1111", 37, "WBC", "Leukocytes", "HEMATOLOGY", "4.59", "10^9/L", "3.8", "10.7", "4.59", 4, "10^9/L", 3, 10, "NORMAL", "Y", 1.0, "SCREENING 1", -7, "SCREENING", "2012-08-25T15:25", -13], ["CDISCPILOT01", "LB", "01-701-1111", 73, "WBC", "Leukocytes", "HEMATOLOGY", "6.55", "10^9/L", "3.8", "10.7", "6.55", 6, "10^9/L", 3, 10, "NORMAL", "", 4.0, "WEEK 2", 14, "TREATMENT", "2012-09-17T11:48", 11], ["CDISCPILOT01", "LB", "01-701-1115", 5, "BASO", "Basophils", "HEMATOLOGY", "0.03", "10^9/L", "0", "0.2", "0.03", 0, "10^9/L", 0, 0, "NORMAL", "Y", 1.0, "SCREENING 1", -7, "SCREENING", "2012-11-23T11:20", -7], ["CDISCPILOT01", "LB", "01-701-1115", 42, "BASO", "Basophils", "HEMATOLOGY", "0.04", "10^9/L", "0", "0.2", "0.04", 0, "10^9/L", 0, 0, "NORMAL", "", 4.0, "WEEK 2", 14, "TREATMENT", "2012-12-13T14:05", 14], ["CDISCPILOT01", "LB", "01-701-1115", 77, "BASO", "Basophils", "HEMATOLOGY", "0.05", "10^9/L", "0", "0.2", "0.05", 0, "10^9/L", 0, 0, "NORMAL", "", 5.0, "WEEK 4", 28, "TREATMENT", "2012-12-26T08:44", 27], ["CDISCPILOT01", "LB", "01-701-1115", 122, "BASO", "Basophils", "HEMATOLOGY", "0.03", "10^9/L", "0", "0.2", "0.03", 0, "10^9/L", 0, 0, "NORMAL", "", 7.0, "WEEK 6", 42, "TREATMENT", "2013-01-10T15:20", 42], ["CDISCPILOT01", "LB", "01-701-1115", 152, "BASO", "Basophils", "HEMATOLOGY", "0.04", "10^9/L", "0", "0.2", "0.04", 0, "10^9/L", 0, 0, "NORMAL", "", 8.0, "WEEK 8", 56, "TREATMENT", "2013-01-23T12:13", 55], ["CDISCPILOT01", "LB", "01-701-1115", 14, "EOS", "Eosinophils", "HEMATOLOGY", "0.08", "10^9/L", "0", "0.57", "0.08", 0, "10^9/L", 0, 0, "NORMAL", "Y", 1.0, "SCREENING 1", -7, "SCREENING", "2012-11-23T11:20", -7], ["CDISCPILOT01", "LB", "01-701-1115", 51, "EOS", "Eosinophils", "HEMATOLOGY", "0.08", "10^9/L", "0", "0.57", "0.08", 0, "10^9/L", 0, 0, "NORMAL", "", 4.0, "WEEK 2", 14, "TREATMENT", "2012-12-13T14:05", 14], ["CDISCPILOT01", "LB", "01-701-1115", 85, "EOS", "Eosinophils", "HEMATOLOGY", "0.07", "10^9/L", "0", "0.57", "0.07", 0, "10^9/L", 0, 0, "NORMAL", "", 5.0, "WEEK 4", 28, "TREATMENT", "2012-12-26T08:44", 27], ["CDISCPILOT01", "LB", "01-701-1115", 130, "EOS", "Eosinophils", "HEMATOLOGY", "0.16", "10^9/L", "0", "0.57", "0.16", 0, "10^9/L", 0, 0, "NORMAL", "", 7.0, "WEEK 6", 42, "TREATMENT", "2013-01-10T15:20", 42], ["CDISCPILOT01", "LB", "01-701-1115", 161, "EOS", "Eosinophils", "HEMATOLOGY", "0.35", "10^9/L", "0", "0.57", "0.35", 0, "10^9/L", 0, 0, "NORMAL", "", 8.0, "WEEK 8", 56, "TREATMENT", "2013-01-23T12:13", 55], ["CDISCPILOT01", "LB", "01-701-1115", 17, "HCT", "Hematocrit", "HEMATOLOGY", "46.0", "%", "37", "51", "0.46", 0, "", 0, 0, "NORMAL", "Y", 1.0, "SCREENING 1", -7, "SCREENING", "2012-11-23T11:20", -7], ["CDISCPILOT01", "LB", "01-701-1115", 54, "HCT", "Hematocrit", "HEMATOLOGY", "45.0", "%", "37", "51", "0.45", 0, "", 0, 0, "NORMAL", "", 4.0, "WEEK 2", 14, "TREATMENT", "2012-12-13T14:05", 14], ["CDISCPILOT01", "LB", "01-701-1115", 88, "HCT", "Hematocrit", "HEMATOLOGY", "45.0", "%", "37", "51", "0.45", 0, "", 0, 0, "NORMAL", "", 5.0, "WEEK 4", 28, "TREATMENT", "2012-12-26T08:44", 27], ["CDISCPILOT01", "LB", "01-701-1115", 133, "HCT", "Hematocrit", "HEMATOLOGY", "45.0", "%", "37", "51", "0.45", 0, "", 0, 0, "NORMAL", "", 7.0, "WEEK 6", 42, "TREATMENT", "2013-01-10T15:20", 42], ["CDISCPILOT01", "LB", "01-701-1115", 164, "HCT", "Hematocrit", "HEMATOLOGY", "45.0", "%", "37", "51", "0.45", 0, "", 0, 0, "NORMAL", "", 8.0, "WEEK 8", 56, "TREATMENT", "2013-01-23T12:13", 55], ["CDISCPILOT01", "LB", "01-701-1115", 18, "HGB", "Hemoglobin", "HEMATOLOGY", "14.9", "g/dL", "12.5", "17", "9.24694", 9, "mmol/L", 7, 10, "NORMAL", "Y", 1.0, "SCREENING 1", -7, "SCREENING", "2012-11-23T11:20", -7], ["CDISCPILOT01", "LB", "01-701-1115", 55, "HGB", "Hemoglobin", "HEMATOLOGY", "14.6", "g/dL", "12.5", "17", "9.06076", 9, "mmol/L", 7, 10, "NORMAL", "", 4.0, "WEEK 2", 14, "TREATMENT", "2012-12-13T14:05", 14], ["CDISCPILOT01", "LB", "01-701-1115", 89, "HGB", "Hemoglobin", "HEMATOLOGY", "14.6", "g/dL", "12.5", "17", "9.06076", 9, "mmol/L", 7, 10, "NORMAL", "", 5.0, "WEEK 4", 28, "TREATMENT", "2012-12-26T08:44", 27], ["CDISCPILOT01", "LB", "01-701-1115", 134, "HGB", "Hemoglobin", "HEMATOLOGY", "14.7", "g/dL", "12.5", "17", "9.12282", 9, "mmol/L", 7, 10, "NORMAL", "", 7.0, "WEEK 6", 42, "TREATMENT", "2013-01-10T15:20", 42], ["CDISCPILOT01", "LB", "01-701-1115", 165, "HGB", "Hemoglobin", "HEMATOLOGY", "15.2", "g/dL", "12.5", "17", "9.43312", 9, "mmol/L", 7, 10, "NORMAL", "", 8.0, "WEEK 8", 56, "TREATMENT", "2013-01-23T12:13", 55], ["CDISCPILOT01", "LB", "01-701-1115", 21, "LYM", "Lymphocytes", "HEMATOLOGY", "1.20", "10^9/L", "0.8", "3", "1.2", 1, "10^9/L", 0, 3, "NORMAL", "Y", 1.0, "SCREENING 1", -7, "SCREENING", "2012-11-23T11:20", -7], ["CDISCPILOT01", "LB", "01-701-1115", 58, "LYM", "Lymphocytes", "HEMATOLOGY", "1.48", "10^9/L", "0.8", "3", "1.48", 1, "10^9/L", 0, 3, "NORMAL", "", 4.0, "WEEK 2", 14, "TREATMENT", "2012-12-13T14:05", 14], ["CDISCPILOT01", "LB", "01-701-1115", 91, "LYM", "Lymphocytes", "HEMATOLOGY", "1.04", "10^9/L", "0.8", "3", "1.04", 1, "10^9/L", 0, 3, "NORMAL", "", 5.0, "WEEK 4", 28, "TREATMENT", "2012-12-26T08:44", 27], ["CDISCPILOT01", "LB", "01-701-1115", 136, "LYM", "Lymphocytes", "HEMATOLOGY", "1.13", "10^9/L", "0.8", "3", "1.13", 1, "10^9/L", 0, 3, "NORMAL", "", 7.0, "WEEK 6", 42, "TREATMENT", "2013-01-10T15:20", 42], ["CDISCPILOT01", "LB", "01-701-1115", 168, "LYM", "Lymphocytes", "HEMATOLOGY", "1.13", "10^9/L", "0.8", "3", "1.13", 1, "10^9/L", 0, 3, "NORMAL", "", 8.0, "WEEK 8", 56, "TREATMENT", "2013-01-23T12:13", 55], ["CDISCPILOT01", "LB", "01-701-1115", 22, "MCH", "Ery. Mean Corpuscular Hemoglobin", "HEMATOLOGY", "30", "pg", "26", "34", "1.8618", 1, "fmol", 1, 2, "NORMAL", "Y", 1.0, "SCREENING 1", -7, "SCREENING", "2012-11-23T11:20", -7], ["CDISCPILOT01", "LB", "01-701-1115", 59, "MCH", "Ery. Mean Corpuscular Hemoglobin", "HEMATOLOGY", "31", "pg", "26", "34", "1.92386", 1, "fmol", 1, 2, "NORMAL", "", 4.0, "WEEK 2", 14, "TREATMENT", "2012-12-13T14:05", 14], ["CDISCPILOT01", "LB", "01-701-1115", 92, "MCH", "Ery. Mean Corpuscular Hemoglobin", "HEMATOLOGY", "31", "pg", "26", "34", "1.92386", 1, "fmol", 1, 2, "NORMAL", "", 5.0, "WEEK 4", 28, "TREATMENT", "2012-12-26T08:44", 27], ["CDISCPILOT01", "LB", "01-701-1115", 137, "MCH", "Ery. Mean Corpuscular Hemoglobin", "HEMATOLOGY", "31", "pg", "26", "34", "1.92386", 1, "fmol", 1, 2, "NORMAL", "", 7.0, "WEEK 6", 42, "TREATMENT", "2013-01-10T15:20", 42], ["CDISCPILOT01", "LB", "01-701-1115", 169, "MCH", "Ery. Mean Corpuscular Hemoglobin", "HEMATOLOGY", "32", "pg", "26", "34", "1.98592", 1, "fmol", 1, 2, "NORMAL", "", 8.0, "WEEK 8", 56, "TREATMENT", "2013-01-23T12:13", 55], ["CDISCPILOT01", "LB", "01-701-1115", 23, "MCHC", "Ery. Mean Corpuscular HGB Concentration", "HEMATOLOGY", "33", "g/dL", "31", "38", "20.4798", 20, "mmol/L", 19, 24, "NORMAL", "Y", 1.0, "SCREENING 1", -7, "SCREENING", "2012-11-23T11:20", -7], ["CDISCPILOT01", "LB", "01-701-1115", 60, "MCHC", "Ery. Mean Corpuscular HGB Concentration", "HEMATOLOGY", "33", "g/dL", "31", "38", "20.4798", 20, "mmol/L", 19, 24, "NORMAL", "", 4.0, "WEEK 2", 14, "TREATMENT", "2012-12-13T14:05", 14], ["CDISCPILOT01", "LB", "01-701-1115", 93, "MCHC", "Ery. Mean Corpuscular HGB Concentration", "HEMATOLOGY", "33", "g/dL", "31", "38", "20.4798", 20, "mmol/L", 19, 24, "NORMAL", "", 5.0, "WEEK 4", 28, "TREATMENT", "2012-12-26T08:44", 27], ["CDISCPILOT01", "LB", "01-701-1115", 138, "MCHC", "Ery. Mean Corpuscular HGB Concentration", "HEMATOLOGY", "33", "g/dL", "31", "38", "20.4798", 20, "mmol/L", 19, 24, "NORMAL", "", 7.0, "WEEK 6", 42, "TREATMENT", "2013-01-10T15:20", 42], ["CDISCPILOT01", "LB", "01-701-1115", 170, "MCHC", "Ery. Mean Corpuscular HGB Concentration", "HEMATOLOGY", "34", "g/dL", "31", "38", "21.1004", 21, "mmol/L", 19, 24, "NORMAL", "", 8.0, "WEEK 8", 56, "TREATMENT", "2013-01-23T12:13", 55], ["CDISCPILOT01", "LB", "01-701-1115", 24, "MCV", "Ery. Mean Corpuscular Volume", "HEMATOLOGY", "92", "fL", "80", "100", "92", 92, "fL", 80, 100, "NORMAL", "Y", 1.0, "SCREENING 1", -7, "SCREENING", "2012-11-23T11:20", -7], ["CDISCPILOT01", "LB", "01-701-1115", 61, "MCV", "Ery. Mean Corpuscular Volume", "HEMATOLOGY", "96", "fL", "80", "100", "96", 96, "fL", 80, 100, "NORMAL", "", 4.0, "WEEK 2", 14, "TREATMENT", "2012-12-13T14:05", 14], ["CDISCPILOT01", "LB", "01-701-1115", 94, "MCV", "Ery. Mean Corpuscular Volume", "HEMATOLOGY", "96", "fL", "80", "100", "96", 96, "fL", 80, 100, "NORMAL", "", 5.0, "WEEK 4", 28, "TREATMENT", "2012-12-26T08:44", 27], ["CDISCPILOT01", "LB", "01-701-1115", 139, "MCV", "Ery. Mean Corpuscular Volume", "HEMATOLOGY", "95", "fL", "80", "100", "95", 95, "fL", 80, 100, "NORMAL", "", 7.0, "WEEK 6", 42, "TREATMENT", "2013-01-10T15:20", 42], ["CDISCPILOT01", "LB", "01-701-1115", 171, "MCV", "Ery. Mean Corpuscular Volume", "HEMATOLOGY", "94", "fL", "80", "100", "94", 94, "fL", 80, 100, "NORMAL", "", 8.0, "WEEK 8", 56, "TREATMENT", "2013-01-23T12:13", 55], ["CDISCPILOT01", "LB", "01-701-1115", 25, "MONO", "Monocytes", "HEMATOLOGY", "0.38", "10^9/L", "0.12", "0.92", "0.38", 0, "10^9/L", 0, 0, "NORMAL", "Y", 1.0, "SCREENING 1", -7, "SCREENING", "2012-11-23T11:20", -7], ["CDISCPILOT01", "LB", "01-701-1115", 62, "MONO", "Monocytes", "HEMATOLOGY", "0.36", "10^9/L", "0.12", "0.92", "0.36", 0, "10^9/L", 0, 0, "NORMAL", "", 4.0, "WEEK 2", 14, "TREATMENT", "2012-12-13T14:05", 14], ["CDISCPILOT01", "LB", "01-701-1115", 95, "MONO", "Monocytes", "HEMATOLOGY", "0.56", "10^9/L", "0.12", "0.92", "0.56", 0, "10^9/L", 0, 0, "NORMAL", "", 5.0, "WEEK 4", 28, "TREATMENT", "2012-12-26T08:44", 27], ["CDISCPILOT01", "LB", "01-701-1115", 140, "MONO", "Monocytes", "HEMATOLOGY", "0.38", "10^9/L", "0.12", "0.92", "0.38", 0, "10^9/L", 0, 0, "NORMAL", "", 7.0, "WEEK 6", 42, "TREATMENT", "2013-01-10T15:20", 42], ["CDISCPILOT01", "LB", "01-701-1115", 172, "MONO", "Monocytes", "HEMATOLOGY", "0.41", "10^9/L", "0.12", "0.92", "0.41", 0, "10^9/L", 0, 0, "NORMAL", "", 8.0, "WEEK 8", 56, "TREATMENT", "2013-01-23T12:13", 55], ["CDISCPILOT01", "LB", "01-701-1115", 29, "PLAT", "Platelets", "HEMATOLOGY", "150", "10^9/L", "130", "394", "150", 150, "10^9/L", 130, 394, "NORMAL", "Y", 1.0, "SCREENING 1", -7, "SCREENING", "2012-11-23T11:20", -7], ["CDISCPILOT01", "LB", "01-701-1115", 66, "PLAT", "Platelets", "HEMATOLOGY", "190", "10^9/L", "130", "394", "190", 190, "10^9/L", 130, 394, "NORMAL", "", 4.0, "WEEK 2", 14, "TREATMENT", "2012-12-13T14:05", 14], ["CDISCPILOT01", "LB", "01-701-1115", 98, "PLAT", "Platelets", "HEMATOLOGY", "187", "10^9/L", "130", "394", "187", 187, "10^9/L", 130, 394, "NORMAL", "", 5.0, "WEEK 4", 28, "TREATMENT", "2012-12-26T08:44", 27], ["CDISCPILOT01", "LB", "01-701-1115", 143, "PLAT", "Platelets", "HEMATOLOGY", "181", "10^9/L", "130", "394", "181", 181, "10^9/L", 130, 394, "NORMAL", "", 7.0, "WEEK 6", 42, "TREATMENT", "2013-01-10T15:20", 42], ["CDISCPILOT01", "LB", "01-701-1115", 176, "PLAT", "Platelets", "HEMATOLOGY", "174", "10^9/L", "130", "394", "174", 174, "10^9/L", 130, 394, "NORMAL", "", 8.0, "WEEK 8", 56, "TREATMENT", "2013-01-23T12:13", 55], ["CDISCPILOT01", "LB", "01-701-1115", 31, "RBC", "Erythrocytes", "HEMATOLOGY", "5.00", "10^12/L", "4", "5.8", "5", 5, "10^12/L", 4, 5, "NORMAL", "Y", 1.0, "SCREENING 1", -7, "SCREENING", "2012-11-23T11:20", -7], ["CDISCPILOT01", "LB", "01-701-1115", 68, "RBC", "Erythrocytes", "HEMATOLOGY", "4.70", "10^12/L", "4", "5.8", "4.7", 4, "10^12/L", 4, 5, "NORMAL", "", 4.0, "WEEK 2", 14, "TREATMENT", "2012-12-13T14:05", 14], ["CDISCPILOT01", "LB", "01-701-1115", 100, "RBC", "Erythrocytes", "HEMATOLOGY", "4.70", "10^12/L", "4", "5.8", "4.7", 4, "10^12/L", 4, 5, "NORMAL", "", 5.0, "WEEK 4", 28, "TREATMENT", "2012-12-26T08:44", 27], ["CDISCPILOT01", "LB", "01-701-1115", 145, "RBC", "Erythrocytes", "HEMATOLOGY", "4.70", "10^12/L", "4", "5.8", "4.7", 4, "10^12/L", 4, 5, "NORMAL", "", 7.0, "WEEK 6", 42, "TREATMENT", "2013-01-10T15:20", 42], ["CDISCPILOT01", "LB", "01-701-1115", 178, "RBC", "Erythrocytes", "HEMATOLOGY", "4.80", "10^12/L", "4", "5.8", "4.8", 4, "10^12/L", 4, 5, "NORMAL", "", 8.0, "WEEK 8", 56, "TREATMENT", "2013-01-23T12:13", 55], ["CDISCPILOT01", "LB", "01-701-1115", 37, "WBC", "Leukocytes", "HEMATOLOGY", "4.99", "10^9/L", "3.8", "10.7", "4.99", 4, "10^9/L", 3, 10, "NORMAL", "Y", 1.0, "SCREENING 1", -7, "SCREENING", "2012-11-23T11:20", -7], ["CDISCPILOT01", "LB", "01-701-1115", 72, "WBC", "Leukocytes", "HEMATOLOGY", "4.44", "10^9/L", "3.8", "10.7", "4.44", 4, "10^9/L", 3, 10, "NORMAL", "", 4.0, "WEEK 2", 14, "TREATMENT", "2012-12-13T14:05", 14], ["CDISCPILOT01", "LB", "01-701-1115", 102, "WBC", "Leukocytes", "HEMATOLOGY", "5.40", "10^9/L", "3.8", "10.7", "5.4", 5, "10^9/L", 3, 10, "NORMAL", "", 5.0, "WEEK 4", 28, "TREATMENT", "2012-12-26T08:44", 27], ["CDISCPILOT01", "LB", "01-701-1115", 147, "WBC", "Leukocytes", "HEMATOLOGY", "4.52", "10^9/L", "3.8", "10.7", "4.52", 4, "10^9/L", 3, 10, "NORMAL", "", 7.0, "WEEK 6", 42, "TREATMENT", "2013-01-10T15:20", 42], ["CDISCPILOT01", "LB", "01-701-1115", 182, "WBC", "Leukocytes", "HEMATOLOGY", "4.98", "10^9/L", "3.8", "10.7", "4.98", 4, "10^9/L", 3, 10, "NORMAL", "", 8.0, "WEEK 8", 56, "TREATMENT", "2013-01-23T12:13", 55], ["CDISCPILOT01", "LB", "01-701-1118", 5, "BASO", "Basophils", "HEMATOLOGY", "0.04", "10^9/L", "0", "0.2", "0.04", 0, "10^9/L", 0, 0, "NORMAL", "Y", 1.0, "SCREENING 1", -7, "SCREENING", "2014-02-27T10:32", -13], ["CDISCPILOT01", "LB", "01-701-1118", 42, "BASO", "Basophils", "HEMATOLOGY", "0.02", "10^9/L", "0", "0.2", "0.02", 0, "10^9/L", 0, 0, "NORMAL", "", 4.0, "WEEK 2", 14, "TREATMENT", "2014-03-26T10:50", 15], ["CDISCPILOT01", "LB", "01-701-1118", 77, "BASO", "Basophils", "HEMATOLOGY", "0.04", "10^9/L", "0", "0.2", "0.04", 0, "10^9/L", 0, 0, "NORMAL", "", 5.0, "WEEK 4", 28, "TREATMENT", "2014-04-09T11:01", 29], ["CDISCPILOT01", "LB", "01-701-1118", 107, "BASO", "Basophils", "HEMATOLOGY", "0.03", "10^9/L", "0", "0.2", "0.03", 0, "10^9/L", 0, 0, "NORMAL", "", 7.0, "WEEK 6", 42, "TREATMENT", "2014-04-23T15:22", 43], ["CDISCPILOT01", "LB", "01-701-1118", 137, "BASO", "Basophils", "HEMATOLOGY", "0.05", "10^9/L", "0", "0.2", "0.05", 0, "10^9/L", 0, 0, "NORMAL", "", 8.0, "WEEK 8", 56, "TREATMENT", "2014-05-08T09:30", 58], ["CDISCPILOT01", "LB", "01-701-1118", 167, "BASO", "Basophils", "HEMATOLOGY", "0.04", "10^9/L", "0", "0.2", "0.04", 0, "10^9/L", 0, 0, "NORMAL", "", 9.0, "WEEK 12", 84, "TREATMENT", "2014-06-05T08:14", 86], ["CDISCPILOT01", "LB", "01-701-1118", 202, "BASO", "Basophils", "HEMATOLOGY", "0.03", "10^9/L", "0", "0.2", "0.03", 0, "10^9/L", 0, 0, "NORMAL", "", 10.0, "WEEK 16", 112, "TREATMENT", "2014-07-02T10:12", 113], ["CDISCPILOT01", "LB", "01-701-1118", 232, "BASO", "Basophils", "HEMATOLOGY", "0.04", "10^9/L", "0", "0.2", "0.04", 0, "10^9/L", 0, 0, "NORMAL", "", 11.0, "WEEK 20", 140, "TREATMENT", "2014-07-30T13:50", 141], ["CDISCPILOT01", "LB", "01-701-1118", 262, "BASO", "Basophils", "HEMATOLOGY", "0.11", "10^9/L", "0", "0.2", "0.11", 0, "10^9/L", 0, 0, "NORMAL", "", 12.0, "WEEK 24", 168, "TREATMENT", "2014-08-27T11:27", 169], ["CDISCPILOT01", "LB", "01-701-1118", 297, "BASO", "Basophils", "HEMATOLOGY", "0.04", "10^9/L", "0", "0.2", "0.04", 0, "10^9/L", 0, 0, "NORMAL", "", 13.0, "WEEK 26", 182, "TREATMENT", "2014-09-09T13:28", 182], ["CDISCPILOT01", "LB", "01-701-1118", 14, "EOS", "Eosinophils", "HEMATOLOGY", "0.32", "10^9/L", "0", "0.57", "0.32", 0, "10^9/L", 0, 0, "NORMAL", "Y", 1.0, "SCREENING 1", -7, "SCREENING", "2014-02-27T10:32", -13], ["CDISCPILOT01", "LB", "01-701-1118", 51, "EOS", "Eosinophils", "HEMATOLOGY", "0.09", "10^9/L", "0", "0.57", "0.09", 0, "10^9/L", 0, 0, "NORMAL", "", 4.0, "WEEK 2", 14, "TREATMENT", "2014-03-26T10:50", 15], ["CDISCPILOT01", "LB", "01-701-1118", 85, "EOS", "Eosinophils", "HEMATOLOGY", "0.08", "10^9/L", "0", "0.57", "0.08", 0, "10^9/L", 0, 0, "NORMAL", "", 5.0, "WEEK 4", 28, "TREATMENT", "2014-04-09T11:01", 29], ["CDISCPILOT01", "LB", "01-701-1118", 115, "EOS", "Eosinophils", "HEMATOLOGY", "0.17", "10^9/L", "0", "0.57", "0.17", 0, "10^9/L", 0, 0, "NORMAL", "", 7.0, "WEEK 6", 42, "TREATMENT", "2014-04-23T15:22", 43], ["CDISCPILOT01", "LB", "01-701-1118", 145, "EOS", "Eosinophils", "HEMATOLOGY", "0.17", "10^9/L", "0", "0.57", "0.17", 0, "10^9/L", 0, 0, "NORMAL", "", 8.0, "WEEK 8", 56, "TREATMENT", "2014-05-08T09:30", 58], ["CDISCPILOT01", "LB", "01-701-1118", 176, "EOS", "Eosinophils", "HEMATOLOGY", "0.13", "10^9/L", "0", "0.57", "0.13", 0, "10^9/L", 0, 0, "NORMAL", "", 9.0, "WEEK 12", 84, "TREATMENT", "2014-06-05T08:14", 86], ["CDISCPILOT01", "LB", "01-701-1118", 210, "EOS", "Eosinophils", "HEMATOLOGY", "0.16", "10^9/L", "0", "0.57", "0.16", 0, "10^9/L", 0, 0, "NORMAL", "", 10.0, "WEEK 16", 112, "TREATMENT", "2014-07-02T10:12", 113], ["CDISCPILOT01", "LB", "01-701-1118", 240, "EOS", "Eosinophils", "HEMATOLOGY", "0.08", "10^9/L", "0", "0.57", "0.08", 0, "10^9/L", 0, 0, "NORMAL", "", 11.0, "WEEK 20", 140, "TREATMENT", "2014-07-30T13:50", 141], ["CDISCPILOT01", "LB", "01-701-1118", 271, "EOS", "Eosinophils", "HEMATOLOGY", "0.09", "10^9/L", "0", "0.57", "0.09", 0, "10^9/L", 0, 0, "NORMAL", "", 12.0, "WEEK 24", 168, "TREATMENT", "2014-08-27T11:27", 169], ["CDISCPILOT01", "LB", "01-701-1118", 305, "EOS", "Eosinophils", "HEMATOLOGY", "0.11", "10^9/L", "0", "0.57", "0.11", 0, "10^9/L", 0, 0, "NORMAL", "", 13.0, "WEEK 26", 182, "TREATMENT", "2014-09-09T13:28", 182], ["CDISCPILOT01", "LB", "01-701-1118", 17, "HCT", "Hematocrit", "HEMATOLOGY", "45.0", "%", "39", "54", "0.45", 0, "", 0, 0, "NORMAL", "Y", 1.0, "SCREENING 1", -7, "SCREENING", "2014-02-27T10:32", -13], ["CDISCPILOT01", "LB", "01-701-1118", 54, "HCT", "Hematocrit", "HEMATOLOGY", "45.0", "%", "39", "54", "0.45", 0, "", 0, 0, "NORMAL", "", 4.0, "WEEK 2", 14, "TREATMENT", "2014-03-26T10:50", 15], ["CDISCPILOT01", "LB", "01-701-1118", 88, "HCT", "Hematocrit", "HEMATOLOGY", "44.0", "%", "39", "54", "0.44", 0, "", 0, 0, "NORMAL", "", 5.0, "WEEK 4", 28, "TREATMENT", "2014-04-09T11:01", 29], ["CDISCPILOT01", "LB", "01-701-1118", 118, "HCT", "Hematocrit", "HEMATOLOGY", "42.0", "%", "39", "54", "0.42", 0, "", 0, 0, "NORMAL", "", 7.0, "WEEK 6", 42, "TREATMENT", "2014-04-23T15:22", 43], ["CDISCPILOT01", "LB", "01-701-1118", 148, "HCT", "Hematocrit", "HEMATOLOGY", "45.0", "%", "39", "54", "0.45", 0, "", 0, 0, "NORMAL", "", 8.0, "WEEK 8", 56, "TREATMENT", "2014-05-08T09:30", 58], ["CDISCPILOT01", "LB", "01-701-1118", 179, "HCT", "Hematocrit", "HEMATOLOGY", "47.0", "%", "39", "54", "0.47", 0, "", 0, 0, "NORMAL", "", 9.0, "WEEK 12", 84, "TREATMENT", "2014-06-05T08:14", 86], ["CDISCPILOT01", "LB", "01-701-1118", 213, "HCT", "Hematocrit", "HEMATOLOGY", "44.0", "%", "39", "54", "0.44", 0, "", 0, 0, "NORMAL", "", 10.0, "WEEK 16", 112, "TREATMENT", "2014-07-02T10:12", 113], ["CDISCPILOT01", "LB", "01-701-1118", 243, "HCT", "Hematocrit", "HEMATOLOGY", "45.0", "%", "39", "54", "0.45", 0, "", 0, 0, "NORMAL", "", 11.0, "WEEK 20", 140, "TREATMENT", "2014-07-30T13:50", 141], ["CDISCPILOT01", "LB", "01-701-1118", 274, "HCT", "Hematocrit", "HEMATOLOGY", "48.0", "%", "39", "54", "0.48", 0, "", 0, 0, "NORMAL", "", 12.0, "WEEK 24", 168, "TREATMENT", "2014-08-27T11:27", 169], ["CDISCPILOT01", "LB", "01-701-1118", 308, "HCT", "Hematocrit", "HEMATOLOGY", "42.0", "%", "39", "54", "0.42", 0, "", 0, 0, "NORMAL", "", 13.0, "WEEK 26", 182, "TREATMENT", "2014-09-09T13:28", 182], ["CDISCPILOT01", "LB", "01-701-1118", 18, "HGB", "Hemoglobin", "HEMATOLOGY", "15.6", "g/dL", "12.7", "18.1", "9.68136", 9, "mmol/L", 7, 11, "NORMAL", "Y", 1.0, "SCREENING 1", -7, "SCREENING", "2014-02-27T10:32", -13], ["CDISCPILOT01", "LB", "01-701-1118", 55, "HGB", "Hemoglobin", "HEMATOLOGY", "15.5", "g/dL", "12.7", "18.1", "9.6193", 9, "mmol/L", 7, 11, "NORMAL", "", 4.0, "WEEK 2", 14, "TREATMENT", "2014-03-26T10:50", 15], ["CDISCPILOT01", "LB", "01-701-1118", 89, "HGB", "Hemoglobin", "HEMATOLOGY", "15.6", "g/dL", "12.7", "18.1", "9.68136", 9, "mmol/L", 7, 11, "NORMAL", "", 5.0, "WEEK 4", 28, "TREATMENT", "2014-04-09T11:01", 29], ["CDISCPILOT01", "LB", "01-701-1118", 119, "HGB", "Hemoglobin", "HEMATOLOGY", "15.5", "g/dL", "12.7", "18.1", "9.6193", 9, "mmol/L", 7, 11, "NORMAL", "", 7.0, "WEEK 6", 42, "TREATMENT", "2014-04-23T15:22", 43], ["CDISCPILOT01", "LB", "01-701-1118", 149, "HGB", "Hemoglobin", "HEMATOLOGY", "15.7", "g/dL", "12.7", "18.1", "9.74342", 9, "mmol/L", 7, 11, "NORMAL", "", 8.0, "WEEK 8", 56, "TREATMENT", "2014-05-08T09:30", 58], ["CDISCPILOT01", "LB", "01-701-1118", 180, "HGB", "Hemoglobin", "HEMATOLOGY", "15.7", "g/dL", "12.7", "18.1", "9.74342", 9, "mmol/L", 7, 11, "NORMAL", "", 9.0, "WEEK 12", 84, "TREATMENT", "2014-06-05T08:14", 86], ["CDISCPILOT01", "LB", "01-701-1118", 214, "HGB", "Hemoglobin", "HEMATOLOGY", "15.6", "g/dL", "12.7", "18.1", "9.68136", 9, "mmol/L", 7, 11, "NORMAL", "", 10.0, "WEEK 16", 112, "TREATMENT", "2014-07-02T10:12", 113], ["CDISCPILOT01", "LB", "01-701-1118", 244, "HGB", "Hemoglobin", "HEMATOLOGY", "15.7", "g/dL", "12.7", "18.1", "9.74342", 9, "mmol/L", 7, 11, "NORMAL", "", 11.0, "WEEK 20", 140, "TREATMENT", "2014-07-30T13:50", 141], ["CDISCPILOT01", "LB", "01-701-1118", 275, "HGB", "Hemoglobin", "HEMATOLOGY", "15.3", "g/dL", "12.7", "18.1", "9.49518", 9, "mmol/L", 7, 11, "NORMAL", "", 12.0, "WEEK 24", 168, "TREATMENT", "2014-08-27T11:27", 169], ["CDISCPILOT01", "LB", "01-701-1118", 309, "HGB", "Hemoglobin", "HEMATOLOGY", "14.9", "g/dL", "12.7", "18.1", "9.24694", 9, "mmol/L", 7, 11, "NORMAL", "", 13.0, "WEEK 26", 182, "TREATMENT", "2014-09-09T13:28", 182], ["CDISCPILOT01", "LB", "01-701-1118", 21, "LYM", "Lymphocytes", "HEMATOLOGY", "1.94", "10^9/L", "0.91", "4.28", "1.94", 1, "10^9/L", 0, 4, "NORMAL", "Y", 1.0, "SCREENING 1", -7, "SCREENING", "2014-02-27T10:32", -13], ["CDISCPILOT01", "LB", "01-701-1118", 58, "LYM", "Lymphocytes", "HEMATOLOGY", "1.40", "10^9/L", "0.91", "4.28", "1.4", 1, "10^9/L", 0, 4, "NORMAL", "", 4.0, "WEEK 2", 14, "TREATMENT", "2014-03-26T10:50", 15], ["CDISCPILOT01", "LB", "01-701-1118", 91, "LYM", "Lymphocytes", "HEMATOLOGY", "1.72", "10^9/L", "0.91", "4.28", "1.72", 1, "10^9/L", 0, 4, "NORMAL", "", 5.0, "WEEK 4", 28, "TREATMENT", "2014-04-09T11:01", 29], ["CDISCPILOT01", "LB", "01-701-1118", 121, "LYM", "Lymphocytes", "HEMATOLOGY", "2.05", "10^9/L", "0.91", "4.28", "2.05", 2, "10^9/L", 0, 4, "NORMAL", "", 7.0, "WEEK 6", 42, "TREATMENT", "2014-04-23T15:22", 43], ["CDISCPILOT01", "LB", "01-701-1118", 151, "LYM", "Lymphocytes", "HEMATOLOGY", "2.80", "10^9/L", "0.91", "4.28", "2.8", 2, "10^9/L", 0, 4, "NORMAL", "", 8.0, "WEEK 8", 56, "TREATMENT", "2014-05-08T09:30", 58], ["CDISCPILOT01", "LB", "01-701-1118", 183, "LYM", "Lymphocytes", "HEMATOLOGY", "1.62", "10^9/L", "0.91", "4.28", "1.62", 1, "10^9/L", 0, 4, "NORMAL", "", 9.0, "WEEK 12", 84, "TREATMENT", "2014-06-05T08:14", 86], ["CDISCPILOT01", "LB", "01-701-1118", 216, "LYM", "Lymphocytes", "HEMATOLOGY", "1.67", "10^9/L", "0.91", "4.28", "1.67", 1, "10^9/L", 0, 4, "NORMAL", "", 10.0, "WEEK 16", 112, "TREATMENT", "2014-07-02T10:12", 113], ["CDISCPILOT01", "LB", "01-701-1118", 246, "LYM", "Lymphocytes", "HEMATOLOGY", "1.65", "10^9/L", "0.91", "4.28", "1.65", 1, "10^9/L", 0, 4, "NORMAL", "", 11.0, "WEEK 20", 140, "TREATMENT", "2014-07-30T13:50", 141], ["CDISCPILOT01", "LB", "01-701-1118", 278, "LYM", "Lymphocytes", "HEMATOLOGY", "1.57", "10^9/L", "0.91", "4.28", "1.57", 1, "10^9/L", 0, 4, "NORMAL", "", 12.0, "WEEK 24", 168, "TREATMENT", "2014-08-27T11:27", 169], ["CDISCPILOT01", "LB", "01-701-1118", 311, "LYM", "Lymphocytes", "HEMATOLOGY", "1.72", "10^9/L", "0.91", "4.28", "1.72", 1, "10^9/L", 0, 4, "NORMAL", "", 13.0, "WEEK 26", 182, "TREATMENT", "2014-09-09T13:28", 182], ["CDISCPILOT01", "LB", "01-701-1118", 22, "MCH", "Ery. Mean Corpuscular Hemoglobin", "HEMATOLOGY", "32", "pg", "26", "34", "1.98592", 1, "fmol", 1, 2, "NORMAL", "Y", 1.0, "SCREENING 1", -7, "SCREENING", "2014-02-27T10:32", -13], ["CDISCPILOT01", "LB", "01-701-1118", 59, "MCH", "Ery. Mean Corpuscular Hemoglobin", "HEMATOLOGY", "31", "pg", "26", "34", "1.92386", 1, "fmol", 1, 2, "NORMAL", "", 4.0, "WEEK 2", 14, "TREATMENT", "2014-03-26T10:50", 15], ["CDISCPILOT01", "LB", "01-701-1118", 92, "MCH", "Ery. Mean Corpuscular Hemoglobin", "HEMATOLOGY", "31", "pg", "26", "34", "1.92386", 1, "fmol", 1, 2, "NORMAL", "", 5.0, "WEEK 4", 28, "TREATMENT", "2014-04-09T11:01", 29], ["CDISCPILOT01", "LB", "01-701-1118", 122, "MCH", "Ery. Mean Corpuscular Hemoglobin", "HEMATOLOGY", "33", "pg", "26", "34", "2.04798", 2, "fmol", 1, 2, "NORMAL", "", 7.0, "WEEK 6", 42, "TREATMENT", "2014-04-23T15:22", 43], ["CDISCPILOT01", "LB", "01-701-1118", 152, "MCH", "Ery. Mean Corpuscular Hemoglobin", "HEMATOLOGY", "32", "pg", "26", "34", "1.98592", 1, "fmol", 1, 2, "NORMAL", "", 8.0, "WEEK 8", 56, "TREATMENT", "2014-05-08T09:30", 58], ["CDISCPILOT01", "LB", "01-701-1118", 184, "MCH", "Ery. Mean Corpuscular Hemoglobin", "HEMATOLOGY", "31", "pg", "26", "34", "1.92386", 1, "fmol", 1, 2, "NORMAL", "", 9.0, "WEEK 12", 84, "TREATMENT", "2014-06-05T08:14", 86], ["CDISCPILOT01", "LB", "01-701-1118", 217, "MCH", "Ery. Mean Corpuscular Hemoglobin", "HEMATOLOGY", "31", "pg", "26", "34", "1.92386", 1, "fmol", 1, 2, "NORMAL", "", 10.0, "WEEK 16", 112, "TREATMENT", "2014-07-02T10:12", 113], ["CDISCPILOT01", "LB", "01-701-1118", 247, "MCH", "Ery. Mean Corpuscular Hemoglobin", "HEMATOLOGY", "31", "pg", "26", "34", "1.92386", 1, "fmol", 1, 2, "NORMAL", "", 11.0, "WEEK 20", 140, "TREATMENT", "2014-07-30T13:50", 141], ["CDISCPILOT01", "LB", "01-701-1118", 279, "MCH", "Ery. Mean Corpuscular Hemoglobin", "HEMATOLOGY", "31", "pg", "26", "34", "1.92386", 1, "fmol", 1, 2, "NORMAL", "", 12.0, "WEEK 24", 168, "TREATMENT", "2014-08-27T11:27", 169], ["CDISCPILOT01", "LB", "01-701-1118", 312, "MCH", "Ery. Mean Corpuscular Hemoglobin", "HEMATOLOGY", "32", "pg", "26", "34", "1.98592", 1, "fmol", 1, 2, "NORMAL", "", 13.0, "WEEK 26", 182, "TREATMENT", "2014-09-09T13:28", 182], ["CDISCPILOT01", "LB", "01-701-1118", 23, "MCHC", "Ery. Mean Corpuscular HGB Concentration", "HEMATOLOGY", "35", "g/dL", "31", "38", "21.721", 21, "mmol/L", 19, 24, "NORMAL", "Y", 1.0, "SCREENING 1", -7, "SCREENING", "2014-02-27T10:32", -13], ["CDISCPILOT01", "LB", "01-701-1118", 60, "MCHC", "Ery. Mean Corpuscular HGB Concentration", "HEMATOLOGY", "35", "g/dL", "31", "38", "21.721", 21, "mmol/L", 19, 24, "NORMAL", "", 4.0, "WEEK 2", 14, "TREATMENT", "2014-03-26T10:50", 15], ["CDISCPILOT01", "LB", "01-701-1118", 93, "MCHC", "Ery. Mean Corpuscular HGB Concentration", "HEMATOLOGY", "35", "g/dL", "31", "38", "21.721", 21, "mmol/L", 19, 24, "NORMAL", "", 5.0, "WEEK 4", 28, "TREATMENT", "2014-04-09T11:01", 29], ["CDISCPILOT01", "LB", "01-701-1118", 123, "MCHC", "Ery. Mean Corpuscular HGB Concentration", "HEMATOLOGY", "37", "g/dL", "31", "38", "22.9622", 22, "mmol/L", 19, 24, "NORMAL", "", 7.0, "WEEK 6", 42, "TREATMENT", "2014-04-23T15:22", 43], ["CDISCPILOT01", "LB", "01-701-1118", 153, "MCHC", "Ery. Mean Corpuscular HGB Concentration", "HEMATOLOGY", "35", "g/dL", "31", "38", "21.721", 21, "mmol/L", 19, 24, "NORMAL", "", 8.0, "WEEK 8", 56, "TREATMENT", "2014-05-08T09:30", 58], ["CDISCPILOT01", "LB", "01-701-1118", 185, "MCHC", "Ery. Mean Corpuscular HGB Concentration", "HEMATOLOGY", "33", "g/dL", "31", "38", "20.4798", 20, "mmol/L", 19, 24, "NORMAL", "", 9.0, "WEEK 12", 84, "TREATMENT", "2014-06-05T08:14", 86], ["CDISCPILOT01", "LB", "01-701-1118", 218, "MCHC", "Ery. Mean Corpuscular HGB Concentration", "HEMATOLOGY", "35", "g/dL", "31", "38", "21.721", 21, "mmol/L", 19, 24, "NORMAL", "", 10.0, "WEEK 16", 112, "TREATMENT", "2014-07-02T10:12", 113], ["CDISCPILOT01", "LB", "01-701-1118", 248, "MCHC", "Ery. Mean Corpuscular HGB Concentration", "HEMATOLOGY", "35", "g/dL", "31", "38", "21.721", 21, "mmol/L", 19, 24, "NORMAL", "", 11.0, "WEEK 20", 140, "TREATMENT", "2014-07-30T13:50", 141], ["CDISCPILOT01", "LB", "01-701-1118", 280, "MCHC", "Ery. Mean Corpuscular HGB Concentration", "HEMATOLOGY", "32", "g/dL", "31", "38", "19.8592", 19, "mmol/L", 19, 24, "NORMAL", "", 12.0, "WEEK 24", 168, "TREATMENT", "2014-08-27T11:27", 169], ["CDISCPILOT01", "LB", "01-701-1118", 313, "MCHC", "Ery. Mean Corpuscular HGB Concentration", "HEMATOLOGY", "36", "g/dL", "31", "38", "22.3416", 22, "mmol/L", 19, 24, "NORMAL", "", 13.0, "WEEK 26", 182, "TREATMENT", "2014-09-09T13:28", 182], ["CDISCPILOT01", "LB", "01-701-1118", 24, "MCV", "Ery. Mean Corpuscular Volume", "HEMATOLOGY", "92", "fL", "79", "96", "92", 92, "fL", 79, 96, "NORMAL", "Y", 1.0, "SCREENING 1", -7, "SCREENING", "2014-02-27T10:32", -13], ["CDISCPILOT01", "LB", "01-701-1118", 61, "MCV", "Ery. Mean Corpuscular Volume", "HEMATOLOGY", "88", "fL", "79", "96", "88", 88, "fL", 79, 96, "NORMAL", "", 4.0, "WEEK 2", 14, "TREATMENT", "2014-03-26T10:50", 15], ["CDISCPILOT01", "LB", "01-701-1118", 94, "MCV", "Ery. Mean Corpuscular Volume", "HEMATOLOGY", "88", "fL", "79", "96", "88", 88, "fL", 79, 96, "NORMAL", "", 5.0, "WEEK 4", 28, "TREATMENT", "2014-04-09T11:01", 29], ["CDISCPILOT01", "LB", "01-701-1118", 124, "MCV", "Ery. Mean Corpuscular Volume", "HEMATOLOGY", "90", "fL", "79", "96", "90", 90, "fL", 79, 96, "NORMAL", "", 7.0, "WEEK 6", 42, "TREATMENT", "2014-04-23T15:22", 43], ["CDISCPILOT01", "LB", "01-701-1118", 154, "MCV", "Ery. Mean Corpuscular Volume", "HEMATOLOGY", "91", "fL", "79", "96", "91", 91, "fL", 79, 96, "NORMAL", "", 8.0, "WEEK 8", 56, "TREATMENT", "2014-05-08T09:30", 58], ["CDISCPILOT01", "LB", "01-701-1118", 186, "MCV", "Ery. Mean Corpuscular Volume", "HEMATOLOGY", "92", "fL", "79", "96", "92", 92, "fL", 79, 96, "NORMAL", "", 9.0, "WEEK 12", 84, "TREATMENT", "2014-06-05T08:14", 86], ["CDISCPILOT01", "LB", "01-701-1118", 219, "MCV", "Ery. Mean Corpuscular Volume", "HEMATOLOGY", "88", "fL", "79", "96", "88", 88, "fL", 79, 96, "NORMAL", "", 10.0, "WEEK 16", 112, "TREATMENT", "2014-07-02T10:12", 113], ["CDISCPILOT01", "LB", "01-701-1118", 249, "MCV", "Ery. Mean Corpuscular Volume", "HEMATOLOGY", "88", "fL", "79", "96", "88", 88, "fL", 79, 96, "NORMAL", "", 11.0, "WEEK 20", 140, "TREATMENT", "2014-07-30T13:50", 141], ["CDISCPILOT01", "LB", "01-701-1118", 281, "MCV", "Ery. Mean Corpuscular Volume", "HEMATOLOGY", "96", "fL", "79", "96", "96", 96, "fL", 79, 96, "NORMAL", "", 12.0, "WEEK 24", 168, "TREATMENT", "2014-08-27T11:27", 169], ["CDISCPILOT01", "LB", "01-701-1118", 314, "MCV", "Ery. Mean Corpuscular Volume", "HEMATOLOGY", "89", "fL", "79", "96", "89", 89, "fL", 79, 96, "NORMAL", "", 13.0, "WEEK 26", 182, "TREATMENT", "2014-09-09T13:28", 182], ["CDISCPILOT01", "LB", "01-701-1118", 25, "MONO", "Monocytes", "HEMATOLOGY", "0.73", "10^9/L", "0.12", "0.92", "0.73", 0, "10^9/L", 0, 0, "NORMAL", "Y", 1.0, "SCREENING 1", -7, "SCREENING", "2014-02-27T10:32", -13], ["CDISCPILOT01", "LB", "01-701-1118", 62, "MONO", "Monocytes", "HEMATOLOGY", "0.39", "10^9/L", "0.12", "0.92", "0.39", 0, "10^9/L", 0, 0, "NORMAL", "", 4.0, "WEEK 2", 14, "TREATMENT", "2014-03-26T10:50", 15], ["CDISCPILOT01", "LB", "01-701-1118", 95, "MONO", "Monocytes", "HEMATOLOGY", "0.54", "10^9/L", "0.12", "0.92", "0.54", 0, "10^9/L", 0, 0, "NORMAL", "", 5.0, "WEEK 4", 28, "TREATMENT", "2014-04-09T11:01", 29], ["CDISCPILOT01", "LB", "01-701-1118", 125, "MONO", "Monocytes", "HEMATOLOGY", "0.42", "10^9/L", "0.12", "0.92", "0.42", 0, "10^9/L", 0, 0, "NORMAL", "", 7.0, "WEEK 6", 42, "TREATMENT", "2014-04-23T15:22", 43], ["CDISCPILOT01", "LB", "01-701-1118", 155, "MONO", "Monocytes", "HEMATOLOGY", "0.88", "10^9/L", "0.12", "0.92", "0.88", 0, "10^9/L", 0, 0, "NORMAL", "", 8.0, "WEEK 8", 56, "TREATMENT", "2014-05-08T09:30", 58], ["CDISCPILOT01", "LB", "01-701-1118", 187, "MONO", "Monocytes", "HEMATOLOGY", "0.45", "10^9/L", "0.12", "0.92", "0.45", 0, "10^9/L", 0, 0, "NORMAL", "", 9.0, "WEEK 12", 84, "TREATMENT", "2014-06-05T08:14", 86], ["CDISCPILOT01", "LB", "01-701-1118", 220, "MONO", "Monocytes", "HEMATOLOGY", "0.52", "10^9/L", "0.12", "0.92", "0.52", 0, "10^9/L", 0, 0, "NORMAL", "", 10.0, "WEEK 16", 112, "TREATMENT", "2014-07-02T10:12", 113], ["CDISCPILOT01", "LB", "01-701-1118", 250, "MONO", "Monocytes", "HEMATOLOGY", "0.51", "10^9/L", "0.12", "0.92", "0.51", 0, "10^9/L", 0, 0, "NORMAL", "", 11.0, "WEEK 20", 140, "TREATMENT", "2014-07-30T13:50", 141], ["CDISCPILOT01", "LB", "01-701-1118", 282, "MONO", "Monocytes", "HEMATOLOGY", "0.52", "10^9/L", "0.12", "0.92", "0.52", 0, "10^9/L", 0, 0, "NORMAL", "", 12.0, "WEEK 24", 168, "TREATMENT", "2014-08-27T11:27", 169], ["CDISCPILOT01", "LB", "01-701-1118", 315, "MONO", "Monocytes", "HEMATOLOGY", "0.44", "10^9/L", "0.12", "0.92", "0.44", 0, "10^9/L", 0, 0, "NORMAL", "", 13.0, "WEEK 26", 182, "TREATMENT", "2014-09-09T13:28", 182], ["CDISCPILOT01", "LB", "01-701-1118", 29, "PLAT", "Platelets", "HEMATOLOGY", "268", "10^9/L", "140", "400", "268", 268, "10^9/L", 140, 400, "NORMAL", "Y", 1.0, "SCREENING 1", -7, "SCREENING", "2014-02-27T10:32", -13], ["CDISCPILOT01", "LB", "01-701-1118", 66, "PLAT", "Platelets", "HEMATOLOGY", "285", "10^9/L", "140", "400", "285", 285, "10^9/L", 140, 400, "NORMAL", "", 4.0, "WEEK 2", 14, "TREATMENT", "2014-03-26T10:50", 15], ["CDISCPILOT01", "LB", "01-701-1118", 98, "PLAT", "Platelets", "HEMATOLOGY", "308", "10^9/L", "140", "400", "308", 308, "10^9/L", 140, 400, "NORMAL", "", 5.0, "WEEK 4", 28, "TREATMENT", "2014-04-09T11:01", 29], ["CDISCPILOT01", "LB", "01-701-1118", 128, "PLAT", "Platelets", "HEMATOLOGY", "274", "10^9/L", "140", "400", "274", 274, "10^9/L", 140, 400, "NORMAL", "", 7.0, "WEEK 6", 42, "TREATMENT", "2014-04-23T15:22", 43], ["CDISCPILOT01", "LB", "01-701-1118", 158, "PLAT", "Platelets", "HEMATOLOGY", "334", "10^9/L", "140", "400", "334", 334, "10^9/L", 140, 400, "NORMAL", "", 8.0, "WEEK 8", 56, "TREATMENT", "2014-05-08T09:30", 58], ["CDISCPILOT01", "LB", "01-701-1118", 191, "PLAT", "Platelets", "HEMATOLOGY", "293", "10^9/L", "140", "400", "293", 293, "10^9/L", 140, 400, "NORMAL", "", 9.0, "WEEK 12", 84, "TREATMENT", "2014-06-05T08:14", 86], ["CDISCPILOT01", "LB", "01-701-1118", 223, "PLAT", "Platelets", "HEMATOLOGY", "304", "10^9/L", "140", "400", "304", 304, "10^9/L", 140, 400, "NORMAL", "", 10.0, "WEEK 16", 112, "TREATMENT", "2014-07-02T10:12", 113], ["CDISCPILOT01", "LB", "01-701-1118", 253, "PLAT", "Platelets", "HEMATOLOGY", "324", "10^9/L", "140", "400", "324", 324, "10^9/L", 140, 400, "NORMAL", "", 11.0, "WEEK 20", 140, "TREATMENT", "2014-07-30T13:50", 141], ["CDISCPILOT01", "LB", "01-701-1118", 286, "PLAT", "Platelets", "HEMATOLOGY", "313", "10^9/L", "140", "400", "313", 313, "10^9/L", 140, 400, "NORMAL", "", 12.0, "WEEK 24", 168, "TREATMENT", "2014-08-27T11:27", 169], ["CDISCPILOT01", "LB", "01-701-1118", 318, "PLAT", "Platelets", "HEMATOLOGY", "271", "10^9/L", "140", "400", "271", 271, "10^9/L", 140, 400, "NORMAL", "", 13.0, "WEEK 26", 182, "TREATMENT", "2014-09-09T13:28", 182], ["CDISCPILOT01", "LB", "01-701-1118", 31, "RBC", "Erythrocytes", "HEMATOLOGY", "4.90", "10^12/L", "4.5", "6.4", "4.9", 4, "10^12/L", 4, 6, "NORMAL", "Y", 1.0, "SCREENING 1", -7, "SCREENING", "2014-02-27T10:32", -13], ["CDISCPILOT01", "LB", "01-701-1118", 68, "RBC", "Erythrocytes", "HEMATOLOGY", "5.10", "10^12/L", "4.5", "6.4", "5.1", 5, "10^12/L", 4, 6, "NORMAL", "", 4.0, "WEEK 2", 14, "TREATMENT", "2014-03-26T10:50", 15], ["CDISCPILOT01", "LB", "01-701-1118", 100, "RBC", "Erythrocytes", "HEMATOLOGY", "5.00", "10^12/L", "4.5", "6.4", "5", 5, "10^12/L", 4, 6, "NORMAL", "", 5.0, "WEEK 4", 28, "TREATMENT", "2014-04-09T11:01", 29], ["CDISCPILOT01", "LB", "01-701-1118", 130, "RBC", "Erythrocytes", "HEMATOLOGY", "4.70", "10^12/L", "4.5", "6.4", "4.7", 4, "10^12/L", 4, 6, "NORMAL", "", 7.0, "WEEK 6", 42, "TREATMENT", "2014-04-23T15:22", 43], ["CDISCPILOT01", "LB", "01-701-1118", 160, "RBC", "Erythrocytes", "HEMATOLOGY", "4.90", "10^12/L", "4.5", "6.4", "4.9", 4, "10^12/L", 4, 6, "NORMAL", "", 8.0, "WEEK 8", 56, "TREATMENT", "2014-05-08T09:30", 58], ["CDISCPILOT01", "LB", "01-701-1118", 193, "RBC", "Erythrocytes", "HEMATOLOGY", "5.10", "10^12/L", "4.5", "6.4", "5.1", 5, "10^12/L", 4, 6, "NORMAL", "", 9.0, "WEEK 12", 84, "TREATMENT", "2014-06-05T08:14", 86], ["CDISCPILOT01", "LB", "01-701-1118", 225, "RBC", "Erythrocytes", "HEMATOLOGY", "5.00", "10^12/L", "4.5", "6.4", "5", 5, "10^12/L", 4, 6, "NORMAL", "", 10.0, "WEEK 16", 112, "TREATMENT", "2014-07-02T10:12", 113], ["CDISCPILOT01", "LB", "01-701-1118", 255, "RBC", "Erythrocytes", "HEMATOLOGY", "5.10", "10^12/L", "4.5", "6.4", "5.1", 5, "10^12/L", 4, 6, "NORMAL", "", 11.0, "WEEK 20", 140, "TREATMENT", "2014-07-30T13:50", 141], ["CDISCPILOT01", "LB", "01-701-1118", 288, "RBC", "Erythrocytes", "HEMATOLOGY", "5.00", "10^12/L", "4.5", "6.4", "5", 5, "10^12/L", 4, 6, "NORMAL", "", 12.0, "WEEK 24", 168, "TREATMENT", "2014-08-27T11:27", 169], ["CDISCPILOT01", "LB", "01-701-1118", 320, "RBC", "Erythrocytes", "HEMATOLOGY", "4.70", "10^12/L", "4.5", "6.4", "4.7", 4, "10^12/L", 4, 6, "NORMAL", "", 13.0, "WEEK 26", 182, "TREATMENT", "2014-09-09T13:28", 182], ["CDISCPILOT01", "LB", "01-701-1118", 37, "WBC", "Leukocytes", "HEMATOLOGY", "7.89", "10^9/L", "3.8", "10.7", "7.89", 7, "10^9/L", 3, 10, "NORMAL", "Y", 1.0, "SCREENING 1", -7, "SCREENING", "2014-02-27T10:32", -13], ["CDISCPILOT01", "LB", "01-701-1118", 72, "WBC", "Leukocytes", "HEMATOLOGY", "6.07", "10^9/L", "3.8", "10.7", "6.07", 6, "10^9/L", 3, 10, "NORMAL", "", 4.0, "WEEK 2", 14, "TREATMENT", "2014-03-26T10:50", 15], ["CDISCPILOT01", "LB", "01-701-1118", 102, "WBC", "Leukocytes", "HEMATOLOGY", "5.89", "10^9/L", "3.8", "10.7", "5.89", 5, "10^9/L", 3, 10, "NORMAL", "", 5.0, "WEEK 4", 28, "TREATMENT", "2014-04-09T11:01", 29], ["CDISCPILOT01", "LB", "01-701-1118", 132, "WBC", "Leukocytes", "HEMATOLOGY", "6.59", "10^9/L", "3.8", "10.7", "6.59", 6, "10^9/L", 3, 10, "NORMAL", "", 7.0, "WEEK 6", 42, "TREATMENT", "2014-04-23T15:22", 43], ["CDISCPILOT01", "LB", "01-701-1118", 162, "WBC", "Leukocytes", "HEMATOLOGY", "8.22", "10^9/L", "3.8", "10.7", "8.22", 8, "10^9/L", 3, 10, "NORMAL", "", 8.0, "WEEK 8", 56, "TREATMENT", "2014-05-08T09:30", 58], ["CDISCPILOT01", "LB", "01-701-1118", 197, "WBC", "Leukocytes", "HEMATOLOGY", "6.33", "10^9/L", "3.8", "10.7", "6.33", 6, "10^9/L", 3, 10, "NORMAL", "", 9.0, "WEEK 12", 84, "TREATMENT", "2014-06-05T08:14", 86], ["CDISCPILOT01", "LB", "01-701-1118", 227, "WBC", "Leukocytes", "HEMATOLOGY", "6.69", "10^9/L", "3.8", "10.7", "6.69", 6, "10^9/L", 3, 10, "NORMAL", "", 10.0, "WEEK 16", 112, "TREATMENT", "2014-07-02T10:12", 113], ["CDISCPILOT01", "LB", "01-701-1118", 257, "WBC", "Leukocytes", "HEMATOLOGY", "7.01", "10^9/L", "3.8", "10.7", "7.01", 7, "10^9/L", 3, 10, "NORMAL", "", 11.0, "WEEK 20", 140, "TREATMENT", "2014-07-30T13:50", 141], ["CDISCPILOT01", "LB", "01-701-1118", 292, "WBC", "Leukocytes", "HEMATOLOGY", "7.10", "10^9/L", "3.8", "10.7", "7.1", 7, "10^9/L", 3, 10, "NORMAL", "", 12.0, "WEEK 24", 168, "TREATMENT", "2014-08-27T11:27", 169], ["CDISCPILOT01", "LB", "01-701-1118", 322, "WBC", "Leukocytes", "HEMATOLOGY", "5.95", "10^9/L", "3.8", "10.7", "5.95", 5, "10^9/L", 3, 10, "NORMAL", "", 13.0, "WEEK 26", 182, "TREATMENT", "2014-09-09T13:28", 182], ["CDISCPILOT01", "LB", "01-701-1130", 5, "BASO", "Basophils", "HEMATOLOGY", "0.03", "10^9/L", "0", "0.2", "0.03", 0, "10^9/L", 0, 0, "NORMAL", "Y", 1.0, "SCREENING 1", -7, "SCREENING", "2014-02-09T12:01", -6], ["CDISCPILOT01", "LB", "01-701-1130", 42, "BASO", "Basophils", "HEMATOLOGY", "0.07", "10^9/L", "0", "0.2", "0.07", 0, "10^9/L", 0, 0, "NORMAL", "", 4.0, "WEEK 2", 14, "TREATMENT", "2014-03-01T08:30", 15], ["CDISCPILOT01", "LB", "01-701-1130", 77, "BASO", "Basophils", "HEMATOLOGY", "0.03", "10^9/L", "0", "0.2", "0.03", 0, "10^9/L", 0, 0, "NORMAL", "", 5.0, "WEEK 4", 28, "TREATMENT", "2014-03-15T13:07", 29], ["CDISCPILOT01", "LB", "01-701-1130", 107, "BASO", "Basophils", "HEMATOLOGY", "0.05", "10^9/L", "0", "0.2", "0.05", 0, "10^9/L", 0, 0, "NORMAL", "", 7.0, "WEEK 6", 42, "TREATMENT", "2014-03-29T09:40", 43], ["CDISCPILOT01", "LB", "01-701-1130", 137, "BASO", "Basophils", "HEMATOLOGY", "0.04", "10^9/L", "0", "0.2", "0.04", 0, "10^9/L", 0, 0, "NORMAL", "", 8.0, "WEEK 8", 56, "TREATMENT", "2014-04-12T12:35", 57], ["CDISCPILOT01", "LB", "01-701-1130", 167, "BASO", "Basophils", "HEMATOLOGY", "0.04", "10^9/L", "0", "0.2", "0.04", 0, "10^9/L", 0, 0, "NORMAL", "", 9.0, "WEEK 12", 84, "TREATMENT", "2014-05-16T11:37", 91], ["CDISCPILOT01", "LB", "01-701-1130", 202, "BASO", "Basophils", "HEMATOLOGY", "0.05", "10^9/L", "0", "0.2", "0.05", 0, "10^9/L", 0, 0, "NORMAL", "", 10.0, "WEEK 16", 112, "TREATMENT", "2014-06-07T13:20", 113], ["CDISCPILOT01", "LB", "01-701-1130", 232, "BASO", "Basophils", "HEMATOLOGY", "0.05", "10^9/L", "0", "0.2", "0.05", 0, "10^9/L", 0, 0, "NORMAL", "", 11.0, "WEEK 20", 140, "TREATMENT", "2014-07-02T15:03", 138], ["CDISCPILOT01", "LB", "01-701-1130", 262, "BASO", "Basophils", "HEMATOLOGY", "0.04", "10^9/L", "0", "0.2", "0.04", 0, "10^9/L", 0, 0, "NORMAL", "", 12.0, "WEEK 24", 168, "TREATMENT", "2014-08-02T13:50", 169], ["CDISCPILOT01", "LB", "01-701-1130", 297, "BASO", "Basophils", "HEMATOLOGY", "0.05", "10^9/L", "0", "0.2", "0.05", 0, "10^9/L", 0, 0, "NORMAL", "", 13.0, "WEEK 26", 182, "TREATMENT", "2014-08-16T13:10", 183], ["CDISCPILOT01", "LB", "01-701-1130", 14, "EOS", "Eosinophils", "HEMATOLOGY", "0.16", "10^9/L", "0", "0.57", "0.16", 0, "10^9/L", 0, 0, "NORMAL", "Y", 1.0, "SCREENING 1", -7, "SCREENING", "2014-02-09T12:01", -6], ["CDISCPILOT01", "LB", "01-701-1130", 51, "EOS", "Eosinophils", "HEMATOLOGY", "0.20", "10^9/L", "0", "0.57", "0.2", 0, "10^9/L", 0, 0, "NORMAL", "", 4.0, "WEEK 2", 14, "TREATMENT", "2014-03-01T08:30", 15], ["CDISCPILOT01", "LB", "01-701-1130", 85, "EOS", "Eosinophils", "HEMATOLOGY", "0.18", "10^9/L", "0", "0.57", "0.18", 0, "10^9/L", 0, 0, "NORMAL", "", 5.0, "WEEK 4", 28, "TREATMENT", "2014-03-15T13:07", 29], ["CDISCPILOT01", "LB", "01-701-1130", 115, "EOS", "Eosinophils", "HEMATOLOGY", "0.17", "10^9/L", "0", "0.57", "0.17", 0, "10^9/L", 0, 0, "NORMAL", "", 7.0, "WEEK 6", 42, "TREATMENT", "2014-03-29T09:40", 43], ["CDISCPILOT01", "LB", "01-701-1130", 145, "EOS", "Eosinophils", "HEMATOLOGY", "0.17", "10^9/L", "0", "0.57", "0.17", 0, "10^9/L", 0, 0, "NORMAL", "", 8.0, "WEEK 8", 56, "TREATMENT", "2014-04-12T12:35", 57], ["CDISCPILOT01", "LB", "01-701-1130", 176, "EOS", "Eosinophils", "HEMATOLOGY", "0.21", "10^9/L", "0", "0.57", "0.21", 0, "10^9/L", 0, 0, "NORMAL", "", 9.0, "WEEK 12", 84, "TREATMENT", "2014-05-16T11:37", 91], ["CDISCPILOT01", "LB", "01-701-1130", 210, "EOS", "Eosinophils", "HEMATOLOGY", "0.07", "10^9/L", "0", "0.57", "0.07", 0, "10^9/L", 0, 0, "NORMAL", "", 10.0, "WEEK 16", 112, "TREATMENT", "2014-06-07T13:20", 113], ["CDISCPILOT01", "LB", "01-701-1130", 240, "EOS", "Eosinophils", "HEMATOLOGY", "0.22", "10^9/L", "0", "0.57", "0.22", 0, "10^9/L", 0, 0, "NORMAL", "", 11.0, "WEEK 20", 140, "TREATMENT", "2014-07-02T15:03", 138], ["CDISCPILOT01", "LB", "01-701-1130", 271, "EOS", "Eosinophils", "HEMATOLOGY", "0.22", "10^9/L", "0", "0.57", "0.22", 0, "10^9/L", 0, 0, "NORMAL", "", 12.0, "WEEK 24", 168, "TREATMENT", "2014-08-02T13:50", 169], ["CDISCPILOT01", "LB", "01-701-1130", 305, "EOS", "Eosinophils", "HEMATOLOGY", "0.38", "10^9/L", "0", "0.57", "0.38", 0, "10^9/L", 0, 0, "NORMAL", "", 13.0, "WEEK 26", 182, "TREATMENT", "2014-08-16T13:10", 183], ["CDISCPILOT01", "LB", "01-701-1130", 17, "HCT", "Hematocrit", "HEMATOLOGY", "36.0", "%", "37", "51", "0.36", 0, "", 0, 0, "LOW", "Y", 1.0, "SCREENING 1", -7, "SCREENING", "2014-02-09T12:01", -6], ["CDISCPILOT01", "LB", "01-701-1130", 54, "HCT", "Hematocrit", "HEMATOLOGY", "37.0", "%", "37", "51", "0.37", 0, "", 0, 0, "NORMAL", "", 4.0, "WEEK 2", 14, "TREATMENT", "2014-03-01T08:30", 15], ["CDISCPILOT01", "LB", "01-701-1130", 88, "HCT", "Hematocrit", "HEMATOLOGY", "31.0", "%", "37", "51", "0.31", 0, "", 0, 0, "LOW", "", 5.0, "WEEK 4", 28, "TREATMENT", "2014-03-15T13:07", 29], ["CDISCPILOT01", "LB", "01-701-1130", 118, "HCT", "Hematocrit", "HEMATOLOGY", "35.0", "%", "37", "51", "0.35", 0, "", 0, 0, "LOW", "", 7.0, "WEEK 6", 42, "TREATMENT", "2014-03-29T09:40", 43], ["CDISCPILOT01", "LB", "01-701-1130", 148, "HCT", "Hematocrit", "HEMATOLOGY", "33.0", "%", "37", "51", "0.33", 0, "", 0, 0, "LOW", "", 8.0, "WEEK 8", 56, "TREATMENT", "2014-04-12T12:35", 57], ["CDISCPILOT01", "LB", "01-701-1130", 179, "HCT", "Hematocrit", "HEMATOLOGY", "33.0", "%", "37", "51", "0.33", 0, "", 0, 0, "LOW", "", 9.0, "WEEK 12", 84, "TREATMENT", "2014-05-16T11:37", 91], ["CDISCPILOT01", "LB", "01-701-1130", 213, "HCT", "Hematocrit", "HEMATOLOGY", "38.0", "%", "37", "51", "0.38", 0, "", 0, 0, "NORMAL", "", 10.0, "WEEK 16", 112, "TREATMENT", "2014-06-07T13:20", 113], ["CDISCPILOT01", "LB", "01-701-1130", 243, "HCT", "Hematocrit", "HEMATOLOGY", "33.0", "%", "37", "51", "0.33", 0, "", 0, 0, "LOW", "", 11.0, "WEEK 20", 140, "TREATMENT", "2014-07-02T15:03", 138], ["CDISCPILOT01", "LB", "01-701-1130", 274, "HCT", "Hematocrit", "HEMATOLOGY", "37.0", "%", "37", "51", "0.37", 0, "", 0, 0, "NORMAL", "", 12.0, "WEEK 24", 168, "TREATMENT", "2014-08-02T13:50", 169], ["CDISCPILOT01", "LB", "01-701-1130", 308, "HCT", "Hematocrit", "HEMATOLOGY", "34.0", "%", "37", "51", "0.34", 0, "", 0, 0, "LOW", "", 13.0, "WEEK 26", 182, "TREATMENT", "2014-08-16T13:10", 183], ["CDISCPILOT01", "LB", "01-701-1130", 18, "HGB", "Hemoglobin", "HEMATOLOGY", "12.1", "g/dL", "12.5", "17", "7.50926", 7, "mmol/L", 7, 10, "LOW", "Y", 1.0, "SCREENING 1", -7, "SCREENING", "2014-02-09T12:01", -6], ["CDISCPILOT01", "LB", "01-701-1130", 55, "HGB", "Hemoglobin", "HEMATOLOGY", "12.6", "g/dL", "12.5", "17", "7.81956", 7, "mmol/L", 7, 10, "NORMAL", "", 4.0, "WEEK 2", 14, "TREATMENT", "2014-03-01T08:30", 15], ["CDISCPILOT01", "LB", "01-701-1130", 89, "HGB", "Hemoglobin", "HEMATOLOGY", "10.5", "g/dL", "12.5", "17", "6.5163", 6, "mmol/L", 7, 10, "LOW", "", 5.0, "WEEK 4", 28, "TREATMENT", "2014-03-15T13:07", 29], ["CDISCPILOT01", "LB", "01-701-1130", 119, "HGB", "Hemoglobin", "HEMATOLOGY", "11.8", "g/dL", "12.5", "17", "7.32308", 7, "mmol/L", 7, 10, "LOW", "", 7.0, "WEEK 6", 42, "TREATMENT", "2014-03-29T09:40", 43], ["CDISCPILOT01", "LB", "01-701-1130", 149, "HGB", "Hemoglobin", "HEMATOLOGY", "11.2", "g/dL", "12.5", "17", "6.95072", 6, "mmol/L", 7, 10, "LOW", "", 8.0, "WEEK 8", 56, "TREATMENT", "2014-04-12T12:35", 57], ["CDISCPILOT01", "LB", "01-701-1130", 180, "HGB", "Hemoglobin", "HEMATOLOGY", "11.5", "g/dL", "12.5", "17", "7.1369", 7, "mmol/L", 7, 10, "LOW", "", 9.0, "WEEK 12", 84, "TREATMENT", "2014-05-16T11:37", 91], ["CDISCPILOT01", "LB", "01-701-1130", 214, "HGB", "Hemoglobin", "HEMATOLOGY", "11.9", "g/dL", "12.5", "17", "7.38514", 7, "mmol/L", 7, 10, "LOW", "", 10.0, "WEEK 16", 112, "TREATMENT", "2014-06-07T13:20", 113], ["CDISCPILOT01", "LB", "01-701-1130", 244, "HGB", "Hemoglobin", "HEMATOLOGY", "11.1", "g/dL", "12.5", "17", "6.88866", 6, "mmol/L", 7, 10, "LOW", "", 11.0, "WEEK 20", 140, "TREATMENT", "2014-07-02T15:03", 138], ["CDISCPILOT01", "LB", "01-701-1130", 275, "HGB", "Hemoglobin", "HEMATOLOGY", "12.2", "g/dL", "12.5", "17", "7.57132", 7, "mmol/L", 7, 10, "LOW", "", 12.0, "WEEK 24", 168, "TREATMENT", "2014-08-02T13:50", 169], ["CDISCPILOT01", "LB", "01-701-1130", 309, "HGB", "Hemoglobin", "HEMATOLOGY", "12.2", "g/dL", "12.5", "17", "7.57132", 7, "mmol/L", 7, 10, "LOW", "", 13.0, "WEEK 26", 182, "TREATMENT", "2014-08-16T13:10", 183], ["CDISCPILOT01", "LB", "01-701-1130", 21, "LYM", "Lymphocytes", "HEMATOLOGY", "2.19", "10^9/L", "0.8", "3", "2.19", 2, "10^9/L", 0, 3, "NORMAL", "Y", 1.0, "SCREENING 1", -7, "SCREENING", "2014-02-09T12:01", -6], ["CDISCPILOT01", "LB", "01-701-1130", 58, "LYM", "Lymphocytes", "HEMATOLOGY", "2.12", "10^9/L", "0.8", "3", "2.12", 2, "10^9/L", 0, 3, "NORMAL", "", 4.0, "WEEK 2", 14, "TREATMENT", "2014-03-01T08:30", 15], ["CDISCPILOT01", "LB", "01-701-1130", 91, "LYM", "Lymphocytes", "HEMATOLOGY", "1.63", "10^9/L", "0.8", "3", "1.63", 1, "10^9/L", 0, 3, "NORMAL", "", 5.0, "WEEK 4", 28, "TREATMENT", "2014-03-15T13:07", 29], ["CDISCPILOT01", "LB", "01-701-1130", 121, "LYM", "Lymphocytes", "HEMATOLOGY", "2.07", "10^9/L", "0.8", "3", "2.07", 2, "10^9/L", 0, 3, "NORMAL", "", 7.0, "WEEK 6", 42, "TREATMENT", "2014-03-29T09:40", 43], ["CDISCPILOT01", "LB", "01-701-1130", 151, "LYM", "Lymphocytes", "HEMATOLOGY", "2.18", "10^9/L", "0.8", "3", "2.18", 2, "10^9/L", 0, 3, "NORMAL", "", 8.0, "WEEK 8", 56, "TREATMENT", "2014-04-12T12:35", 57], ["CDISCPILOT01", "LB", "01-701-1130", 183, "LYM", "Lymphocytes", "HEMATOLOGY", "2.34", "10^9/L", "0.8", "3", "2.34", 2, "10^9/L", 0, 3, "NORMAL", "", 9.0, "WEEK 12", 84, "TREATMENT", "2014-05-16T11:37", 91], ["CDISCPILOT01", "LB", "01-701-1130", 216, "LYM", "Lymphocytes", "HEMATOLOGY", "2.15", "10^9/L", "0.8", "3", "2.15", 2, "10^9/L", 0, 3, "NORMAL", "", 10.0, "WEEK 16", 112, "TREATMENT", "2014-06-07T13:20", 113], ["CDISCPILOT01", "LB", "01-701-1130", 246, "LYM", "Lymphocytes", "HEMATOLOGY", "2.29", "10^9/L", "0.8", "3", "2.29", 2, "10^9/L", 0, 3, "NORMAL", "", 11.0, "WEEK 20", 140, "TREATMENT", "2014-07-02T15:03", 138], ["CDISCPILOT01", "LB", "01-701-1130", 278, "LYM", "Lymphocytes", "HEMATOLOGY", "2.13", "10^9/L", "0.8", "3", "2.13", 2, "10^9/L", 0, 3, "NORMAL", "", 12.0, "WEEK 24", 168, "TREATMENT", "2014-08-02T13:50", 169], ["CDISCPILOT01", "LB", "01-701-1130", 311, "LYM", "Lymphocytes", "HEMATOLOGY", "2.55", "10^9/L", "0.8", "3", "2.55", 2, "10^9/L", 0, 3, "NORMAL", "", 13.0, "WEEK 26", 182, "TREATMENT", "2014-08-16T13:10", 183], ["CDISCPILOT01", "LB", "01-701-1130", 22, "MCH", "Ery. Mean Corpuscular Hemoglobin", "HEMATOLOGY", "32", "pg", "26", "34", "1.98592", 1, "fmol", 1, 2, "NORMAL", "Y", 1.0, "SCREENING 1", -7, "SCREENING", "2014-02-09T12:01", -6], ["CDISCPILOT01", "LB", "01-701-1130", 59, "MCH", "Ery. Mean Corpuscular Hemoglobin", "HEMATOLOGY", "32", "pg", "26", "34", "1.98592", 1, "fmol", 1, 2, "NORMAL", "", 4.0, "WEEK 2", 14, "TREATMENT", "2014-03-01T08:30", 15], ["CDISCPILOT01", "LB", "01-701-1130", 92, "MCH", "Ery. Mean Corpuscular Hemoglobin", "HEMATOLOGY", "33", "pg", "26", "34", "2.04798", 2, "fmol", 1, 2, "NORMAL", "", 5.0, "WEEK 4", 28, "TREATMENT", "2014-03-15T13:07", 29], ["CDISCPILOT01", "LB", "01-701-1130", 122, "MCH", "Ery. Mean Corpuscular Hemoglobin", "HEMATOLOGY", "32", "pg", "26", "34", "1.98592", 1, "fmol", 1, 2, "NORMAL", "", 7.0, "WEEK 6", 42, "TREATMENT", "2014-03-29T09:40", 43], ["CDISCPILOT01", "LB", "01-701-1130", 152, "MCH", "Ery. Mean Corpuscular Hemoglobin", "HEMATOLOGY", "32", "pg", "26", "34", "1.98592", 1, "fmol", 1, 2, "NORMAL", "", 8.0, "WEEK 8", 56, "TREATMENT", "2014-04-12T12:35", 57], ["CDISCPILOT01", "LB", "01-701-1130", 184, "MCH", "Ery. Mean Corpuscular Hemoglobin", "HEMATOLOGY", "33", "pg", "26", "34", "2.04798", 2, "fmol", 1, 2, "NORMAL", "", 9.0, "WEEK 12", 84, "TREATMENT", "2014-05-16T11:37", 91], ["CDISCPILOT01", "LB", "01-701-1130", 217, "MCH", "Ery. Mean Corpuscular Hemoglobin", "HEMATOLOGY", "33", "pg", "26", "34", "2.04798", 2, "fmol", 1, 2, "NORMAL", "", 10.0, "WEEK 16", 112, "TREATMENT", "2014-06-07T13:20", 113], ["CDISCPILOT01", "LB", "01-701-1130", 247, "MCH", "Ery. Mean Corpuscular Hemoglobin", "HEMATOLOGY", "32", "pg", "26", "34", "1.98592", 1, "fmol", 1, 2, "NORMAL", "", 11.0, "WEEK 20", 140, "TREATMENT", "2014-07-02T15:03", 138], ["CDISCPILOT01", "LB", "01-701-1130", 279, "MCH", "Ery. Mean Corpuscular Hemoglobin", "HEMATOLOGY", "33", "pg", "26", "34", "2.04798", 2, "fmol", 1, 2, "NORMAL", "", 12.0, "WEEK 24", 168, "TREATMENT", "2014-08-02T13:50", 169], ["CDISCPILOT01", "LB", "01-701-1130", 312, "MCH", "Ery. Mean Corpuscular Hemoglobin", "HEMATOLOGY", "34", "pg", "26", "34", "2.11004", 2, "fmol", 1, 2, "NORMAL", "", 13.0, "WEEK 26", 182, "TREATMENT", "2014-08-16T13:10", 183], ["CDISCPILOT01", "LB", "01-701-1130", 23, "MCHC", "Ery. Mean Corpuscular HGB Concentration", "HEMATOLOGY", "34", "g/dL", "31", "38", "21.1004", 21, "mmol/L", 19, 24, "NORMAL", "Y", 1.0, "SCREENING 1", -7, "SCREENING", "2014-02-09T12:01", -6], ["CDISCPILOT01", "LB", "01-701-1130", 60, "MCHC", "Ery. Mean Corpuscular HGB Concentration", "HEMATOLOGY", "34", "g/dL", "31", "38", "21.1004", 21, "mmol/L", 19, 24, "NORMAL", "", 4.0, "WEEK 2", 14, "TREATMENT", "2014-03-01T08:30", 15], ["CDISCPILOT01", "LB", "01-701-1130", 93, "MCHC", "Ery. Mean Corpuscular HGB Concentration", "HEMATOLOGY", "34", "g/dL", "31", "38", "21.1004", 21, "mmol/L", 19, 24, "NORMAL", "", 5.0, "WEEK 4", 28, "TREATMENT", "2014-03-15T13:07", 29], ["CDISCPILOT01", "LB", "01-701-1130", 123, "MCHC", "Ery. Mean Corpuscular HGB Concentration", "HEMATOLOGY", "34", "g/dL", "31", "38", "21.1004", 21, "mmol/L", 19, 24, "NORMAL", "", 7.0, "WEEK 6", 42, "TREATMENT", "2014-03-29T09:40", 43], ["CDISCPILOT01", "LB", "01-701-1130", 153, "MCHC", "Ery. Mean Corpuscular HGB Concentration", "HEMATOLOGY", "34", "g/dL", "31", "38", "21.1004", 21, "mmol/L", 19, 24, "NORMAL", "", 8.0, "WEEK 8", 56, "TREATMENT", "2014-04-12T12:35", 57], ["CDISCPILOT01", "LB", "01-701-1130", 185, "MCHC", "Ery. Mean Corpuscular HGB Concentration", "HEMATOLOGY", "35", "g/dL", "31", "38", "21.721", 21, "mmol/L", 19, 24, "NORMAL", "", 9.0, "WEEK 12", 84, "TREATMENT", "2014-05-16T11:37", 91], ["CDISCPILOT01", "LB", "01-701-1130", 218, "MCHC", "Ery. Mean Corpuscular HGB Concentration", "HEMATOLOGY", "31", "g/dL", "31", "38", "19.2386", 19, "mmol/L", 19, 24, "NORMAL", "", 10.0, "WEEK 16", 112, "TREATMENT", "2014-06-07T13:20", 113], ["CDISCPILOT01", "LB", "01-701-1130", 248, "MCHC", "Ery. Mean Corpuscular HGB Concentration", "HEMATOLOGY", "33", "g/dL", "31", "38", "20.4798", 20, "mmol/L", 19, 24, "NORMAL", "", 11.0, "WEEK 20", 140, "TREATMENT", "2014-07-02T15:03", 138], ["CDISCPILOT01", "LB", "01-701-1130", 280, "MCHC", "Ery. Mean Corpuscular HGB Concentration", "HEMATOLOGY", "33", "g/dL", "31", "38", "20.4798", 20, "mmol/L", 19, 24, "NORMAL", "", 12.0, "WEEK 24", 168, "TREATMENT", "2014-08-02T13:50", 169], ["CDISCPILOT01", "LB", "01-701-1130", 313, "MCHC", "Ery. Mean Corpuscular HGB Concentration", "HEMATOLOGY", "36", "g/dL", "31", "38", "22.3416", 22, "mmol/L", 19, 24, "NORMAL", "", 13.0, "WEEK 26", 182, "TREATMENT", "2014-08-16T13:10", 183], ["CDISCPILOT01", "LB", "01-701-1130", 24, "MCV", "Ery. Mean Corpuscular Volume", "HEMATOLOGY", "95", "fL", "80", "100", "95", 95, "fL", 80, 100, "NORMAL", "Y", 1.0, "SCREENING 1", -7, "SCREENING", "2014-02-09T12:01", -6], ["CDISCPILOT01", "LB", "01-701-1130", 61, "MCV", "Ery. Mean Corpuscular Volume", "HEMATOLOGY", "94", "fL", "80", "100", "94", 94, "fL", 80, 100, "NORMAL", "", 4.0, "WEEK 2", 14, "TREATMENT", "2014-03-01T08:30", 15], ["CDISCPILOT01", "LB", "01-701-1130", 94, "MCV", "Ery. Mean Corpuscular Volume", "HEMATOLOGY", "97", "fL", "80", "100", "97", 97, "fL", 80, 100, "NORMAL", "", 5.0, "WEEK 4", 28, "TREATMENT", "2014-03-15T13:07", 29], ["CDISCPILOT01", "LB", "01-701-1130", 124, "MCV", "Ery. Mean Corpuscular Volume", "HEMATOLOGY", "96", "fL", "80", "100", "96", 96, "fL", 80, 100, "NORMAL", "", 7.0, "WEEK 6", 42, "TREATMENT", "2014-03-29T09:40", 43], ["CDISCPILOT01", "LB", "01-701-1130", 154, "MCV", "Ery. Mean Corpuscular Volume", "HEMATOLOGY", "96", "fL", "80", "100", "96", 96, "fL", 80, 100, "NORMAL", "", 8.0, "WEEK 8", 56, "TREATMENT", "2014-04-12T12:35", 57], ["CDISCPILOT01", "LB", "01-701-1130", 186, "MCV", "Ery. Mean Corpuscular Volume", "HEMATOLOGY", "94", "fL", "80", "100", "94", 94, "fL", 80, 100, "NORMAL", "", 9.0, "WEEK 12", 84, "TREATMENT", "2014-05-16T11:37", 91], ["CDISCPILOT01", "LB", "01-701-1130", 219, "MCV", "Ery. Mean Corpuscular Volume", "HEMATOLOGY", "105", "fL", "80", "100", "105", 105, "fL", 80, 100, "HIGH", "", 10.0, "WEEK 16", 112, "TREATMENT", "2014-06-07T13:20", 113], ["CDISCPILOT01", "LB", "01-701-1130", 249, "MCV", "Ery. Mean Corpuscular Volume", "HEMATOLOGY", "96", "fL", "80", "100", "96", 96, "fL", 80, 100, "NORMAL", "", 11.0, "WEEK 20", 140, "TREATMENT", "2014-07-02T15:03", 138], ["CDISCPILOT01", "LB", "01-701-1130", 281, "MCV", "Ery. Mean Corpuscular Volume", "HEMATOLOGY", "99", "fL", "80", "100", "99", 99, "fL", 80, 100, "NORMAL", "", 12.0, "WEEK 24", 168, "TREATMENT", "2014-08-02T13:50", 169], ["CDISCPILOT01", "LB", "01-701-1130", 314, "MCV", "Ery. Mean Corpuscular Volume", "HEMATOLOGY", "94", "fL", "80", "100", "94", 94, "fL", 80, 100, "NORMAL", "", 13.0, "WEEK 26", 182, "TREATMENT", "2014-08-16T13:10", 183], ["CDISCPILOT01", "LB", "01-701-1130", 25, "MONO", "Monocytes", "HEMATOLOGY", "0.59", "10^9/L", "0.12", "0.92", "0.59", 0, "10^9/L", 0, 0, "NORMAL", "Y", 1.0, "SCREENING 1", -7, "SCREENING", "2014-02-09T12:01", -6], ["CDISCPILOT01", "LB", "01-701-1130", 62, "MONO", "Monocytes", "HEMATOLOGY", "0.98", "10^9/L", "0.12", "0.92", "0.98", 0, "10^9/L", 0, 0, "HIGH", "", 4.0, "WEEK 2", 14, "TREATMENT", "2014-03-01T08:30", 15], ["CDISCPILOT01", "LB", "01-701-1130", 95, "MONO", "Monocytes", "HEMATOLOGY", "0.61", "10^9/L", "0.12", "0.92", "0.61", 0, "10^9/L", 0, 0, "NORMAL", "", 5.0, "WEEK 4", 28, "TREATMENT", "2014-03-15T13:07", 29], ["CDISCPILOT01", "LB", "01-701-1130", 125, "MONO", "Monocytes", "HEMATOLOGY", "0.65", "10^9/L", "0.12", "0.92", "0.65", 0, "10^9/L", 0, 0, "NORMAL", "", 7.0, "WEEK 6", 42, "TREATMENT", "2014-03-29T09:40", 43], ["CDISCPILOT01", "LB", "01-701-1130", 155, "MONO", "Monocytes", "HEMATOLOGY", "0.58", "10^9/L", "0.12", "0.92", "0.58", 0, "10^9/L", 0, 0, "NORMAL", "", 8.0, "WEEK 8", 56, "TREATMENT", "2014-04-12T12:35", 57], ["CDISCPILOT01", "LB", "01-701-1130", 187, "MONO", "Monocytes", "HEMATOLOGY", "0.64", "10^9/L", "0.12", "0.92", "0.64", 0, "10^9/L", 0, 0, "NORMAL", "", 9.0, "WEEK 12", 84, "TREATMENT", "2014-05-16T11:37", 91], ["CDISCPILOT01", "LB", "01-701-1130", 220, "MONO", "Monocytes", "HEMATOLOGY", "0.55", "10^9/L", "0.12", "0.92", "0.55", 0, "10^9/L", 0, 0, "NORMAL", "", 10.0, "WEEK 16", 112, "TREATMENT", "2014-06-07T13:20", 113], ["CDISCPILOT01", "LB", "01-701-1130", 250, "MONO", "Monocytes", "HEMATOLOGY", "0.72", "10^9/L", "0.12", "0.92", "0.72", 0, "10^9/L", 0, 0, "NORMAL", "", 11.0, "WEEK 20", 140, "TREATMENT", "2014-07-02T15:03", 138], ["CDISCPILOT01", "LB", "01-701-1130", 282, "MONO", "Monocytes", "HEMATOLOGY", "0.57", "10^9/L", "0.12", "0.92", "0.57", 0, "10^9/L", 0, 0, "NORMAL", "", 12.0, "WEEK 24", 168, "TREATMENT", "2014-08-02T13:50", 169], ["CDISCPILOT01", "LB", "01-701-1130", 315, "MONO", "Monocytes", "HEMATOLOGY", "0.63", "10^9/L", "0.12", "0.92", "0.63", 0, "10^9/L", 0, 0, "NORMAL", "", 13.0, "WEEK 26", 182, "TREATMENT", "2014-08-16T13:10", 183], ["CDISCPILOT01", "LB", "01-701-1130", 29, "PLAT", "Platelets", "HEMATOLOGY", "196", "10^9/L", "130", "394", "196", 196, "10^9/L", 130, 394, "NORMAL", "Y", 1.0, "SCREENING 1", -7, "SCREENING", "2014-02-09T12:01", -6], ["CDISCPILOT01", "LB", "01-701-1130", 66, "PLAT", "Platelets", "HEMATOLOGY", "232", "10^9/L", "130", "394", "232", 232, "10^9/L", 130, 394, "NORMAL", "", 4.0, "WEEK 2", 14, "TREATMENT", "2014-03-01T08:30", 15], ["CDISCPILOT01", "LB", "01-701-1130", 98, "PLAT", "Platelets", "HEMATOLOGY", "210", "10^9/L", "130", "394", "210", 210, "10^9/L", 130, 394, "NORMAL", "", 5.0, "WEEK 4", 28, "TREATMENT", "2014-03-15T13:07", 29], ["CDISCPILOT01", "LB", "01-701-1130", 128, "PLAT", "Platelets", "HEMATOLOGY", "255", "10^9/L", "130", "394", "255", 255, "10^9/L", 130, 394, "NORMAL", "", 7.0, "WEEK 6", 42, "TREATMENT", "2014-03-29T09:40", 43], ["CDISCPILOT01", "LB", "01-701-1130", 158, "PLAT", "Platelets", "HEMATOLOGY", "185", "10^9/L", "130", "394", "185", 185, "10^9/L", 130, 394, "NORMAL", "", 8.0, "WEEK 8", 56, "TREATMENT", "2014-04-12T12:35", 57], ["CDISCPILOT01", "LB", "01-701-1130", 191, "PLAT", "Platelets", "HEMATOLOGY", "194", "10^9/L", "130", "394", "194", 194, "10^9/L", 130, 394, "NORMAL", "", 9.0, "WEEK 12", 84, "TREATMENT", "2014-05-16T11:37", 91], ["CDISCPILOT01", "LB", "01-701-1130", 223, "PLAT", "Platelets", "HEMATOLOGY", "184", "10^9/L", "130", "394", "184", 184, "10^9/L", 130, 394, "NORMAL", "", 10.0, "WEEK 16", 112, "TREATMENT", "2014-06-07T13:20", 113], ["CDISCPILOT01", "LB", "01-701-1130", 253, "PLAT", "Platelets", "HEMATOLOGY", "229", "10^9/L", "130", "394", "229", 229, "10^9/L", 130, 394, "NORMAL", "", 11.0, "WEEK 20", 140, "TREATMENT", "2014-07-02T15:03", 138], ["CDISCPILOT01", "LB", "01-701-1130", 286, "PLAT", "Platelets", "HEMATOLOGY", "211", "10^9/L", "130", "394", "211", 211, "10^9/L", 130, 394, "NORMAL", "", 12.0, "WEEK 24", 168, "TREATMENT", "2014-08-02T13:50", 169], ["CDISCPILOT01", "LB", "01-701-1130", 318, "PLAT", "Platelets", "HEMATOLOGY", "2