{"datasetJSONCreationDateTime": "2025-10-13T16:28:55", "datasetJSONVersion": "1.1.0", "fileOID": "UpdatedCDISCPILOT.CDISC SDTM.3.2.QSCO", "studyOID": "UpdatedCDISCPILOT.CDISC SDTM.3.2", "metaDataVersionOID": "MDV.UpdatedCDISCPILOT.CDISC SDTM.3.2", "itemGroupOID": "{QSCO", "records": 12241, "name": "QSCO", "label": "Questionnaires", "columns": [{"itemOID": "IT.QSCO.STUDYID", "name": "STUDYID", "label": "Study Identifier", "dataType": "string", "length": 12, "keySequence": 1}, {"itemOID": "IT.QSCO.DOMAIN", "name": "DOMAIN", "label": "Domain Abbreviation", "dataType": "string", "length": 2}, {"itemOID": "IT.QSCO.USUBJID", "name": "USUBJID", "label": "Unique Subject Identifier", "dataType": "string", "length": 11, "keySequence": 2}, {"itemOID": "IT.QSCO.QSSEQ", "name": "QSSEQ", "label": "Sequence Number", "dataType": "integer", "length": 8}, {"itemOID": "IT.QSCO.QSTESTCD", "name": "QSTESTCD", "label": "Question Short Name", "dataType": "string", "length": 8, "keySequence": 3}, {"itemOID": "IT.QSCO.QSTEST", "name": "QSTEST", "label": "Question Name", "dataType": "string", "length": 40}, {"itemOID": "IT.QSCO.QSCAT", "name": "QSCAT", "label": "Category of Question", "dataType": "string", "length": 70}, {"itemOID": "IT.QSCO.QSSCAT", "name": "QSSCAT", "label": "Subcategory for Question", "dataType": "string", "length": 26}, {"itemOID": "IT.QSCO.QSORRES", "name": "QSORRES", "label": "Finding in Original Units", "dataType": "string", "length": 20}, {"itemOID": "IT.QSCO.QSORRESU", "name": "QSORRESU", "label": "Original Units", "dataType": "string", "length": 7}, {"itemOID": "IT.QSCO.QSSTRESC", "name": "QSSTRESC", "label": "Character Result/Finding in Std Format", "dataType": "string", "length": 4}, {"itemOID": "IT.QSCO.QSSTRESN", "name": "QSSTRESN", "label": "Numeric Finding in Standard Units", "dataType": "integer", "length": 8}, {"itemOID": "IT.QSCO.QSSTRESU", "name": "QSSTRESU", "label": "Standard Units", "dataType": "string", "length": 7}, {"itemOID": "IT.QSCO.QSSTAT", "name": "QSSTAT", "label": "Completion Status", "dataType": "string", "length": 8}, {"itemOID": "IT.QSCO.QSREASND", "name": "QSREASND", "label": "Reason Not Performed", "dataType": "string", "length": 17}, {"itemOID": "IT.QSCO.QSBLFL", "name": "QSBLFL", "label": "Baseline Flag", "dataType": "string", "length": 1}, {"itemOID": "IT.QSCO.QSDRVFL", "name": "QSDRVFL", "label": "Derived Flag", "dataType": "string", "length": 1}, {"itemOID": "IT.QSCO.VISITNUM", "name": "VISITNUM", "label": "Visit Number", "dataType": "double", "length": 8, "keySequence": 4}, {"itemOID": "IT.QSCO.VISIT", "name": "VISIT", "label": "Visit Name", "dataType": "string", "length": 19}, {"itemOID": "IT.QSCO.VISITDY", "name": "VISITDY", "label": "Planned Study Day of Visit", "dataType": "integer", "length": 8}, {"itemOID": "IT.QSCO.EPOCH", "name": "EPOCH", "label": "Epoch", "dataType": "string", "length": 9}, {"itemOID": "IT.QSCO.QSDTC", "name": "QSDTC", "label": "Date/Time of Finding", "dataType": "string", "length": 10}, {"itemOID": "IT.QSCO.QSDY", "name": "QSDY", "label": "Study Day of Finding", "dataType": "integer", "length": 8}], "rows": [["CDISCPILOT01", "QS", "01-701-1015", 5001, "ACITM01", "WORD RECALL TASK", "ADAS-COG", "", "3", "", "3", 3, "", "", "", "Y", "", 3.0, "BASELINE", 1, "TREATMENT", "2014-01-02", 1], ["CDISCPILOT01", "QS", "01-701-1015", 5016, "ACITM01", "WORD RECALL TASK", "ADAS-COG", "", "2", "", "2", 2, "", "", "", "", "", 8.0, "WEEK 8", 56, "TREATMENT", "2014-03-05", 63], ["CDISCPILOT01", "QS", "01-701-1015", 5031, "ACITM01", "WORD RECALL TASK", "ADAS-COG", "", "4", "", "4", 4, "", "", "", "", "", 10.0, "WEEK 16", 112, "TREATMENT", "2014-05-07", 126], ["CDISCPILOT01", "QS", "01-701-1015", 5046, "ACITM01", "WORD RECALL TASK", "ADAS-COG", "", "3", "", "3", 3, "", "", "", "", "", 12.0, "WEEK 24", 168, "TREATMENT", "2014-06-18", 168], ["CDISCPILOT01", "QS", "01-701-1015", 5002, "ACITM02", "NAMING OBJECTS AND FINGERS (REFER TO 5 C", "ADAS-COG", "", "1", "", "1", 1, "", "", "", "Y", "", 3.0, "BASELINE", 1, "TREATMENT", "2014-01-02", 1], ["CDISCPILOT01", "QS", "01-701-1015", 5017, "ACITM02", "NAMING OBJECTS AND FINGERS (REFER TO 5 C", "ADAS-COG", "", "0", "", "0", 0, "", "", "", "", "", 8.0, "WEEK 8", 56, "TREATMENT", "2014-03-05", 63], ["CDISCPILOT01", "QS", "01-701-1015", 5032, "ACITM02", "NAMING OBJECTS AND FINGERS (REFER TO 5 C", "ADAS-COG", "", "0", "", "0", 0, "", "", "", "", "", 10.0, "WEEK 16", 112, "TREATMENT", "2014-05-07", 126], ["CDISCPILOT01", "QS", "01-701-1015", 5047, "ACITM02", "NAMING OBJECTS AND FINGERS (REFER TO 5 C", "ADAS-COG", "", "0", "", "0", 0, "", "", "", "", "", 12.0, "WEEK 24", 168, "TREATMENT", "2014-06-18", 168], ["CDISCPILOT01", "QS", "01-701-1015", 5003, "ACITM03", "DELAYED WORD RECALL", "ADAS-COG", "", "3", "", "3", 3, "", "", "", "Y", "", 3.0, "BASELINE", 1, "TREATMENT", "2014-01-02", 1], ["CDISCPILOT01", "QS", "01-701-1015", 5018, "ACITM03", "DELAYED WORD RECALL", "ADAS-COG", "", "3", "", "3", 3, "", "", "", "", "", 8.0, "WEEK 8", 56, "TREATMENT", "2014-03-05", 63], ["CDISCPILOT01", "QS", "01-701-1015", 5033, "ACITM03", "DELAYED WORD RECALL", "ADAS-COG", "", "1", "", "1", 1, "", "", "", "", "", 10.0, "WEEK 16", 112, "TREATMENT", "2014-05-07", 126], ["CDISCPILOT01", "QS", "01-701-1015", 5048, "ACITM03", "DELAYED WORD RECALL", "ADAS-COG", "", "2", "", "2", 2, "", "", "", "", "", 12.0, "WEEK 24", 168, "TREATMENT", "2014-06-18", 168], ["CDISCPILOT01", "QS", "01-701-1015", 5004, "ACITM04", "COMMANDS", "ADAS-COG", "", "0", "", "0", 0, "", "", "", "Y", "", 3.0, "BASELINE", 1, "TREATMENT", "2014-01-02", 1], ["CDISCPILOT01", "QS", "01-701-1015", 5019, "ACITM04", "COMMANDS", "ADAS-COG", "", "0", "", "0", 0, "", "", "", "", "", 8.0, "WEEK 8", 56, "TREATMENT", "2014-03-05", 63], ["CDISCPILOT01", "QS", "01-701-1015", 5034, "ACITM04", "COMMANDS", "ADAS-COG", "", "0", "", "0", 0, "", "", "", "", "", 10.0, "WEEK 16", 112, "TREATMENT", "2014-05-07", 126], ["CDISCPILOT01", "QS", "01-701-1015", 5049, "ACITM04", "COMMANDS", "ADAS-COG", "", "0", "", "0", 0, "", "", "", "", "", 12.0, "WEEK 24", 168, "TREATMENT", "2014-06-18", 168], ["CDISCPILOT01", "QS", "01-701-1015", 5005, "ACITM05", "CONSTRUCTIONAL PRAXIS", "ADAS-COG", "", "3", "", "3", 3, "", "", "", "Y", "", 3.0, "BASELINE", 1, "TREATMENT", "2014-01-02", 1], ["CDISCPILOT01", "QS", "01-701-1015", 5020, "ACITM05", "CONSTRUCTIONAL PRAXIS", "ADAS-COG", "", "2", "", "2", 2, "", "", "", "", "", 8.0, "WEEK 8", 56, "TREATMENT", "2014-03-05", 63], ["CDISCPILOT01", "QS", "01-701-1015", 5035, "ACITM05", "CONSTRUCTIONAL PRAXIS", "ADAS-COG", "", "2", "", "2", 2, "", "", "", "", "", 10.0, "WEEK 16", 112, "TREATMENT", "2014-05-07", 126], ["CDISCPILOT01", "QS", "01-701-1015", 5050, "ACITM05", "CONSTRUCTIONAL PRAXIS", "ADAS-COG", "", "3", "", "3", 3, "", "", "", "", "", 12.0, "WEEK 24", 168, "TREATMENT", "2014-06-18", 168], ["CDISCPILOT01", "QS", "01-701-1015", 5006, "ACITM06", "IDEATIONAL PRAXIS", "ADAS-COG", "", "0", "", "0", 0, "", "", "", "Y", "", 3.0, "BASELINE", 1, "TREATMENT", "2014-01-02", 1], ["CDISCPILOT01", "QS", "01-701-1015", 5021, "ACITM06", "IDEATIONAL PRAXIS", "ADAS-COG", "", "0", "", "0", 0, "", "", "", "", "", 8.0, "WEEK 8", 56, "TREATMENT", "2014-03-05", 63], ["CDISCPILOT01", "QS", "01-701-1015", 5036, "ACITM06", "IDEATIONAL PRAXIS", "ADAS-COG", "", "0", "", "0", 0, "", "", "", "", "", 10.0, "WEEK 16", 112, "TREATMENT", "2014-05-07", 126], ["CDISCPILOT01", "QS", "01-701-1015", 5051, "ACITM06", "IDEATIONAL PRAXIS", "ADAS-COG", "", "0", "", "0", 0, "", "", "", "", "", 12.0, "WEEK 24", 168, "TREATMENT", "2014-06-18", 168], ["CDISCPILOT01", "QS", "01-701-1015", 5007, "ACITM07", "ORIENTATION", "ADAS-COG", "", "1", "", "1", 1, "", "", "", "Y", "", 3.0, "BASELINE", 1, "TREATMENT", "2014-01-02", 1], ["CDISCPILOT01", "QS", "01-701-1015", 5022, "ACITM07", "ORIENTATION", "ADAS-COG", "", "0", "", "0", 0, "", "", "", "", "", 8.0, "WEEK 8", 56, "TREATMENT", "2014-03-05", 63], ["CDISCPILOT01", "QS", "01-701-1015", 5037, "ACITM07", "ORIENTATION", "ADAS-COG", "", "0", "", "0", 0, "", "", "", "", "", 10.0, "WEEK 16", 112, "TREATMENT", "2014-05-07", 126], ["CDISCPILOT01", "QS", "01-701-1015", 5052, "ACITM07", "ORIENTATION", "ADAS-COG", "", "1", "", "1", 1, "", "", "", "", "", 12.0, "WEEK 24", 168, "TREATMENT", "2014-06-18", 168], ["CDISCPILOT01", "QS", "01-701-1015", 5008, "ACITM08", "WORD RECOGNITION", "ADAS-COG", "", "1", "", "1", 1, "", "", "", "Y", "", 3.0, "BASELINE", 1, "TREATMENT", "2014-01-02", 1], ["CDISCPILOT01", "QS", "01-701-1015", 5023, "ACITM08", "WORD RECOGNITION", "ADAS-COG", "", "0", "", "0", 0, "", "", "", "", "", 8.0, "WEEK 8", 56, "TREATMENT", "2014-03-05", 63], ["CDISCPILOT01", "QS", "01-701-1015", 5038, "ACITM08", "WORD RECOGNITION", "ADAS-COG", "", "1", "", "1", 1, "", "", "", "", "", 10.0, "WEEK 16", 112, "TREATMENT", "2014-05-07", 126], ["CDISCPILOT01", "QS", "01-701-1015", 5053, "ACITM08", "WORD RECOGNITION", "ADAS-COG", "", "1", "", "1", 1, "", "", "", "", "", 12.0, "WEEK 24", 168, "TREATMENT", "2014-06-18", 168], ["CDISCPILOT01", "QS", "01-701-1015", 5009, "ACITM09", "ATTENTION/VISUAL SEARCH TASK", "ADAS-COG", "", "23", "", "23", 23, "", "", "", "Y", "", 3.0, "BASELINE", 1, "TREATMENT", "2014-01-02", 1], ["CDISCPILOT01", "QS", "01-701-1015", 5024, "ACITM09", "ATTENTION/VISUAL SEARCH TASK", "ADAS-COG", "", "27", "", "27", 27, "", "", "", "", "", 8.0, "WEEK 8", 56, "TREATMENT", "2014-03-05", 63], ["CDISCPILOT01", "QS", "01-701-1015", 5039, "ACITM09", "ATTENTION/VISUAL SEARCH TASK", "ADAS-COG", "", "34", "", "34", 34, "", "", "", "", "", 10.0, "WEEK 16", 112, "TREATMENT", "2014-05-07", 126], ["CDISCPILOT01", "QS", "01-701-1015", 5054, "ACITM09", "ATTENTION/VISUAL SEARCH TASK", "ADAS-COG", "", "39", "", "39", 39, "", "", "", "", "", 12.0, "WEEK 24", 168, "TREATMENT", "2014-06-18", 168], ["CDISCPILOT01", "QS", "01-701-1015", 5010, "ACITM10", "MAZE SOLUTION", "ADAS-COG", "", "3", "sec", "3", 3, "sec", "", "", "Y", "", 3.0, "BASELINE", 1, "TREATMENT", "2014-01-02", 1], ["CDISCPILOT01", "QS", "01-701-1015", 5025, "ACITM10", "MAZE SOLUTION", "ADAS-COG", "", "4", "sec", "4", 4, "sec", "", "", "", "", 8.0, "WEEK 8", 56, "TREATMENT", "2014-03-05", 63], ["CDISCPILOT01", "QS", "01-701-1015", 5040, "ACITM10", "MAZE SOLUTION", "ADAS-COG", "", "4", "sec", "4", 4, "sec", "", "", "", "", 10.0, "WEEK 16", 112, "TREATMENT", "2014-05-07", 126], ["CDISCPILOT01", "QS", "01-701-1015", 5055, "ACITM10", "MAZE SOLUTION", "ADAS-COG", "", "3", "sec", "3", 3, "sec", "", "", "", "", 12.0, "WEEK 24", 168, "TREATMENT", "2014-06-18", 168], ["CDISCPILOT01", "QS", "01-701-1015", 5011, "ACITM11", "SPOKEN LANGUAGE ABILITY", "ADAS-COG", "", "1", "", "1", 1, "", "", "", "Y", "", 3.0, "BASELINE", 1, "TREATMENT", "2014-01-02", 1], ["CDISCPILOT01", "QS", "01-701-1015", 5026, "ACITM11", "SPOKEN LANGUAGE ABILITY", "ADAS-COG", "", "1", "", "1", 1, "", "", "", "", "", 8.0, "WEEK 8", 56, "TREATMENT", "2014-03-05", 63], ["CDISCPILOT01", "QS", "01-701-1015", 5041, "ACITM11", "SPOKEN LANGUAGE ABILITY", "ADAS-COG", "", "1", "", "1", 1, "", "", "", "", "", 10.0, "WEEK 16", 112, "TREATMENT", "2014-05-07", 126], ["CDISCPILOT01", "QS", "01-701-1015", 5056, "ACITM11", "SPOKEN LANGUAGE ABILITY", "ADAS-COG", "", "0", "", "0", 0, "", "", "", "", "", 12.0, "WEEK 24", 168, "TREATMENT", "2014-06-18", 168], ["CDISCPILOT01", "QS", "01-701-1015", 5012, "ACITM12", "COMPREHENSION OF SPOKEN LANGUAGE", "ADAS-COG", "", "1", "", "1", 1, "", "", "", "Y", "", 3.0, "BASELINE", 1, "TREATMENT", "2014-01-02", 1], ["CDISCPILOT01", "QS", "01-701-1015", 5027, "ACITM12", "COMPREHENSION OF SPOKEN LANGUAGE", "ADAS-COG", "", "1", "", "1", 1, "", "", "", "", "", 8.0, "WEEK 8", 56, "TREATMENT", "2014-03-05", 63], ["CDISCPILOT01", "QS", "01-701-1015", 5042, "ACITM12", "COMPREHENSION OF SPOKEN LANGUAGE", "ADAS-COG", "", "1", "", "1", 1, "", "", "", "", "", 10.0, "WEEK 16", 112, "TREATMENT", "2014-05-07", 126], ["CDISCPILOT01", "QS", "01-701-1015", 5057, "ACITM12", "COMPREHENSION OF SPOKEN LANGUAGE", "ADAS-COG", "", "0", "", "0", 0, "", "", "", "", "", 12.0, "WEEK 24", 168, "TREATMENT", "2014-06-18", 168], ["CDISCPILOT01", "QS", "01-701-1015", 5013, "ACITM13", "WORD FINDING DIFFICULTY IN SPONTANEOUS S", "ADAS-COG", "", "1", "", "1", 1, "", "", "", "Y", "", 3.0, "BASELINE", 1, "TREATMENT", "2014-01-02", 1], ["CDISCPILOT01", "QS", "01-701-1015", 5028, "ACITM13", "WORD FINDING DIFFICULTY IN SPONTANEOUS S", "ADAS-COG", "", "1", "", "1", 1, "", "", "", "", "", 8.0, "WEEK 8", 56, "TREATMENT", "2014-03-05", 63], ["CDISCPILOT01", "QS", "01-701-1015", 5043, "ACITM13", "WORD FINDING DIFFICULTY IN SPONTANEOUS S", "ADAS-COG", "", "1", "", "1", 1, "", "", "", "", "", 10.0, "WEEK 16", 112, "TREATMENT", "2014-05-07", 126], ["CDISCPILOT01", "QS", "01-701-1015", 5058, "ACITM13", "WORD FINDING DIFFICULTY IN SPONTANEOUS S", "ADAS-COG", "", "0", "", "0", 0, "", "", "", "", "", 12.0, "WEEK 24", 168, "TREATMENT", "2014-06-18", 168], ["CDISCPILOT01", "QS", "01-701-1015", 5014, "ACITM14", "RECALL OF TEST INSTRUCTIONS", "ADAS-COG", "", "1", "", "1", 1, "", "", "", "Y", "", 3.0, "BASELINE", 1, "TREATMENT", "2014-01-02", 1], ["CDISCPILOT01", "QS", "01-701-1015", 5029, "ACITM14", "RECALL OF TEST INSTRUCTIONS", "ADAS-COG", "", "1", "", "1", 1, "", "", "", "", "", 8.0, "WEEK 8", 56, "TREATMENT", "2014-03-05", 63], ["CDISCPILOT01", "QS", "01-701-1015", 5044, "ACITM14", "RECALL OF TEST INSTRUCTIONS", "ADAS-COG", "", "1", "", "1", 1, "", "", "", "", "", 10.0, "WEEK 16", 112, "TREATMENT", "2014-05-07", 126], ["CDISCPILOT01", "QS", "01-701-1015", 5059, "ACITM14", "RECALL OF TEST INSTRUCTIONS", "ADAS-COG", "", "0", "", "0", 0, "", "", "", "", "", 12.0, "WEEK 24", 168, "TREATMENT", "2014-06-18", 168], ["CDISCPILOT01", "QS", "01-701-1015", 5015, "ACTOT", "ADAS-COG(11) Subscore", "ADAS-COG", "", "", "", "13", 13, "", "", "", "Y", "Y", 3.0, "BASELINE", 1, "TREATMENT", "2014-01-02", 1], ["CDISCPILOT01", "QS", "01-701-1015", 5030, "ACTOT", "ADAS-COG(11) Subscore", "ADAS-COG", "", "", "", "8", 8, "", "", "", "", "Y", 8.0, "WEEK 8", 56, "TREATMENT", "2014-03-05", 63], ["CDISCPILOT01", "QS", "01-701-1015", 5045, "ACTOT", "ADAS-COG(11) Subscore", "ADAS-COG", "", "", "", "11", 11, "", "", "", "", "Y", 10.0, "WEEK 16", 112, "TREATMENT", "2014-05-07", 126], ["CDISCPILOT01", "QS", "01-701-1015", 5060, "ACTOT", "ADAS-COG(11) Subscore", "ADAS-COG", "", "", "", "8", 8, "", "", "", "", "Y", 12.0, "WEEK 24", 168, "TREATMENT", "2014-06-18", 168], ["CDISCPILOT01", "QS", "01-701-1023", 5001, "ACITM01", "WORD RECALL TASK", "ADAS-COG", "", "4", "", "4", 4, "", "", "", "Y", "", 3.0, "BASELINE", 1, "TREATMENT", "2012-08-05", 1], ["CDISCPILOT01", "QS", "01-701-1023", 5016, "ACITM01", "WORD RECALL TASK", "ADAS-COG", "", "2", "", "2", 2, "", "", "", "", "", 5.0, "WEEK 4", 28, "TREATMENT", "2012-09-02", 29], ["CDISCPILOT01", "QS", "01-701-1023", 5031, "ACITM01", "WORD RECALL TASK", "ADAS-COG", "", "3", "", "3", 3, "", "", "", "", "", 201.0, "RETRIEVAL", 168, "TREATMENT", "2013-02-18", 198], ["CDISCPILOT01", "QS", "01-701-1023", 5002, "ACITM02", "NAMING OBJECTS AND FINGERS (REFER TO 5 C", "ADAS-COG", "", "2", "", "2", 2, "", "", "", "Y", "", 3.0, "BASELINE", 1, "TREATMENT", "2012-08-05", 1], ["CDISCPILOT01", "QS", "01-701-1023", 5017, "ACITM02", "NAMING OBJECTS AND FINGERS (REFER TO 5 C", "ADAS-COG", "", "2", "", "2", 2, "", "", "", "", "", 5.0, "WEEK 4", 28, "TREATMENT", "2012-09-02", 29], ["CDISCPILOT01", "QS", "01-701-1023", 5032, "ACITM02", "NAMING OBJECTS AND FINGERS (REFER TO 5 C", "ADAS-COG", "", "0", "", "0", 0, "", "", "", "", "", 201.0, "RETRIEVAL", 168, "TREATMENT", "2013-02-18", 198], ["CDISCPILOT01", "QS", "01-701-1023", 5003, "ACITM03", "DELAYED WORD RECALL", "ADAS-COG", "", "2", "", "2", 2, "", "", "", "Y", "", 3.0, "BASELINE", 1, "TREATMENT", "2012-08-05", 1], ["CDISCPILOT01", "QS", "01-701-1023", 5018, "ACITM03", "DELAYED WORD RECALL", "ADAS-COG", "", "2", "", "2", 2, "", "", "", "", "", 5.0, "WEEK 4", 28, "TREATMENT", "2012-09-02", 29], ["CDISCPILOT01", "QS", "01-701-1023", 5033, "ACITM03", "DELAYED WORD RECALL", "ADAS-COG", "", "3", "", "3", 3, "", "", "", "", "", 201.0, "RETRIEVAL", 168, "TREATMENT", "2013-02-18", 198], ["CDISCPILOT01", "QS", "01-701-1023", 5004, "ACITM04", "COMMANDS", "ADAS-COG", "", "0", "", "0", 0, "", "", "", "Y", "", 3.0, "BASELINE", 1, "TREATMENT", "2012-08-05", 1], ["CDISCPILOT01", "QS", "01-701-1023", 5019, "ACITM04", "COMMANDS", "ADAS-COG", "", "0", "", "0", 0, "", "", "", "", "", 5.0, "WEEK 4", 28, "TREATMENT", "2012-09-02", 29], ["CDISCPILOT01", "QS", "01-701-1023", 5034, "ACITM04", "COMMANDS", "ADAS-COG", "", "0", "", "0", 0, "", "", "", "", "", 201.0, "RETRIEVAL", 168, "TREATMENT", "2013-02-18", 198], ["CDISCPILOT01", "QS", "01-701-1023", 5005, "ACITM05", "CONSTRUCTIONAL PRAXIS", "ADAS-COG", "", "3", "", "3", 3, "", "", "", "Y", "", 3.0, "BASELINE", 1, "TREATMENT", "2012-08-05", 1], ["CDISCPILOT01", "QS", "01-701-1023", 5020, "ACITM05", "CONSTRUCTIONAL PRAXIS", "ADAS-COG", "", "2", "", "2", 2, "", "", "", "", "", 5.0, "WEEK 4", 28, "TREATMENT", "2012-09-02", 29], ["CDISCPILOT01", "QS", "01-701-1023", 5035, "ACITM05", "CONSTRUCTIONAL PRAXIS", "ADAS-COG", "", "4", "", "4", 4, "", "", "", "", "", 201.0, "RETRIEVAL", 168, "TREATMENT", "2013-02-18", 198], ["CDISCPILOT01", "QS", "01-701-1023", 5006, "ACITM06", "IDEATIONAL PRAXIS", "ADAS-COG", "", "0", "", "0", 0, "", "", "", "Y", "", 3.0, "BASELINE", 1, "TREATMENT", "2012-08-05", 1], ["CDISCPILOT01", "QS", "01-701-1023", 5021, "ACITM06", "IDEATIONAL PRAXIS", "ADAS-COG", "", "0", "", "0", 0, "", "", "", "", "", 5.0, "WEEK 4", 28, "TREATMENT", "2012-09-02", 29], ["CDISCPILOT01", "QS", "01-701-1023", 5036, "ACITM06", "IDEATIONAL PRAXIS", "ADAS-COG", "", "0", "", "0", 0, "", "", "", "", "", 201.0, "RETRIEVAL", 168, "TREATMENT", "2013-02-18", 198], ["CDISCPILOT01", "QS", "01-701-1023", 5007, "ACITM07", "ORIENTATION", "ADAS-COG", "", "2", "", "2", 2, "", "", "", "Y", "", 3.0, "BASELINE", 1, "TREATMENT", "2012-08-05", 1], ["CDISCPILOT01", "QS", "01-701-1023", 5022, "ACITM07", "ORIENTATION", "ADAS-COG", "", "1", "", "1", 1, "", "", "", "", "", 5.0, "WEEK 4", 28, "TREATMENT", "2012-09-02", 29], ["CDISCPILOT01", "QS", "01-701-1023", 5037, "ACITM07", "ORIENTATION", "ADAS-COG", "", "0", "", "0", 0, "", "", "", "", "", 201.0, "RETRIEVAL", 168, "TREATMENT", "2013-02-18", 198], ["CDISCPILOT01", "QS", "01-701-1023", 5008, "ACITM08", "WORD RECOGNITION", "ADAS-COG", "", "2", "", "2", 2, "", "", "", "Y", "", 3.0, "BASELINE", 1, "TREATMENT", "2012-08-05", 1], ["CDISCPILOT01", "QS", "01-701-1023", 5023, "ACITM08", "WORD RECOGNITION", "ADAS-COG", "", "1", "", "1", 1, "", "", "", "", "", 5.0, "WEEK 4", 28, "TREATMENT", "2012-09-02", 29], ["CDISCPILOT01", "QS", "01-701-1023", 5038, "ACITM08", "WORD RECOGNITION", "ADAS-COG", "", "1", "", "1", 1, "", "", "", "", "", 201.0, "RETRIEVAL", 168, "TREATMENT", "2013-02-18", 198], ["CDISCPILOT01", "QS", "01-701-1023", 5009, "ACITM09", "ATTENTION/VISUAL SEARCH TASK", "ADAS-COG", "", "39", "", "39", 39, "", "", "", "Y", "", 3.0, "BASELINE", 1, "TREATMENT", "2012-08-05", 1], ["CDISCPILOT01", "QS", "01-701-1023", 5024, "ACITM09", "ATTENTION/VISUAL SEARCH TASK", "ADAS-COG", "", "40", "", "40", 40, "", "", "", "", "", 5.0, "WEEK 4", 28, "TREATMENT", "2012-09-02", 29], ["CDISCPILOT01", "QS", "01-701-1023", 5039, "ACITM09", "ATTENTION/VISUAL SEARCH TASK", "ADAS-COG", "", "37", "", "37", 37, "", "", "", "", "", 201.0, "RETRIEVAL", 168, "TREATMENT", "2013-02-18", 198], ["CDISCPILOT01", "QS", "01-701-1023", 5010, "ACITM10", "MAZE SOLUTION", "ADAS-COG", "", "5", "sec", "5", 5, "sec", "", "", "Y", "", 3.0, "BASELINE", 1, "TREATMENT", "2012-08-05", 1], ["CDISCPILOT01", "QS", "01-701-1023", 5025, "ACITM10", "MAZE SOLUTION", "ADAS-COG", "", "5", "sec", "5", 5, "sec", "", "", "", "", 5.0, "WEEK 4", 28, "TREATMENT", "2012-09-02", 29], ["CDISCPILOT01", "QS", "01-701-1023", 5040, "ACITM10", "MAZE SOLUTION", "ADAS-COG", "", "3", "sec", "3", 3, "sec", "", "", "", "", 201.0, "RETRIEVAL", 168, "TREATMENT", "2013-02-18", 198], ["CDISCPILOT01", "QS", "01-701-1023", 5011, "ACITM11", "SPOKEN LANGUAGE ABILITY", "ADAS-COG", "", "0", "", "0", 0, "", "", "", "Y", "", 3.0, "BASELINE", 1, "TREATMENT", "2012-08-05", 1], ["CDISCPILOT01", "QS", "01-701-1023", 5026, "ACITM11", "SPOKEN LANGUAGE ABILITY", "ADAS-COG", "", "0", "", "0", 0, "", "", "", "", "", 5.0, "WEEK 4", 28, "TREATMENT", "2012-09-02", 29], ["CDISCPILOT01", "QS", "01-701-1023", 5041, "ACITM11", "SPOKEN LANGUAGE ABILITY", "ADAS-COG", "", "1", "", "1", 1, "", "", "", "", "", 201.0, "RETRIEVAL", 168, "TREATMENT", "2013-02-18", 198], ["CDISCPILOT01", "QS", "01-701-1023", 5012, "ACITM12", "COMPREHENSION OF SPOKEN LANGUAGE", "ADAS-COG", "", "0", "", "0", 0, "", "", "", "Y", "", 3.0, "BASELINE", 1, "TREATMENT", "2012-08-05", 1], ["CDISCPILOT01", "QS", "01-701-1023", 5027, "ACITM12", "COMPREHENSION OF SPOKEN LANGUAGE", "ADAS-COG", "", "0", "", "0", 0, "", "", "", "", "", 5.0, "WEEK 4", 28, "TREATMENT", "2012-09-02", 29], ["CDISCPILOT01", "QS", "01-701-1023", 5042, "ACITM12", "COMPREHENSION OF SPOKEN LANGUAGE", "ADAS-COG", "", "1", "", "1", 1, "", "", "", "", "", 201.0, "RETRIEVAL", 168, "TREATMENT", "2013-02-18", 198], ["CDISCPILOT01", "QS", "01-701-1023", 5013, "ACITM13", "WORD FINDING DIFFICULTY IN SPONTANEOUS S", "ADAS-COG", "", "0", "", "0", 0, "", "", "", "Y", "", 3.0, "BASELINE", 1, "TREATMENT", "2012-08-05", 1], ["CDISCPILOT01", "QS", "01-701-1023", 5028, "ACITM13", "WORD FINDING DIFFICULTY IN SPONTANEOUS S", "ADAS-COG", "", "0", "", "0", 0, "", "", "", "", "", 5.0, "WEEK 4", 28, "TREATMENT", "2012-09-02", 29], ["CDISCPILOT01", "QS", "01-701-1023", 5043, "ACITM13", "WORD FINDING DIFFICULTY IN SPONTANEOUS S", "ADAS-COG", "", "1", "", "1", 1, "", "", "", "", "", 201.0, "RETRIEVAL", 168, "TREATMENT", "2013-02-18", 198], ["CDISCPILOT01", "QS", "01-701-1023", 5014, "ACITM14", "RECALL OF TEST INSTRUCTIONS", "ADAS-COG", "", "0", "", "0", 0, "", "", "", "Y", "", 3.0, "BASELINE", 1, "TREATMENT", "2012-08-05", 1], ["CDISCPILOT01", "QS", "01-701-1023", 5029, "ACITM14", "RECALL OF TEST INSTRUCTIONS", "ADAS-COG", "", "0", "", "0", 0, "", "", "", "", "", 5.0, "WEEK 4", 28, "TREATMENT", "2012-09-02", 29], ["CDISCPILOT01", "QS", "01-701-1023", 5044, "ACITM14", "RECALL OF TEST INSTRUCTIONS", "ADAS-COG", "", "1", "", "1", 1, "", "", "", "", "", 201.0, "RETRIEVAL", 168, "TREATMENT", "2013-02-18", 198], ["CDISCPILOT01", "QS", "01-701-1023", 5015, "ACTOT", "ADAS-COG(11) Subscore", "ADAS-COG", "", "", "", "13", 13, "", "", "", "Y", "Y", 3.0, "BASELINE", 1, "TREATMENT", "2012-08-05", 1], ["CDISCPILOT01", "QS", "01-701-1023", 5030, "ACTOT", "ADAS-COG(11) Subscore", "ADAS-COG", "", "", "", "8", 8, "", "", "", "", "Y", 5.0, "WEEK 4", 28, "TREATMENT", "2012-09-02", 29], ["CDISCPILOT01", "QS", "01-701-1023", 5045, "ACTOT", "ADAS-COG(11) Subscore", "ADAS-COG", "", "", "", "12", 12, "", "", "", "", "Y", 201.0, "RETRIEVAL", 168, "TREATMENT", "2013-02-18", 198], ["CDISCPILOT01", "QS", "01-701-1028", 5001, "ACITM01", "WORD RECALL TASK", "ADAS-COG", "", "1", "", "1", 1, "", "", "", "Y", "", 3.0, "BASELINE", 1, "TREATMENT", "2013-07-19", 1], ["CDISCPILOT01", "QS", "01-701-1028", 5016, "ACITM01", "WORD RECALL TASK", "ADAS-COG", "", "1", "", "1", 1, "", "", "", "", "", 8.0, "WEEK 8", 56, "TREATMENT", "2013-09-10", 54], ["CDISCPILOT01", "QS", "01-701-1028", 5031, "ACITM01", "WORD RECALL TASK", "ADAS-COG", "", "3", "", "3", 3, "", "", "", "", "", 10.0, "WEEK 16", 112, "TREATMENT", "2013-11-06", 111], ["CDISCPILOT01", "QS", "01-701-1028", 5046, "ACITM01", "WORD RECALL TASK", "ADAS-COG", "", "2", "", "2", 2, "", "", "", "", "", 12.0, "WEEK 24", 168, "TREATMENT", "2014-01-06", 172], ["CDISCPILOT01", "QS", "01-701-1028", 5002, "ACITM02", "NAMING OBJECTS AND FINGERS (REFER TO 5 C", "ADAS-COG", "", "0", "", "0", 0, "", "", "", "Y", "", 3.0, "BASELINE", 1, "TREATMENT", "2013-07-19", 1], ["CDISCPILOT01", "QS", "01-701-1028", 5017, "ACITM02", "NAMING OBJECTS AND FINGERS (REFER TO 5 C", "ADAS-COG", "", "0", "", "0", 0, "", "", "", "", "", 8.0, "WEEK 8", 56, "TREATMENT", "2013-09-10", 54], ["CDISCPILOT01", "QS", "01-701-1028", 5032, "ACITM02", "NAMING OBJECTS AND FINGERS (REFER TO 5 C", "ADAS-COG", "", "0", "", "0", 0, "", "", "", "", "", 10.0, "WEEK 16", 112, "TREATMENT", "2013-11-06", 111], ["CDISCPILOT01", "QS", "01-701-1028", 5047, "ACITM02", "NAMING OBJECTS AND FINGERS (REFER TO 5 C", "ADAS-COG", "", "0", "", "0", 0, "", "", "", "", "", 12.0, "WEEK 24", 168, "TREATMENT", "2014-01-06", 172], ["CDISCPILOT01", "QS", "01-701-1028", 5003, "ACITM03", "DELAYED WORD RECALL", "ADAS-COG", "", "1", "", "1", 1, "", "", "", "Y", "", 3.0, "BASELINE", 1, "TREATMENT", "2013-07-19", 1], ["CDISCPILOT01", "QS", "01-701-1028", 5018, "ACITM03", "DELAYED WORD RECALL", "ADAS-COG", "", "0", "", "0", 0, "", "", "", "", "", 8.0, "WEEK 8", 56, "TREATMENT", "2013-09-10", 54], ["CDISCPILOT01", "QS", "01-701-1028", 5033, "ACITM03", "DELAYED WORD RECALL", "ADAS-COG", "", "4", "", "4", 4, "", "", "", "", "", 10.0, "WEEK 16", 112, "TREATMENT", "2013-11-06", 111], ["CDISCPILOT01", "QS", "01-701-1028", 5048, "ACITM03", "DELAYED WORD RECALL", "ADAS-COG", "", "1", "", "1", 1, "", "", "", "", "", 12.0, "WEEK 24", 168, "TREATMENT", "2014-01-06", 172], ["CDISCPILOT01", "QS", "01-701-1028", 5004, "ACITM04", "COMMANDS", "ADAS-COG", "", "0", "", "0", 0, "", "", "", "Y", "", 3.0, "BASELINE", 1, "TREATMENT", "2013-07-19", 1], ["CDISCPILOT01", "QS", "01-701-1028", 5019, "ACITM04", "COMMANDS", "ADAS-COG", "", "0", "", "0", 0, "", "", "", "", "", 8.0, "WEEK 8", 56, "TREATMENT", "2013-09-10", 54], ["CDISCPILOT01", "QS", "01-701-1028", 5034, "ACITM04", "COMMANDS", "ADAS-COG", "", "0", "", "0", 0, "", "", "", "", "", 10.0, "WEEK 16", 112, "TREATMENT", "2013-11-06", 111], ["CDISCPILOT01", "QS", "01-701-1028", 5049, "ACITM04", "COMMANDS", "ADAS-COG", "", "0", "", "0", 0, "", "", "", "", "", 12.0, "WEEK 24", 168, "TREATMENT", "2014-01-06", 172], ["CDISCPILOT01", "QS", "01-701-1028", 5005, "ACITM05", "CONSTRUCTIONAL PRAXIS", "ADAS-COG", "", "0", "", "0", 0, "", "", "", "Y", "", 3.0, "BASELINE", 1, "TREATMENT", "2013-07-19", 1], ["CDISCPILOT01", "QS", "01-701-1028", 5020, "ACITM05", "CONSTRUCTIONAL PRAXIS", "ADAS-COG", "", "0", "", "0", 0, "", "", "", "", "", 8.0, "WEEK 8", 56, "TREATMENT", "2013-09-10", 54], ["CDISCPILOT01", "QS", "01-701-1028", 5035, "ACITM05", "CONSTRUCTIONAL PRAXIS", "ADAS-COG", "", "0", "", "0", 0, "", "", "", "", "", 10.0, "WEEK 16", 112, "TREATMENT", "2013-11-06", 111], ["CDISCPILOT01", "QS", "01-701-1028", 5050, "ACITM05", "CONSTRUCTIONAL PRAXIS", "ADAS-COG", "", "0", "", "0", 0, "", "", "", "", "", 12.0, "WEEK 24", 168, "TREATMENT", "2014-01-06", 172], ["CDISCPILOT01", "QS", "01-701-1028", 5006, "ACITM06", "IDEATIONAL PRAXIS", "ADAS-COG", "", "0", "", "0", 0, "", "", "", "Y", "", 3.0, "BASELINE", 1, "TREATMENT", "2013-07-19", 1], ["CDISCPILOT01", "QS", "01-701-1028", 5021, "ACITM06", "IDEATIONAL PRAXIS", "ADAS-COG", "", "0", "", "0", 0, "", "", "", "", "", 8.0, "WEEK 8", 56, "TREATMENT", "2013-09-10", 54], ["CDISCPILOT01", "QS", "01-701-1028", 5036, "ACITM06", "IDEATIONAL PRAXIS", "ADAS-COG", "", "0", "", "0", 0, "", "", "", "", "", 10.0, "WEEK 16", 112, "TREATMENT", "2013-11-06", 111], ["CDISCPILOT01", "QS", "01-701-1028", 5051, "ACITM06", "IDEATIONAL PRAXIS", "ADAS-COG", "", "0", "", "0", 0, "", "", "", "", "", 12.0, "WEEK 24", 168, "TREATMENT", "2014-01-06", 172], ["CDISCPILOT01", "QS", "01-701-1028", 5007, "ACITM07", "ORIENTATION", "ADAS-COG", "", "0", "", "0", 0, "", "", "", "Y", "", 3.0, "BASELINE", 1, "TREATMENT", "2013-07-19", 1], ["CDISCPILOT01", "QS", "01-701-1028", 5022, "ACITM07", "ORIENTATION", "ADAS-COG", "", "0", "", "0", 0, "", "", "", "", "", 8.0, "WEEK 8", 56, "TREATMENT", "2013-09-10", 54], ["CDISCPILOT01", "QS", "01-701-1028", 5037, "ACITM07", "ORIENTATION", "ADAS-COG", "", "0", "", "0", 0, "", "", "", "", "", 10.0, "WEEK 16", 112, "TREATMENT", "2013-11-06", 111], ["CDISCPILOT01", "QS", "01-701-1028", 5052, "ACITM07", "ORIENTATION", "ADAS-COG", "", "0", "", "0", 0, "", "", "", "", "", 12.0, "WEEK 24", 168, "TREATMENT", "2014-01-06", 172], ["CDISCPILOT01", "QS", "01-701-1028", 5008, "ACITM08", "WORD RECOGNITION", "ADAS-COG", "", "2", "", "2", 2, "", "", "", "Y", "", 3.0, "BASELINE", 1, "TREATMENT", "2013-07-19", 1], ["CDISCPILOT01", "QS", "01-701-1028", 5023, "ACITM08", "WORD RECOGNITION", "ADAS-COG", "", "1", "", "1", 1, "", "", "", "", "", 8.0, "WEEK 8", 56, "TREATMENT", "2013-09-10", 54], ["CDISCPILOT01", "QS", "01-701-1028", 5038, "ACITM08", "WORD RECOGNITION", "ADAS-COG", "", "1", "", "1", 1, "", "", "", "", "", 10.0, "WEEK 16", 112, "TREATMENT", "2013-11-06", 111], ["CDISCPILOT01", "QS", "01-701-1028", 5053, "ACITM08", "WORD RECOGNITION", "ADAS-COG", "", "1", "", "1", 1, "", "", "", "", "", 12.0, "WEEK 24", 168, "TREATMENT", "2014-01-06", 172], ["CDISCPILOT01", "QS", "01-701-1028", 5009, "ACITM09", "ATTENTION/VISUAL SEARCH TASK", "ADAS-COG", "", "24", "", "24", 24, "", "", "", "Y", "", 3.0, "BASELINE", 1, "TREATMENT", "2013-07-19", 1], ["CDISCPILOT01", "QS", "01-701-1028", 5024, "ACITM09", "ATTENTION/VISUAL SEARCH TASK", "ADAS-COG", "", "25", "", "25", 25, "", "", "", "", "", 8.0, "WEEK 8", 56, "TREATMENT", "2013-09-10", 54], ["CDISCPILOT01", "QS", "01-701-1028", 5039, "ACITM09", "ATTENTION/VISUAL SEARCH TASK", "ADAS-COG", "", "34", "", "34", 34, "", "", "", "", "", 10.0, "WEEK 16", 112, "TREATMENT", "2013-11-06", 111], ["CDISCPILOT01", "QS", "01-701-1028", 5054, "ACITM09", "ATTENTION/VISUAL SEARCH TASK", "ADAS-COG", "", "26", "", "26", 26, "", "", "", "", "", 12.0, "WEEK 24", 168, "TREATMENT", "2014-01-06", 172], ["CDISCPILOT01", "QS", "01-701-1028", 5010, "ACITM10", "MAZE SOLUTION", "ADAS-COG", "", "4", "sec", "4", 4, "sec", "", "", "Y", "", 3.0, "BASELINE", 1, "TREATMENT", "2013-07-19", 1], ["CDISCPILOT01", "QS", "01-701-1028", 5025, "ACITM10", "MAZE SOLUTION", "ADAS-COG", "", "5", "sec", "5", 5, "sec", "", "", "", "", 8.0, "WEEK 8", 56, "TREATMENT", "2013-09-10", 54], ["CDISCPILOT01", "QS", "01-701-1028", 5040, "ACITM10", "MAZE SOLUTION", "ADAS-COG", "", "5", "sec", "5", 5, "sec", "", "", "", "", 10.0, "WEEK 16", 112, "TREATMENT", "2013-11-06", 111], ["CDISCPILOT01", "QS", "01-701-1028", 5055, "ACITM10", "MAZE SOLUTION", "ADAS-COG", "", "5", "sec", "5", 5, "sec", "", "", "", "", 12.0, "WEEK 24", 168, "TREATMENT", "2014-01-06", 172], ["CDISCPILOT01", "QS", "01-701-1028", 5011, "ACITM11", "SPOKEN LANGUAGE ABILITY", "ADAS-COG", "", "0", "", "0", 0, "", "", "", "Y", "", 3.0, "BASELINE", 1, "TREATMENT", "2013-07-19", 1], ["CDISCPILOT01", "QS", "01-701-1028", 5026, "ACITM11", "SPOKEN LANGUAGE ABILITY", "ADAS-COG", "", "0", "", "0", 0, "", "", "", "", "", 8.0, "WEEK 8", 56, "TREATMENT", "2013-09-10", 54], ["CDISCPILOT01", "QS", "01-701-1028", 5041, "ACITM11", "SPOKEN LANGUAGE ABILITY", "ADAS-COG", "", "0", "", "0", 0, "", "", "", "", "", 10.0, "WEEK 16", 112, "TREATMENT", "2013-11-06", 111], ["CDISCPILOT01", "QS", "01-701-1028", 5056, "ACITM11", "SPOKEN LANGUAGE ABILITY", "ADAS-COG", "", "0", "", "0", 0, "", "", "", "", "", 12.0, "WEEK 24", 168, "TREATMENT", "2014-01-06", 172], ["CDISCPILOT01", "QS", "01-701-1028", 5012, "ACITM12", "COMPREHENSION OF SPOKEN LANGUAGE", "ADAS-COG", "", "0", "", "0", 0, "", "", "", "Y", "", 3.0, "BASELINE", 1, "TREATMENT", "2013-07-19", 1], ["CDISCPILOT01", "QS", "01-701-1028", 5027, "ACITM12", "COMPREHENSION OF SPOKEN LANGUAGE", "ADAS-COG", "", "0", "", "0", 0, "", "", "", "", "", 8.0, "WEEK 8", 56, "TREATMENT", "2013-09-10", 54], ["CDISCPILOT01", "QS", "01-701-1028", 5042, "ACITM12", "COMPREHENSION OF SPOKEN LANGUAGE", "ADAS-COG", "", "0", "", "0", 0, "", "", "", "", "", 10.0, "WEEK 16", 112, "TREATMENT", "2013-11-06", 111], ["CDISCPILOT01", "QS", "01-701-1028", 5057, "ACITM12", "COMPREHENSION OF SPOKEN LANGUAGE", "ADAS-COG", "", "0", "", "0", 0, "", "", "", "", "", 12.0, "WEEK 24", 168, "TREATMENT", "2014-01-06", 172], ["CDISCPILOT01", "QS", "01-701-1028", 5013, "ACITM13", "WORD FINDING DIFFICULTY IN SPONTANEOUS S", "ADAS-COG", "", "0", "", "0", 0, "", "", "", "Y", "", 3.0, "BASELINE", 1, "TREATMENT", "2013-07-19", 1], ["CDISCPILOT01", "QS", "01-701-1028", 5028, "ACITM13", "WORD FINDING DIFFICULTY IN SPONTANEOUS S", "ADAS-COG", "", "0", "", "0", 0, "", "", "", "", "", 8.0, "WEEK 8", 56, "TREATMENT", "2013-09-10", 54], ["CDISCPILOT01", "QS", "01-701-1028", 5043, "ACITM13", "WORD FINDING DIFFICULTY IN SPONTANEOUS S", "ADAS-COG", "", "0", "", "0", 0, "", "", "", "", "", 10.0, "WEEK 16", 112, "TREATMENT", "2013-11-06", 111], ["CDISCPILOT01", "QS", "01-701-1028", 5058, "ACITM13", "WORD FINDING DIFFICULTY IN SPONTANEOUS S", "ADAS-COG", "", "0", "", "0", 0, "", "", "", "", "", 12.0, "WEEK 24", 168, "TREATMENT", "2014-01-06", 172], ["CDISCPILOT01", "QS", "01-701-1028", 5014, "ACITM14", "RECALL OF TEST INSTRUCTIONS", "ADAS-COG", "", "0", "", "0", 0, "", "", "", "Y", "", 3.0, "BASELINE", 1, "TREATMENT", "2013-07-19", 1], ["CDISCPILOT01", "QS", "01-701-1028", 5029, "ACITM14", "RECALL OF TEST INSTRUCTIONS", "ADAS-COG", "", "0", "", "0", 0, "", "", "", "", "", 8.0, "WEEK 8", 56, "TREATMENT", "2013-09-10", 54], ["CDISCPILOT01", "QS", "01-701-1028", 5044, "ACITM14", "RECALL OF TEST INSTRUCTIONS", "ADAS-COG", "", "0", "", "0", 0, "", "", "", "", "", 10.0, "WEEK 16", 112, "TREATMENT", "2013-11-06", 111], ["CDISCPILOT01", "QS", "01-701-1028", 5059, "ACITM14", "RECALL OF TEST INSTRUCTIONS", "ADAS-COG", "", "0", "", "0", 0, "", "", "", "", "", 12.0, "WEEK 24", 168, "TREATMENT", "2014-01-06", 172], ["CDISCPILOT01", "QS", "01-701-1028", 5015, "ACTOT", "ADAS-COG(11) Subscore", "ADAS-COG", "", "", "", "3", 3, "", "", "", "Y", "Y", 3.0, "BASELINE", 1, "TREATMENT", "2013-07-19", 1], ["CDISCPILOT01", "QS", "01-701-1028", 5030, "ACTOT", "ADAS-COG(11) Subscore", "ADAS-COG", "", "", "", "2", 2, "", "", "", "", "Y", 8.0, "WEEK 8", 56, "TREATMENT", "2013-09-10", 54], ["CDISCPILOT01", "QS", "01-701-1028", 5045, "ACTOT", "ADAS-COG(11) Subscore", "ADAS-COG", "", "", "", "4", 4, "", "", "", "", "Y", 10.0, "WEEK 16", 112, "TREATMENT", "2013-11-06", 111], ["CDISCPILOT01", "QS", "01-701-1028", 5060, "ACTOT", "ADAS-COG(11) Subscore", "ADAS-COG", "", "", "", "3", 3, "", "", "", "", "Y", 12.0, "WEEK 24", 168, "TREATMENT", "2014-01-06", 172], ["CDISCPILOT01", "QS", "01-701-1033", 5001, "ACITM01", "WORD RECALL TASK", "ADAS-COG", "", "5", "", "5", 5, "", "", "", "Y", "", 3.0, "BASELINE", 1, "TREATMENT", "2014-03-18", 1], ["CDISCPILOT01", "QS", "01-701-1033", 5016, "ACITM01", "WORD RECALL TASK", "ADAS-COG", "", "5", "", "5", 5, "", "", "", "", "", 5.0, "WEEK 4", 28, "TREATMENT", "2014-04-14", 28], ["CDISCPILOT01", "QS", "01-701-1033", 5031, "ACITM01", "WORD RECALL TASK", "ADAS-COG", "", "6", "", "6", 6, "", "", "", "", "", 201.0, "RETRIEVAL", 168, "TREATMENT", "2014-09-15", 182], ["CDISCPILOT01", "QS", "01-701-1033", 5002, "ACITM02", "NAMING OBJECTS AND FINGERS (REFER TO 5 C", "ADAS-COG", "", "0", "", "0", 0, "", "", "", "Y", "", 3.0, "BASELINE", 1, "TREATMENT", "2014-03-18", 1], ["CDISCPILOT01", "QS", "01-701-1033", 5017, "ACITM02", "NAMING OBJECTS AND FINGERS (REFER TO 5 C", "ADAS-COG", "", "0", "", "0", 0, "", "", "", "", "", 5.0, "WEEK 4", 28, "TREATMENT", "2014-04-14", 28], ["CDISCPILOT01", "QS", "01-701-1033", 5032, "ACITM02", "NAMING OBJECTS AND FINGERS (REFER TO 5 C", "ADAS-COG", "", "0", "", "0", 0, "", "", "", "", "", 201.0, "RETRIEVAL", 168, "TREATMENT", "2014-09-15", 182], ["CDISCPILOT01", "QS", "01-701-1033", 5003, "ACITM03", "DELAYED WORD RECALL", "ADAS-COG", "", "6", "", "6", 6, "", "", "", "Y", "", 3.0, "BASELINE", 1, "TREATMENT", "2014-03-18", 1], ["CDISCPILOT01", "QS", "01-701-1033", 5018, "ACITM03", "DELAYED WORD RECALL", "ADAS-COG", "", "3", "", "3", 3, "", "", "", "", "", 5.0, "WEEK 4", 28, "TREATMENT", "2014-04-14", 28], ["CDISCPILOT01", "QS", "01-701-1033", 5033, "ACITM03", "DELAYED WORD RECALL", "ADAS-COG", "", "6", "", "6", 6, "", "", "", "", "", 201.0, "RETRIEVAL", 168, "TREATMENT", "2014-09-15", 182], ["CDISCPILOT01", "QS", "01-701-1033", 5004, "ACITM04", "COMMANDS", "ADAS-COG", "", "0", "", "0", 0, "", "", "", "Y", "", 3.0, "BASELINE", 1, "TREATMENT", "2014-03-18", 1], ["CDISCPILOT01", "QS", "01-701-1033", 5019, "ACITM04", "COMMANDS", "ADAS-COG", "", "0", "", "0", 0, "", "", "", "", "", 5.0, "WEEK 4", 28, "TREATMENT", "2014-04-14", 28], ["CDISCPILOT01", "QS", "01-701-1033", 5034, "ACITM04", "COMMANDS", "ADAS-COG", "", "0", "", "0", 0, "", "", "", "", "", 201.0, "RETRIEVAL", 168, "TREATMENT", "2014-09-15", 182], ["CDISCPILOT01", "QS", "01-701-1033", 5005, "ACITM05", "CONSTRUCTIONAL PRAXIS", "ADAS-COG", "", "1", "", "1", 1, "", "", "", "Y", "", 3.0, "BASELINE", 1, "TREATMENT", "2014-03-18", 1], ["CDISCPILOT01", "QS", "01-701-1033", 5020, "ACITM05", "CONSTRUCTIONAL PRAXIS", "ADAS-COG", "", "1", "", "1", 1, "", "", "", "", "", 5.0, "WEEK 4", 28, "TREATMENT", "2014-04-14", 28], ["CDISCPILOT01", "QS", "01-701-1033", 5035, "ACITM05", "CONSTRUCTIONAL PRAXIS", "ADAS-COG", "", "0", "", "0", 0, "", "", "", "", "", 201.0, "RETRIEVAL", 168, "TREATMENT", "2014-09-15", 182], ["CDISCPILOT01", "QS", "01-701-1033", 5006, "ACITM06", "IDEATIONAL PRAXIS", "ADAS-COG", "", "0", "", "0", 0, "", "", "", "Y", "", 3.0, "BASELINE", 1, "TREATMENT", "2014-03-18", 1], ["CDISCPILOT01", "QS", "01-701-1033", 5021, "ACITM06", "IDEATIONAL PRAXIS", "ADAS-COG", "", "0", "", "0", 0, "", "", "", "", "", 5.0, "WEEK 4", 28, "TREATMENT", "2014-04-14", 28], ["CDISCPILOT01", "QS", "01-701-1033", 5036, "ACITM06", "IDEATIONAL PRAXIS", "ADAS-COG", "", "0", "", "0", 0, "", "", "", "", "", 201.0, "RETRIEVAL", 168, "TREATMENT", "2014-09-15", 182], ["CDISCPILOT01", "QS", "01-701-1033", 5007, "ACITM07", "ORIENTATION", "ADAS-COG", "", "0", "", "0", 0, "", "", "", "Y", "", 3.0, "BASELINE", 1, "TREATMENT", "2014-03-18", 1], ["CDISCPILOT01", "QS", "01-701-1033", 5022, "ACITM07", "ORIENTATION", "ADAS-COG", "", "0", "", "0", 0, "", "", "", "", "", 5.0, "WEEK 4", 28, "TREATMENT", "2014-04-14", 28], ["CDISCPILOT01", "QS", "01-701-1033", 5037, "ACITM07", "ORIENTATION", "ADAS-COG", "", "0", "", "0", 0, "", "", "", "", "", 201.0, "RETRIEVAL", 168, "TREATMENT", "2014-09-15", 182], ["CDISCPILOT01", "QS", "01-701-1033", 5008, "ACITM08", "WORD RECOGNITION", "ADAS-COG", "", "1", "", "1", 1, "", "", "", "Y", "", 3.0, "BASELINE", 1, "TREATMENT", "2014-03-18", 1], ["CDISCPILOT01", "QS", "01-701-1033", 5023, "ACITM08", "WORD RECOGNITION", "ADAS-COG", "", "2", "", "2", 2, "", "", "", "", "", 5.0, "WEEK 4", 28, "TREATMENT", "2014-04-14", 28], ["CDISCPILOT01", "QS", "01-701-1033", 5038, "ACITM08", "WORD RECOGNITION", "ADAS-COG", "", "1", "", "1", 1, "", "", "", "", "", 201.0, "RETRIEVAL", 168, "TREATMENT", "2014-09-15", 182], ["CDISCPILOT01", "QS", "01-701-1033", 5009, "ACITM09", "ATTENTION/VISUAL SEARCH TASK", "ADAS-COG", "", "30", "", "30", 30, "", "", "", "Y", "", 3.0, "BASELINE", 1, "TREATMENT", "2014-03-18", 1], ["CDISCPILOT01", "QS", "01-701-1033", 5024, "ACITM09", "ATTENTION/VISUAL SEARCH TASK", "ADAS-COG", "", "24", "", "24", 24, "", "", "", "", "", 5.0, "WEEK 4", 28, "TREATMENT", "2014-04-14", 28], ["CDISCPILOT01", "QS", "01-701-1033", 5039, "ACITM09", "ATTENTION/VISUAL SEARCH TASK", "ADAS-COG", "", "27", "", "27", 27, "", "", "", "", "", 201.0, "RETRIEVAL", 168, "TREATMENT", "2014-09-15", 182], ["CDISCPILOT01", "QS", "01-701-1033", 5010, "ACITM10", "MAZE SOLUTION", "ADAS-COG", "", "7", "sec", "7", 7, "sec", "", "", "Y", "", 3.0, "BASELINE", 1, "TREATMENT", "2014-03-18", 1], ["CDISCPILOT01", "QS", "01-701-1033", 5025, "ACITM10", "MAZE SOLUTION", "ADAS-COG", "", "6", "sec", "6", 6, "sec", "", "", "", "", 5.0, "WEEK 4", 28, "TREATMENT", "2014-04-14", 28], ["CDISCPILOT01", "QS", "01-701-1033", 5040, "ACITM10", "MAZE SOLUTION", "ADAS-COG", "", "4", "sec", "4", 4, "sec", "", "", "", "", 201.0, "RETRIEVAL", 168, "TREATMENT", "2014-09-15", 182], ["CDISCPILOT01", "QS", "01-701-1033", 5011, "ACITM11", "SPOKEN LANGUAGE ABILITY", "ADAS-COG", "", "0", "", "0", 0, "", "", "", "Y", "", 3.0, "BASELINE", 1, "TREATMENT", "2014-03-18", 1], ["CDISCPILOT01", "QS", "01-701-1033", 5026, "ACITM11", "SPOKEN LANGUAGE ABILITY", "ADAS-COG", "", "0", "", "0", 0, "", "", "", "", "", 5.0, "WEEK 4", 28, "TREATMENT", "2014-04-14", 28], ["CDISCPILOT01", "QS", "01-701-1033", 5041, "ACITM11", "SPOKEN LANGUAGE ABILITY", "ADAS-COG", "", "0", "", "0", 0, "", "", "", "", "", 201.0, "RETRIEVAL", 168, "TREATMENT", "2014-09-15", 182], ["CDISCPILOT01", "QS", "01-701-1033", 5012, "ACITM12", "COMPREHENSION OF SPOKEN LANGUAGE", "ADAS-COG", "", "0", "", "0", 0, "", "", "", "Y", "", 3.0, "BASELINE", 1, "TREATMENT", "2014-03-18", 1], ["CDISCPILOT01", "QS", "01-701-1033", 5027, "ACITM12", "COMPREHENSION OF SPOKEN LANGUAGE", "ADAS-COG", "", "0", "", "0", 0, "", "", "", "", "", 5.0, "WEEK 4", 28, "TREATMENT", "2014-04-14", 28], ["CDISCPILOT01", "QS", "01-701-1033", 5042, "ACITM12", "COMPREHENSION OF SPOKEN LANGUAGE", "ADAS-COG", "", "0", "", "0", 0, "", "", "", "", "", 201.0, "RETRIEVAL", 168, "TREATMENT", "2014-09-15", 182], ["CDISCPILOT01", "QS", "01-701-1033", 5013, "ACITM13", "WORD FINDING DIFFICULTY IN SPONTANEOUS S", "ADAS-COG", "", "0", "", "0", 0, "", "", "", "Y", "", 3.0, "BASELINE", 1, "TREATMENT", "2014-03-18", 1], ["CDISCPILOT01", "QS", "01-701-1033", 5028, "ACITM13", "WORD FINDING DIFFICULTY IN SPONTANEOUS S", "ADAS-COG", "", "0", "", "0", 0, "", "", "", "", "", 5.0, "WEEK 4", 28, "TREATMENT", "2014-04-14", 28], ["CDISCPILOT01", "QS", "01-701-1033", 5043, "ACITM13", "WORD FINDING DIFFICULTY IN SPONTANEOUS S", "ADAS-COG", "", "0", "", "0", 0, "", "", "", "", "", 201.0, "RETRIEVAL", 168, "TREATMENT", "2014-09-15", 182], ["CDISCPILOT01", "QS", "01-701-1033", 5014, "ACITM14", "RECALL OF TEST INSTRUCTIONS", "ADAS-COG", "", "0", "", "0", 0, "", "", "", "Y", "", 3.0, "BASELINE", 1, "TREATMENT", "2014-03-18", 1], ["CDISCPILOT01", "QS", "01-701-1033", 5029, "ACITM14", "RECALL OF TEST INSTRUCTIONS", "ADAS-COG", "", "0", "", "0", 0, "", "", "", "", "", 5.0, "WEEK 4", 28, "TREATMENT", "2014-04-14", 28], ["CDISCPILOT01", "QS", "01-701-1033", 5044, "ACITM14", "RECALL OF TEST INSTRUCTIONS", "ADAS-COG", "", "0", "", "0", 0, "", "", "", "", "", 201.0, "RETRIEVAL", 168, "TREATMENT", "2014-09-15", 182], ["CDISCPILOT01", "QS", "01-701-1033", 5015, "ACTOT", "ADAS-COG(11) Subscore", "ADAS-COG", "", "", "", "7", 7, "", "", "", "Y", "Y", 3.0, "BASELINE", 1, "TREATMENT", "2014-03-18", 1], ["CDISCPILOT01", "QS", "01-701-1033", 5030, "ACTOT", "ADAS-COG(11) Subscore", "ADAS-COG", "", "", "", "8", 8, "", "", "", "", "Y", 5.0, "WEEK 4", 28, "TREATMENT", "2014-04-14", 28], ["CDISCPILOT01", "QS", "01-701-1033", 5045, "ACTOT", "ADAS-COG(11) Subscore", "ADAS-COG", "", "", "", "7", 7, "", "", "", "", "Y", 201.0, "RETRIEVAL", 168, "TREATMENT", "2014-09-15", 182], ["CDISCPILOT01", "QS", "01-701-1034", 5001, "ACITM01", "WORD RECALL TASK", "ADAS-COG", "", "5", "", "5", 5, "", "", "", "Y", "", 3.0, "BASELINE", 1, "TREATMENT", "2014-07-01", 1], ["CDISCPILOT01", "QS", "01-701-1034", 5016, "ACITM01", "WORD RECALL TASK", "ADAS-COG", "", "5", "", "5", 5, "", "", "", "", "", 8.0, "WEEK 8", 56, "TREATMENT", "2014-08-26", 57], ["CDISCPILOT01", "QS", "01-701-1034", 5031, "ACITM01", "WORD RECALL TASK", "ADAS-COG", "", "6", "", "6", 6, "", "", "", "", "", 10.0, "WEEK 16", 112, "TREATMENT", "2014-10-21", 113], ["CDISCPILOT01", "QS", "01-701-1034", 5046, "ACITM01", "WORD RECALL TASK", "ADAS-COG", "", "6", "", "6", 6, "", "", "", "", "", 12.0, "WEEK 24", 168, "TREATMENT", "2014-12-17", 170], ["CDISCPILOT01", "QS", "01-701-1034", 5002, "ACITM02", "NAMING OBJECTS AND FINGERS (REFER TO 5 C", "ADAS-COG", "", "0", "", "0", 0, "", "", "", "Y", "", 3.0, "BASELINE", 1, "TREATMENT", "2014-07-01", 1], ["CDISCPILOT01", "QS", "01-701-1034", 5017, "ACITM02", "NAMING OBJECTS AND FINGERS (REFER TO 5 C", "ADAS-COG", "", "1", "", "1", 1, "", "", "", "", "", 8.0, "WEEK 8", 56, "TREATMENT", "2014-08-26", 57], ["CDISCPILOT01", "QS", "01-701-1034", 5032, "ACITM02", "NAMING OBJECTS AND FINGERS (REFER TO 5 C", "ADAS-COG", "", "1", "", "1", 1, "", "", "", "", "", 10.0, "WEEK 16", 112, "TREATMENT", "2014-10-21", 113], ["CDISCPILOT01", "QS", "01-701-1034", 5047, "ACITM02", "NAMING OBJECTS AND FINGERS (REFER TO 5 C", "ADAS-COG", "", "1", "", "1", 1, "", "", "", "", "", 12.0, "WEEK 24", 168, "TREATMENT", "2014-12-17", 170], ["CDISCPILOT01", "QS", "01-701-1034", 5003, "ACITM03", "DELAYED WORD RECALL", "ADAS-COG", "", "9", "", "9", 9, "", "", "", "Y", "", 3.0, "BASELINE", 1, "TREATMENT", "2014-07-01", 1], ["CDISCPILOT01", "QS", "01-701-1034", 5018, "ACITM03", "DELAYED WORD RECALL", "ADAS-COG", "", "7", "", "7", 7, "", "", "", "", "", 8.0, "WEEK 8", 56, "TREATMENT", "2014-08-26", 57], ["CDISCPILOT01", "QS", "01-701-1034", 5033, "ACITM03", "DELAYED WORD RECALL", "ADAS-COG", "", "10", "", "10", 10, "", "", "", "", "", 10.0, "WEEK 16", 112, "TREATMENT", "2014-10-21", 113], ["CDISCPILOT01", "QS", "01-701-1034", 5048, "ACITM03", "DELAYED WORD RECALL", "ADAS-COG", "", "10", "", "10", 10, "", "", "", "", "", 12.0, "WEEK 24", 168, "TREATMENT", "2014-12-17", 170], ["CDISCPILOT01", "QS", "01-701-1034", 5004, "ACITM04", "COMMANDS", "ADAS-COG", "", "0", "", "0", 0, "", "", "", "Y", "", 3.0, "BASELINE", 1, "TREATMENT", "2014-07-01", 1], ["CDISCPILOT01", "QS", "01-701-1034", 5019, "ACITM04", "COMMANDS", "ADAS-COG", "", "0", "", "0", 0, "", "", "", "", "", 8.0, "WEEK 8", 56, "TREATMENT", "2014-08-26", 57], ["CDISCPILOT01", "QS", "01-701-1034", 5034, "ACITM04", "COMMANDS", "ADAS-COG", "", "0", "", "0", 0, "", "", "", "", "", 10.0, "WEEK 16", 112, "TREATMENT", "2014-10-21", 113], ["CDISCPILOT01", "QS", "01-701-1034", 5049, "ACITM04", "COMMANDS", "ADAS-COG", "", "0", "", "0", 0, "", "", "", "", "", 12.0, "WEEK 24", 168, "TREATMENT", "2014-12-17", 170], ["CDISCPILOT01", "QS", "01-701-1034", 5005, "ACITM05", "CONSTRUCTIONAL PRAXIS", "ADAS-COG", "", "2", "", "2", 2, "", "", "", "Y", "", 3.0, "BASELINE", 1, "TREATMENT", "2014-07-01", 1], ["CDISCPILOT01", "QS", "01-701-1034", 5020, "ACITM05", "CONSTRUCTIONAL PRAXIS", "ADAS-COG", "", "1", "", "1", 1, "", "", "", "", "", 8.0, "WEEK 8", 56, "TREATMENT", "2014-08-26", 57], ["CDISCPILOT01", "QS", "01-701-1034", 5035, "ACITM05", "CONSTRUCTIONAL PRAXIS", "ADAS-COG", "", "3", "", "3", 3, "", "", "", "", "", 10.0, "WEEK 16", 112, "TREATMENT", "2014-10-21", 113], ["CDISCPILOT01", "QS", "01-701-1034", 5050, "ACITM05", "CONSTRUCTIONAL PRAXIS", "ADAS-COG", "", "2", "", "2", 2, "", "", "", "", "", 12.0, "WEEK 24", 168, "TREATMENT", "2014-12-17", 170], ["CDISCPILOT01", "QS", "01-701-1034", 5006, "ACITM06", "IDEATIONAL PRAXIS", "ADAS-COG", "", "1", "", "1", 1, "", "", "", "Y", "", 3.0, "BASELINE", 1, "TREATMENT", "2014-07-01", 1], ["CDISCPILOT01", "QS", "01-701-1034", 5021, "ACITM06", "IDEATIONAL PRAXIS", "ADAS-COG", "", "0", "", "0", 0, "", "", "", "", "", 8.0, "WEEK 8", 56, "TREATMENT", "2014-08-26", 57], ["CDISCPILOT01", "QS", "01-701-1034", 5036, "ACITM06", "IDEATIONAL PRAXIS", "ADAS-COG", "", "0", "", "0", 0, "", "", "", "", "", 10.0, "WEEK 16", 112, "TREATMENT", "2014-10-21", 113], ["CDISCPILOT01", "QS", "01-701-1034", 5051, "ACITM06", "IDEATIONAL PRAXIS", "ADAS-COG", "", "0", "", "0", 0, "", "", "", "", "", 12.0, "WEEK 24", 168, "TREATMENT", "2014-12-17", 170], ["CDISCPILOT01", "QS", "01-701-1034", 5007, "ACITM07", "ORIENTATION", "ADAS-COG", "", "0", "", "0", 0, "", "", "", "Y", "", 3.0, "BASELINE", 1, "TREATMENT", "2014-07-01", 1], ["CDISCPILOT01", "QS", "01-701-1034", 5022, "ACITM07", "ORIENTATION", "ADAS-COG", "", "0", "", "0", 0, "", "", "", "", "", 8.0, "WEEK 8", 56, "TREATMENT", "2014-08-26", 57], ["CDISCPILOT01", "QS", "01-701-1034", 5037, "ACITM07", "ORIENTATION", "ADAS-COG", "", "0", "", "0", 0, "", "", "", "", "", 10.0, "WEEK 16", 112, "TREATMENT", "2014-10-21", 113], ["CDISCPILOT01", "QS", "01-701-1034", 5052, "ACITM07", "ORIENTATION", "ADAS-COG", "", "0", "", "0", 0, "", "", "", "", "", 12.0, "WEEK 24", 168, "TREATMENT", "2014-12-17", 170], ["CDISCPILOT01", "QS", "01-701-1034", 5008, "ACITM08", "WORD RECOGNITION", "ADAS-COG", "", "3", "", "3", 3, "", "", "", "Y", "", 3.0, "BASELINE", 1, "TREATMENT", "2014-07-01", 1], ["CDISCPILOT01", "QS", "01-701-1034", 5023, "ACITM08", "WORD RECOGNITION", "ADAS-COG", "", "4", "", "4", 4, "", "", "", "", "", 8.0, "WEEK 8", 56, "TREATMENT", "2014-08-26", 57], ["CDISCPILOT01", "QS", "01-701-1034", 5038, "ACITM08", "WORD RECOGNITION", "ADAS-COG", "", "4", "", "4", 4, "", "", "", "", "", 10.0, "WEEK 16", 112, "TREATMENT", "2014-10-21", 113], ["CDISCPILOT01", "QS", "01-701-1034", 5053, "ACITM08", "WORD RECOGNITION", "ADAS-COG", "", "2", "", "2", 2, "", "", "", "", "", 12.0, "WEEK 24", 168, "TREATMENT", "2014-12-17", 170], ["CDISCPILOT01", "QS", "01-701-1034", 5009, "ACITM09", "ATTENTION/VISUAL SEARCH TASK", "ADAS-COG", "", "20", "", "20", 20, "", "", "", "Y", "", 3.0, "BASELINE", 1, "TREATMENT", "2014-07-01", 1], ["CDISCPILOT01", "QS", "01-701-1034", 5024, "ACITM09", "ATTENTION/VISUAL SEARCH TASK", "ADAS-COG", "", "20", "", "20", 20, "", "", "", "", "", 8.0, "WEEK 8", 56, "TREATMENT", "2014-08-26", 57], ["CDISCPILOT01", "QS", "01-701-1034", 5039, "ACITM09", "ATTENTION/VISUAL SEARCH TASK", "ADAS-COG", "", "27", "", "27", 27, "", "", "", "", "", 10.0, "WEEK 16", 112, "TREATMENT", "2014-10-21", 113], ["CDISCPILOT01", "QS", "01-701-1034", 5054, "ACITM09", "ATTENTION/VISUAL SEARCH TASK", "ADAS-COG", "", "31", "", "31", 31, "", "", "", "", "", 12.0, "WEEK 24", 168, "TREATMENT", "2014-12-17", 170], ["CDISCPILOT01", "QS", "01-701-1034", 5010, "ACITM10", "MAZE SOLUTION", "ADAS-COG", "", "5", "sec", "5", 5, "sec", "", "", "Y", "", 3.0, "BASELINE", 1, "TREATMENT", "2014-07-01", 1], ["CDISCPILOT01", "QS", "01-701-1034", 5025, "ACITM10", "MAZE SOLUTION", "ADAS-COG", "", "4", "sec", "4", 4, "sec", "", "", "", "", 8.0, "WEEK 8", 56, "TREATMENT", "2014-08-26", 57], ["CDISCPILOT01", "QS", "01-701-1034", 5040, "ACITM10", "MAZE SOLUTION", "ADAS-COG", "", "5", "sec", "5", 5, "sec", "", "", "", "", 10.0, "WEEK 16", 112, "TREATMENT", "2014-10-21", 113], ["CDISCPILOT01", "QS", "01-701-1034", 5055, "ACITM10", "MAZE SOLUTION", "ADAS-COG", "", "7", "sec", "7", 7, "sec", "", "", "", "", 12.0, "WEEK 24", 168, "TREATMENT", "2014-12-17", 170], ["CDISCPILOT01", "QS", "01-701-1034", 5011, "ACITM11", "SPOKEN LANGUAGE ABILITY", "ADAS-COG", "", "0", "", "0", 0, "", "", "", "Y", "", 3.0, "BASELINE", 1, "TREATMENT", "2014-07-01", 1], ["CDISCPILOT01", "QS", "01-701-1034", 5026, "ACITM11", "SPOKEN LANGUAGE ABILITY", "ADAS-COG", "", "0", "", "0", 0, "", "", "", "", "", 8.0, "WEEK 8", 56, "TREATMENT", "2014-08-26", 57], ["CDISCPILOT01", "QS", "01-701-1034", 5041, "ACITM11", "SPOKEN LANGUAGE ABILITY", "ADAS-COG", "", "0", "", "0", 0, "", "", "", "", "", 10.0, "WEEK 16", 112, "TREATMENT", "2014-10-21", 113], ["CDISCPILOT01", "QS", "01-701-1034", 5056, "ACITM11", "SPOKEN LANGUAGE ABILITY", "ADAS-COG", "", "0", "", "0", 0, "", "", "", "", "", 12.0, "WEEK 24", 168, "TREATMENT", "2014-12-17", 170], ["CDISCPILOT01", "QS", "01-701-1034", 5012, "ACITM12", "COMPREHENSION OF SPOKEN LANGUAGE", "ADAS-COG", "", "0", "", "0", 0, "", "", "", "Y", "", 3.0, "BASELINE", 1, "TREATMENT", "2014-07-01", 1], ["CDISCPILOT01", "QS", "01-701-1034", 5027, "ACITM12", "COMPREHENSION OF SPOKEN LANGUAGE", "ADAS-COG", "", "0", "", "0", 0, "", "", "", "", "", 8.0, "WEEK 8", 56, "TREATMENT", "2014-08-26", 57], ["CDISCPILOT01", "QS", "01-701-1034", 5042, "ACITM12", "COMPREHENSION OF SPOKEN LANGUAGE", "ADAS-COG", "", "0", "", "0", 0, "", "", "", "", "", 10.0, "WEEK 16", 112, "TREATMENT", "2014-10-21", 113], ["CDISCPILOT01", "QS", "01-701-1034", 5057, "ACITM12", "COMPREHENSION OF SPOKEN LANGUAGE", "ADAS-COG", "", "0", "", "0", 0, "", "", "", "", "", 12.0, "WEEK 24", 168, "TREATMENT", "2014-12-17", 170], ["CDISCPILOT01", "QS", "01-701-1034", 5013, "ACITM13", "WORD FINDING DIFFICULTY IN SPONTANEOUS S", "ADAS-COG", "", "0", "", "0", 0, "", "", "", "Y", "", 3.0, "BASELINE", 1, "TREATMENT", "2014-07-01", 1], ["CDISCPILOT01", "QS", "01-701-1034", 5028, "ACITM13", "WORD FINDING DIFFICULTY IN SPONTANEOUS S", "ADAS-COG", "", "1", "", "1", 1, "", "", "", "", "", 8.0, "WEEK 8", 56, "TREATMENT", "2014-08-26", 57], ["CDISCPILOT01", "QS", "01-701-1034", 5043, "ACITM13", "WORD FINDING DIFFICULTY IN SPONTANEOUS S", "ADAS-COG", "", "0", "", "0", 0, "", "", "", "", "", 10.0, "WEEK 16", 112, "TREATMENT", "2014-10-21", 113], ["CDISCPILOT01", "QS", "01-701-1034", 5058, "ACITM13", "WORD FINDING DIFFICULTY IN SPONTANEOUS S", "ADAS-COG", "", "0", "", "0", 0, "", "", "", "", "", 12.0, "WEEK 24", 168, "TREATMENT", "2014-12-17", 170], ["CDISCPILOT01", "QS", "01-701-1034", 5014, "ACITM14", "RECALL OF TEST INSTRUCTIONS", "ADAS-COG", "", "0", "", "0", 0, "", "", "", "Y", "", 3.0, "BASELINE", 1, "TREATMENT", "2014-07-01", 1], ["CDISCPILOT01", "QS", "01-701-1034", 5029, "ACITM14", "RECALL OF TEST INSTRUCTIONS", "ADAS-COG", "", "0", "", "0", 0, "", "", "", "", "", 8.0, "WEEK 8", 56, "TREATMENT", "2014-08-26", 57], ["CDISCPILOT01", "QS", "01-701-1034", 5044, "ACITM14", "RECALL OF TEST INSTRUCTIONS", "ADAS-COG", "", "0", "", "0", 0, "", "", "", "", "", 10.0, "WEEK 16", 112, "TREATMENT", "2014-10-21", 113], ["CDISCPILOT01", "QS", "01-701-1034", 5059, "ACITM14", "RECALL OF TEST INSTRUCTIONS", "ADAS-COG", "", "0", "", "0", 0, "", "", "", "", "", 12.0, "WEEK 24", 168, "TREATMENT", "2014-12-17", 170], ["CDISCPILOT01", "QS", "01-701-1034", 5015, "ACTOT", "ADAS-COG(11) Subscore", "ADAS-COG", "", "", "", "11", 11, "", "", "", "Y", "Y", 3.0, "BASELINE", 1, "TREATMENT", "2014-07-01", 1], ["CDISCPILOT01", "QS", "01-701-1034", 5030, "ACTOT", "ADAS-COG(11) Subscore", "ADAS-COG", "", "", "", "12", 12, "", "", "", "", "Y", 8.0, "WEEK 8", 56, "TREATMENT", "2014-08-26", 57], ["CDISCPILOT01", "QS", "01-701-1034", 5045, "ACTOT", "ADAS-COG(11) Subscore", "ADAS-COG", "", "", "", "14", 14, "", "", "", "", "Y", 10.0, "WEEK 16", 112, "TREATMENT", "2014-10-21", 113], ["CDISCPILOT01", "QS", "01-701-1034", 5060, "ACTOT", "ADAS-COG(11) Subscore", "ADAS-COG", "", "", "", "11", 11, "", "", "", "", "Y", 12.0, "WEEK 24", 168, "TREATMENT", "2014-12-17", 170], ["CDISCPILOT01", "QS", "01-701-1047", 5001, "ACITM01", "WORD RECALL TASK", "ADAS-COG", "", "6", "", "6", 6, "", "", "", "Y", "", 3.0, "BASELINE", 1, "TREATMENT", "2013-02-12", 1], ["CDISCPILOT01", "QS", "01-701-1047", 5016, "ACITM01", "WORD RECALL TASK", "ADAS-COG", "", "7", "", "7", 7, "", "", "", "", "", 6.0, "AMBUL ECG REMOVAL", 30, "TREATMENT", "2013-03-29", 46], ["CDISCPILOT01", "QS", "01-701-1047", 5031, "ACITM01", "WORD RECALL TASK", "ADAS-COG", "", "7", "", "7", 7, "", "", "", "", "", 201.0, "RETRIEVAL", 168, "TREATMENT", "2013-07-28", 167], ["CDISCPILOT01", "QS", "01-701-1047", 5002, "ACITM02", "NAMING OBJECTS AND FINGERS (REFER TO 5 C", "ADAS-COG", "", "0", "", "0", 0, "", "", "", "Y", "", 3.0, "BASELINE", 1, "TREATMENT", "2013-02-12", 1], ["CDISCPILOT01", "QS", "01-701-1047", 5017, "ACITM02", "NAMING OBJECTS AND FINGERS (REFER TO 5 C", "ADAS-COG", "", "0", "", "0", 0, "", "", "", "", "", 6.0, "AMBUL ECG REMOVAL", 30, "TREATMENT", "2013-03-29", 46], ["CDISCPILOT01", "QS", "01-701-1047", 5032, "ACITM02", "NAMING OBJECTS AND FINGERS (REFER TO 5 C", "ADAS-COG", "", "0", "", "0", 0, "", "", "", "", "", 201.0, "RETRIEVAL", 168, "TREATMENT", "2013-07-28", 167], ["CDISCPILOT01", "QS", "01-701-1047", 5003, "ACITM03", "DELAYED WORD RECALL", "ADAS-COG", "", "10", "", "10", 10, "", "", "", "Y", "", 3.0, "BASELINE", 1, "TREATMENT", "2013-02-12", 1], ["CDISCPILOT01", "QS", "01-701-1047", 5018, "ACITM03", "DELAYED WORD RECALL", "ADAS-COG", "", "10", "", "10", 10, "", "", "", "", "", 6.0, "AMBUL ECG REMOVAL", 30, "TREATMENT", "2013-03-29", 46], ["CDISCPILOT01", "QS", "01-701-1047", 5033, "ACITM03", "DELAYED WORD RECALL", "ADAS-COG", "", "10", "", "10", 10, "", "", "", "", "", 201.0, "RETRIEVAL", 168, "TREATMENT", "2013-07-28", 167], ["CDISCPILOT01", "QS", "01-701-1047", 5004, "ACITM04", "COMMANDS", "ADAS-COG", "", "0", "", "0", 0, "", "", "", "Y", "", 3.0, "BASELINE", 1, "TREATMENT", "2013-02-12", 1], ["CDISCPILOT01", "QS", "01-701-1047", 5019, "ACITM04", "COMMANDS", "ADAS-COG", "", "0", "", "0", 0, "", "", "", "", "", 6.0, "AMBUL ECG REMOVAL", 30, "TREATMENT", "2013-03-29", 46], ["CDISCPILOT01", "QS", "01-701-1047", 5034, "ACITM04", "COMMANDS", "ADAS-COG", "", "0", "", "0", 0, "", "", "", "", "", 201.0, "RETRIEVAL", 168, "TREATMENT", "2013-07-28", 167], ["CDISCPILOT01", "QS", "01-701-1047", 5005, "ACITM05", "CONSTRUCTIONAL PRAXIS", "ADAS-COG", "", "1", "", "1", 1, "", "", "", "Y", "", 3.0, "BASELINE", 1, "TREATMENT", "2013-02-12", 1], ["CDISCPILOT01", "QS", "01-701-1047", 5020, "ACITM05", "CONSTRUCTIONAL PRAXIS", "ADAS-COG", "", "0", "", "0", 0, "", "", "", "", "", 6.0, "AMBUL ECG REMOVAL", 30, "TREATMENT", "2013-03-29", 46], ["CDISCPILOT01", "QS", "01-701-1047", 5035, "ACITM05", "CONSTRUCTIONAL PRAXIS", "ADAS-COG", "", "1", "", "1", 1, "", "", "", "", "", 201.0, "RETRIEVAL", 168, "TREATMENT", "2013-07-28", 167], ["CDISCPILOT01", "QS", "01-701-1047", 5006, "ACITM06", "IDEATIONAL PRAXIS", "ADAS-COG", "", "0", "", "0", 0, "", "", "", "Y", "", 3.0, "BASELINE", 1, "TREATMENT", "2013-02-12", 1], ["CDISCPILOT01", "QS", "01-701-1047", 5021, "ACITM06", "IDEATIONAL PRAXIS", "ADAS-COG", "", "1", "", "1", 1, "", "", "", "", "", 6.0, "AMBUL ECG REMOVAL", 30, "TREATMENT", "2013-03-29", 46], ["CDISCPILOT01", "QS", "01-701-1047", 5036, "ACITM06", "IDEATIONAL PRAXIS", "ADAS-COG", "", "0", "", "0", 0, "", "", "", "", "", 201.0, "RETRIEVAL", 168, "TREATMENT", "2013-07-28", 167], ["CDISCPILOT01", "QS", "01-701-1047", 5007, "ACITM07", "ORIENTATION", "ADAS-COG", "", "0", "", "0", 0, "", "", "", "Y", "", 3.0, "BASELINE", 1, "TREATMENT", "2013-02-12", 1], ["CDISCPILOT01", "QS", "01-701-1047", 5022, "ACITM07", "ORIENTATION", "ADAS-COG", "", "1", "", "1", 1, "", "", "", "", "", 6.0, "AMBUL ECG REMOVAL", 30, "TREATMENT", "2013-03-29", 46], ["CDISCPILOT01", "QS", "01-701-1047", 5037, "ACITM07", "ORIENTATION", "ADAS-COG", "", "2", "", "2", 2, "", "", "", "", "", 201.0, "RETRIEVAL", 168, "TREATMENT", "2013-07-28", 167], ["CDISCPILOT01", "QS", "01-701-1047", 5008, "ACITM08", "WORD RECOGNITION", "ADAS-COG", "", "3", "", "3", 3, "", "", "", "Y", "", 3.0, "BASELINE", 1, "TREATMENT", "2013-02-12", 1], ["CDISCPILOT01", "QS", "01-701-1047", 5023, "ACITM08", "WORD RECOGNITION", "ADAS-COG", "", "5", "", "5", 5, "", "", "", "", "", 6.0, "AMBUL ECG REMOVAL", 30, "TREATMENT", "2013-03-29", 46], ["CDISCPILOT01", "QS", "01-701-1047", 5038, "ACITM08", "WORD RECOGNITION", "ADAS-COG", "", "3", "", "3", 3, "", "", "", "", "", 201.0, "RETRIEVAL", 168, "TREATMENT", "2013-07-28", 167], ["CDISCPILOT01", "QS", "01-701-1047", 5009, "ACITM09", "ATTENTION/VISUAL SEARCH TASK", "ADAS-COG", "", "26", "", "26", 26, "", "", "", "Y", "", 3.0, "BASELINE", 1, "TREATMENT", "2013-02-12", 1], ["CDISCPILOT01", "QS", "01-701-1047", 5024, "ACITM09", "ATTENTION/VISUAL SEARCH TASK", "ADAS-COG", "", "37", "", "37", 37, "", "", "", "", "", 6.0, "AMBUL ECG REMOVAL", 30, "TREATMENT", "2013-03-29", 46], ["CDISCPILOT01", "QS", "01-701-1047", 5039, "ACITM09", "ATTENTION/VISUAL SEARCH TASK", "ADAS-COG", "", "33", "", "33", 33, "", "", "", "", "", 201.0, "RETRIEVAL", 168, "TREATMENT", "2013-07-28", 167], ["CDISCPILOT01", "QS", "01-701-1047", 5010, "ACITM10", "MAZE SOLUTION", "ADAS-COG", "", "7", "sec", "7", 7, "sec", "", "", "Y", "", 3.0, "BASELINE", 1, "TREATMENT", "2013-02-12", 1], ["CDISCPILOT01", "QS", "01-701-1047", 5025, "ACITM10", "MAZE SOLUTION", "ADAS-COG", "", "5", "sec", "5", 5, "sec", "", "", "", "", 6.0, "AMBUL ECG REMOVAL", 30, "TREATMENT", "2013-03-29", 46], ["CDISCPILOT01", "QS", "01-701-1047", 5040, "ACITM10", "MAZE SOLUTION", "ADAS-COG", "", "5", "sec", "5", 5, "sec", "", "", "", "", 201.0, "RETRIEVAL", 168, "TREATMENT", "2013-07-28", 167], ["CDISCPILOT01", "QS", "01-701-1047", 5011, "ACITM11", "SPOKEN LANGUAGE ABILITY", "ADAS-COG", "", "0", "", "0", 0, "", "", "", "Y", "", 3.0, "BASELINE", 1, "TREATMENT", "2013-02-12", 1], ["CDISCPILOT01", "QS", "01-701-1047", 5026, "ACITM11", "SPOKEN LANGUAGE ABILITY", "ADAS-COG", "", "0", "", "0", 0, "", "", "", "", "", 6.0, "AMBUL ECG REMOVAL", 30, "TREATMENT", "2013-03-29", 46], ["CDISCPILOT01", "QS", "01-701-1047", 5041, "ACITM11", "SPOKEN LANGUAGE ABILITY", "ADAS-COG", "", "1", "", "1", 1, "", "", "", "", "", 201.0, "RETRIEVAL", 168, "TREATMENT", "2013-07-28", 167], ["CDISCPILOT01", "QS", "01-701-1047", 5012, "ACITM12", "COMPREHENSION OF SPOKEN LANGUAGE", "ADAS-COG", "", "0", "", "0", 0, "", "", "", "Y", "", 3.0, "BASELINE", 1, "TREATMENT", "2013-02-12", 1], ["CDISCPILOT01", "QS", "01-701-1047", 5027, "ACITM12", "COMPREHENSION OF SPOKEN LANGUAGE", "ADAS-COG", "", "0", "", "0", 0, "", "", "", "", "", 6.0, "AMBUL ECG REMOVAL", 30, "TREATMENT", "2013-03-29", 46], ["CDISCPILOT01", "QS", "01-701-1047", 5042, "ACITM12", "COMPREHENSION OF SPOKEN LANGUAGE", "ADAS-COG", "", "2", "", "2", 2, "", "", "", "", "", 201.0, "RETRIEVAL", 168, "TREATMENT", "2013-07-28", 167], ["CDISCPILOT01", "QS", "01-701-1047", 5013, "ACITM13", "WORD FINDING DIFFICULTY IN SPONTANEOUS S", "ADAS-COG", "", "0", "", "0", 0, "", "", "", "Y", "", 3.0, "BASELINE", 1, "TREATMENT", "2013-02-12", 1], ["CDISCPILOT01", "QS", "01-701-1047", 5028, "ACITM13", "WORD FINDING DIFFICULTY IN SPONTANEOUS S", "ADAS-COG", "", "0", "", "0", 0, "", "", "", "", "", 6.0, "AMBUL ECG REMOVAL", 30, "TREATMENT", "2013-03-29", 46], ["CDISCPILOT01", "QS", "01-701-1047", 5043, "ACITM13", "WORD FINDING DIFFICULTY IN SPONTANEOUS S", "ADAS-COG", "", "1", "", "1", 1, "", "", "", "", "", 201.0, "RETRIEVAL", 168, "TREATMENT", "2013-07-28", 167], ["CDISCPILOT01", "QS", "01-701-1047", 5014, "ACITM14", "RECALL OF TEST INSTRUCTIONS", "ADAS-COG", "", "0", "", "0", 0, "", "", "", "Y", "", 3.0, "BASELINE", 1, "TREATMENT", "2013-02-12", 1], ["CDISCPILOT01", "QS", "01-701-1047", 5029, "ACITM14", "RECALL OF TEST INSTRUCTIONS", "ADAS-COG", "", "0", "", "0", 0, "", "", "", "", "", 6.0, "AMBUL ECG REMOVAL", 30, "TREATMENT", "2013-03-29", 46], ["CDISCPILOT01", "QS", "01-701-1047", 5044, "ACITM14", "RECALL OF TEST INSTRUCTIONS", "ADAS-COG", "", "2", "", "2", 2, "", "", "", "", "", 201.0, "RETRIEVAL", 168, "TREATMENT", "2013-07-28", 167], ["CDISCPILOT01", "QS", "01-701-1047", 5015, "ACTOT", "ADAS-COG(11) Subscore", "ADAS-COG", "", "", "", "10", 10, "", "", "", "Y", "Y", 3.0, "BASELINE", 1, "TREATMENT", "2013-02-12", 1], ["CDISCPILOT01", "QS", "01-701-1047", 5030, "ACTOT", "ADAS-COG(11) Subscore", "ADAS-COG", "", "", "", "14", 14, "", "", "", "", "Y", 6.0, "AMBUL ECG REMOVAL", 30, "TREATMENT", "2013-03-29", 46], ["CDISCPILOT01", "QS", "01-701-1047", 5045, "ACTOT", "ADAS-COG(11) Subscore", "ADAS-COG", "", "", "", "19", 19, "", "", "", "", "Y", 201.0, "RETRIEVAL", 168, "TREATMENT", "2013-07-28", 167], ["CDISCPILOT01", "QS", "01-701-1097", 5001, "ACITM01", "WORD RECALL TASK", "ADAS-COG", "", "10", "", "10", 10, "", "", "", "Y", "", 3.0, "BASELINE", 1, "TREATMENT", "2014-01-01", 1], ["CDISCPILOT01", "QS", "01-701-1097", 5016, "ACITM01", "WORD RECALL TASK", "ADAS-COG", "", "9", "", "9", 9, "", "", "", "", "", 8.0, "WEEK 8", 56, "TREATMENT", "2014-02-26", 57], ["CDISCPILOT01", "QS", "01-701-1097", 5031, "ACITM01", "WORD RECALL TASK", "ADAS-COG", "", "9", "", "9", 9, "", "", "", "", "", 10.0, "WEEK 16", 112, "TREATMENT", "2014-04-23", 113], ["CDISCPILOT01", "QS", "01-701-1097", 5046, "ACITM01", "WORD RECALL TASK", "ADAS-COG", "", "9", "", "9", 9, "", "", "", "", "", 12.0, "WEEK 24", 168, "TREATMENT", "2014-06-18", 169], ["CDISCPILOT01", "QS", "01-701-1097", 5002, "ACITM02", "NAMING OBJECTS AND FINGERS (REFER TO 5 C", "ADAS-COG", "", "5", "", "5", 5, "", "", "", "Y", "", 3.0, "BASELINE", 1, "TREATMENT", "2014-01-01", 1], ["CDISCPILOT01", "QS", "01-701-1097", 5017, "ACITM02", "NAMING OBJECTS AND FINGERS (REFER TO 5 C", "ADAS-COG", "", "5", "", "5", 5, "", "", "", "", "", 8.0, "WEEK 8", 56, "TREATMENT", "2014-02-26", 57], ["CDISCPILOT01", "QS", "01-701-1097", 5032, "ACITM02", "NAMING OBJECTS AND FINGERS (REFER TO 5 C", "ADAS-COG", "", "5", "", "5", 5, "", "", "", "", "", 10.0, "WEEK 16", 112, "TREATMENT", "2014-04-23", 113], ["CDISCPILOT01", "QS", "01-701-1097", 5047, "ACITM02", "NAMING OBJECTS AND FINGERS (REFER TO 5 C", "ADAS-COG", "", "5", "", "5", 5, "", "", "", "", "", 12.0, "WEEK 24", 168, "TREATMENT", "2014-06-18", 169], ["CDISCPILOT01", "QS", "01-701-1097", 5003, "ACITM03", "DELAYED WORD RECALL", "ADAS-COG", "", "10", "", "10", 10, "", "", "", "Y", "", 3.0, "BASELINE", 1, "TREATMENT", "2014-01-01", 1], ["CDISCPILOT01", "QS", "01-701-1097", 5018, "ACITM03", "DELAYED WORD RECALL", "ADAS-COG", "", "10", "", "10", 10, "", "", "", "", "", 8.0, "WEEK 8", 56, "TREATMENT", "2014-02-26", 57], ["CDISCPILOT01", "QS", "01-701-1097", 5033, "ACITM03", "DELAYED WORD RECALL", "ADAS-COG", "", "10", "", "10", 10, "", "", "", "", "", 10.0, "WEEK 16", 112, "TREATMENT", "2014-04-23", 113], ["CDISCPILOT01", "QS", "01-701-1097", 5048, "ACITM03", "DELAYED WORD RECALL", "ADAS-COG", "", "10", "", "10", 10, "", "", "", "", "", 12.0, "WEEK 24", 168, "TREATMENT", "2014-06-18", 169], ["CDISCPILOT01", "QS", "01-701-1097", 5004, "ACITM04", "COMMANDS", "ADAS-COG", "", "3", "", "3", 3, "", "", "", "Y", "", 3.0, "BASELINE", 1, "TREATMENT", "2014-01-01", 1], ["CDISCPILOT01", "QS", "01-701-1097", 5019, "ACITM04", "COMMANDS", "ADAS-COG", "", "1", "", "1", 1, "", "", "", "", "", 8.0, "WEEK 8", 56, "TREATMENT", "2014-02-26", 57], ["CDISCPILOT01", "QS", "01-701-1097", 5034, "ACITM04", "COMMANDS", "ADAS-COG", "", "1", "", "1", 1, "", "", "", "", "", 10.0, "WEEK 16", 112, "TREATMENT", "2014-04-23", 113], ["CDISCPILOT01", "QS", "01-701-1097", 5049, "ACITM04", "COMMANDS", "ADAS-COG", "", "3", "", "3", 3, "", "", "", "", "", 12.0, "WEEK 24", 168, "TREATMENT", "2014-06-18", 169], ["CDISCPILOT01", "QS", "01-701-1097", 5005, "ACITM05", "CONSTRUCTIONAL PRAXIS", "ADAS-COG", "", "4", "", "4", 4, "", "", "", "Y", "", 3.0, "BASELINE", 1, "TREATMENT", "2014-01-01", 1], ["CDISCPILOT01", "QS", "01-701-1097", 5020, "ACITM05", "CONSTRUCTIONAL PRAXIS", "ADAS-COG", "", "3", "", "3", 3, "", "", "", "", "", 8.0, "WEEK 8", 56, "TREATMENT", "2014-02-26", 57], ["CDISCPILOT01", "QS", "01-701-1097", 5035, "ACITM05", "CONSTRUCTIONAL PRAXIS", "ADAS-COG", "", "4", "", "4", 4, "", "", "", "", "", 10.0, "WEEK 16", 112, "TREATMENT", "2014-04-23", 113], ["CDISCPILOT01", "QS", "01-701-1097", 5050, "ACITM05", "CONSTRUCTIONAL PRAXIS", "ADAS-COG", "", "2", "", "2", 2, "", "", "", "", "", 12.0, "WEEK 24", 168, "TREATMENT", "2014-06-18", 169], ["CDISCPILOT01", "QS", "01-701-1097", 5006, "ACITM06", "IDEATIONAL PRAXIS", "ADAS-COG", "", "5", "", "5", 5, "", "", "", "Y", "", 3.0, "BASELINE", 1, "TREATMENT", "2014-01-01", 1], ["CDISCPILOT01", "QS", "01-701-1097", 5021, "ACITM06", "IDEATIONAL PRAXIS", "ADAS-COG", "", "4", "", "4", 4, "", "", "", "", "", 8.0, "WEEK 8", 56, "TREATMENT", "2014-02-26", 57], ["CDISCPILOT01", "QS", "01-701-1097", 5036, "ACITM06", "IDEATIONAL PRAXIS", "ADAS-COG", "", "4", "", "4", 4, "", "", "", "", "", 10.0, "WEEK 16", 112, "TREATMENT", "2014-04-23", 113], ["CDISCPILOT01", "QS", "01-701-1097", 5051, "ACITM06", "IDEATIONAL PRAXIS", "ADAS-COG", "", "5", "", "5", 5, "", "", "", "", "", 12.0, "WEEK 24", 168, "TREATMENT", "2014-06-18", 169], ["CDISCPILOT01", "QS", "01-701-1097", 5007, "ACITM07", "ORIENTATION", "ADAS-COG", "", "7", "", "7", 7, "", "", "", "Y", "", 3.0, "BASELINE", 1, "TREATMENT", "2014-01-01", 1], ["CDISCPILOT01", "QS", "01-701-1097", 5022, "ACITM07", "ORIENTATION", "ADAS-COG", "", "7", "", "7", 7, "", "", "", "", "", 8.0, "WEEK 8", 56, "TREATMENT", "2014-02-26", 57], ["CDISCPILOT01", "QS", "01-701-1097", 5037, "ACITM07", "ORIENTATION", "ADAS-COG", "", "7", "", "7", 7, "", "", "", "", "", 10.0, "WEEK 16", 112, "TREATMENT", "2014-04-23", 113], ["CDISCPILOT01", "QS", "01-701-1097", 5052, "ACITM07", "ORIENTATION", "ADAS-COG", "", "7", "", "7", 7, "", "", "", "", "", 12.0, "WEEK 24", 168, "TREATMENT", "2014-06-18", 169], ["CDISCPILOT01", "QS", "01-701-1097", 5008, "ACITM08", "WORD RECOGNITION", "ADAS-COG", "", "", "", "", null, "", "NOT DONE", "REFUSED TO ANSWER", "Y", "", 3.0, "BASELINE", 1, "TREATMENT", "2014-01-01", 1], ["CDISCPILOT01", "QS", "01-701-1097", 5023, "ACITM08", "WORD RECOGNITION", "ADAS-COG", "", "12", "", "12", 12, "", "", "", "", "", 8.0, "WEEK 8", 56, "TREATMENT", "2014-02-26", 57], ["CDISCPILOT01", "QS", "01-701-1097", 5038, "ACITM08", "WORD RECOGNITION", "ADAS-COG", "", "10", "", "10", 10, "", "", "", "", "", 10.0, "WEEK 16", 112, "TREATMENT", "2014-04-23", 113], ["CDISCPILOT01", "QS", "01-701-1097", 5053, "ACITM08", "WORD RECOGNITION", "ADAS-COG", "", "9", "", "9", 9, "", "", "", "", "", 12.0, "WEEK 24", 168, "TREATMENT", "2014-06-18", 169], ["CDISCPILOT01", "QS", "01-701-1097", 5009, "ACITM09", "ATTENTION/VISUAL SEARCH TASK", "ADAS-COG", "", "0", "", "0", 0, "", "", "", "Y", "", 3.0, "BASELINE", 1, "TREATMENT", "2014-01-01", 1], ["CDISCPILOT01", "QS", "01-701-1097", 5024, "ACITM09", "ATTENTION/VISUAL SEARCH TASK", "ADAS-COG", "", "5", "", "5", 5, "", "", "", "", "", 8.0, "WEEK 8", 56, "TREATMENT", "2014-02-26", 57], ["CDISCPILOT01", "QS", "01-701-1097", 5039, "ACITM09", "ATTENTION/VISUAL SEARCH TASK", "ADAS-COG", "", "4", "", "4", 4, "", "", "", "", "", 10.0, "WEEK 16", 112, "TREATMENT", "2014-04-23", 113], ["CDISCPILOT01", "QS", "01-701-1097", 5054, "ACITM09", "ATTENTION/VISUAL SEARCH TASK", "ADAS-COG", "", "5", "", "5", 5, "", "", "", "", "", 12.0, "WEEK 24", 168, "TREATMENT", "2014-06-18", 169], ["CDISCPILOT01", "QS", "01-701-1097", 5010, "ACITM10", "MAZE SOLUTION", "ADAS-COG", "", "240", "sec", "240", 240, "sec", "", "", "Y", "", 3.0, "BASELINE", 1, "TREATMENT", "2014-01-01", 1], ["CDISCPILOT01", "QS", "01-701-1097", 5025, "ACITM10", "MAZE SOLUTION", "ADAS-COG", "", "240", "sec", "240", 240, "sec", "", "", "", "", 8.0, "WEEK 8", 56, "TREATMENT", "2014-02-26", 57], ["CDISCPILOT01", "QS", "01-701-1097", 5040, "ACITM10", "MAZE SOLUTION", "ADAS-COG", "", "41", "sec", "41", 41, "sec", "", "", "", "", 10.0, "WEEK 16", 112, "TREATMENT", "2014-04-23", 113], ["CDISCPILOT01", "QS", "01-701-1097", 5055, "ACITM10", "MAZE SOLUTION", "ADAS-COG", "", "11", "sec", "11", 11, "sec", "", "", "", "", 12.0, "WEEK 24", 168, "TREATMENT", "2014-06-18", 169], ["CDISCPILOT01", "QS", "01-701-1097", 5011, "ACITM11", "SPOKEN LANGUAGE ABILITY", "ADAS-COG", "", "3", "", "3", 3, "", "", "", "Y", "", 3.0, "BASELINE", 1, "TREATMENT", "2014-01-01", 1], ["CDISCPILOT01", "QS", "01-701-1097", 5026, "ACITM11", "SPOKEN LANGUAGE ABILITY", "ADAS-COG", "", "3", "", "3", 3, "", "", "", "", "", 8.0, "WEEK 8", 56, "TREATMENT", "2014-02-26", 57], ["CDISCPILOT01", "QS", "01-701-1097", 5041, "ACITM11", "SPOKEN LANGUAGE ABILITY", "ADAS-COG", "", "3", "", "3", 3, "", "", "", "", "", 10.0, "WEEK 16", 112, "TREATMENT", "2014-04-23", 113], ["CDISCPILOT01", "QS", "01-701-1097", 5056, "ACITM11", "SPOKEN LANGUAGE ABILITY", "ADAS-COG", "", "2", "", "2", 2, "", "", "", "", "", 12.0, "WEEK 24", 168, "TREATMENT", "2014-06-18", 169], ["CDISCPILOT01", "QS", "01-701-1097", 5012, "ACITM12", "COMPREHENSION OF SPOKEN LANGUAGE", "ADAS-COG", "", "3", "", "3", 3, "", "", "", "Y", "", 3.0, "BASELINE", 1, "TREATMENT", "2014-01-01", 1], ["CDISCPILOT01", "QS", "01-701-1097", 5027, "ACITM12", "COMPREHENSION OF SPOKEN LANGUAGE", "ADAS-COG", "", "2", "", "2", 2, "", "", "", "", "", 8.0, "WEEK 8", 56, "TREATMENT", "2014-02-26", 57], ["CDISCPILOT01", "QS", "01-701-1097", 5042, "ACITM12", "COMPREHENSION OF SPOKEN LANGUAGE", "ADAS-COG", "", "2", "", "2", 2, "", "", "", "", "", 10.0, "WEEK 16", 112, "TREATMENT", "2014-04-23", 113], ["CDISCPILOT01", "QS", "01-701-1097", 5057, "ACITM12", "COMPREHENSION OF SPOKEN LANGUAGE", "ADAS-COG", "", "3", "", "3", 3, "", "", "", "", "", 12.0, "WEEK 24", 168, "TREATMENT", "2014-06-18", 169], ["CDISCPILOT01", "QS", "01-701-1097", 5013, "ACITM13", "WORD FINDING DIFFICULTY IN SPONTANEOUS S", "ADAS-COG", "", "4", "", "4", 4, "", "", "", "Y", "", 3.0, "BASELINE", 1, "TREATMENT", "2014-01-01", 1], ["CDISCPILOT01", "QS", "01-701-1097", 5028, "ACITM13", "WORD FINDING DIFFICULTY IN SPONTANEOUS S", "ADAS-COG", "", "4", "", "4", 4, "", "", "", "", "", 8.0, "WEEK 8", 56, "TREATMENT", "2014-02-26", 57], ["CDISCPILOT01", "QS", "01-701-1097", 5043, "ACITM13", "WORD FINDING DIFFICULTY IN SPONTANEOUS S", "ADAS-COG", "", "2", "", "2", 2, "", "", "", "", "", 10.0, "WEEK 16", 112, "TREATMENT", "2014-04-23", 113], ["CDISCPILOT01", "QS", "01-701-1097", 5058, "ACITM13", "WORD FINDING DIFFICULTY IN SPONTANEOUS S", "ADAS-COG", "", "2", "", "2", 2, "", "", "", "", "", 12.0, "WEEK 24", 168, "TREATMENT", "2014-06-18", 169], ["CDISCPILOT01", "QS", "01-701-1097", 5014, "ACITM14", "RECALL OF TEST INSTRUCTIONS", "ADAS-COG", "", "3", "", "3", 3, "", "", "", "Y", "", 3.0, "BASELINE", 1, "TREATMENT", "2014-01-01", 1], ["CDISCPILOT01", "QS", "01-701-1097", 5029, "ACITM14", "RECALL OF TEST INSTRUCTIONS", "ADAS-COG", "", "4", "", "4", 4, "", "", "", "", "", 8.0, "WEEK 8", 56, "TREATMENT", "2014-02-26", 57], ["CDISCPILOT01", "QS", "01-701-1097", 5044, "ACITM14", "RECALL OF TEST INSTRUCTIONS", "ADAS-COG", "", "2", "", "2", 2, "", "", "", "", "", 10.0, "WEEK 16", 112, "TREATMENT", "2014-04-23", 113], ["CDISCPILOT01", "QS", "01-701-1097", 5059, "ACITM14", "RECALL OF TEST INSTRUCTIONS", "ADAS-COG", "", "4", "", "4", 4, "", "", "", "", "", 12.0, "WEEK 24", 168, "TREATMENT", "2014-06-18", 169], ["CDISCPILOT01", "QS", "01-701-1097", 5015, "ACTOT", "ADAS-COG(11) Subscore", "ADAS-COG", "", "", "", "56.7", 56, "", "", "", "Y", "Y", 3.0, "BASELINE", 1, "TREATMENT", "2014-01-01", 1], ["CDISCPILOT01", "QS", "01-701-1097", 5030, "ACTOT", "ADAS-COG(11) Subscore", "ADAS-COG", "", "", "", "54", 54, "", "", "", "", "Y", 8.0, "WEEK 8", 56, "TREATMENT", "2014-02-26", 57], ["CDISCPILOT01", "QS", "01-701-1097", 5045, "ACTOT", "ADAS-COG(11) Subscore", "ADAS-COG", "", "", "", "49", 49, "", "", "", "", "Y", 10.0, "WEEK 16", 112, "TREATMENT", "2014-04-23", 113], ["CDISCPILOT01", "QS", "01-701-1097", 5060, "ACTOT", "ADAS-COG(11) Subscore", "ADAS-COG", "", "", "", "51", 51, "", "", "", "", "Y", 12.0, "WEEK 24", 168, "TREATMENT", "2014-06-18", 169], ["CDISCPILOT01", "QS", "01-701-1111", 5001, "ACITM01", "WORD RECALL TASK", "ADAS-COG", "", "5", "", "5", 5, "", "", "", "Y", "", 3.0, "BASELINE", 1, "TREATMENT", "2012-09-07", 1], ["CDISCPILOT01", "QS", "01-701-1111", 5016, "ACITM01", "WORD RECALL TASK", "ADAS-COG", "", "4", "", "4", 4, "", "", "", "", "", 4.0, "WEEK 2", 14, "TREATMENT", "2012-09-17", 11], ["CDISCPILOT01", "QS", "01-701-1111", 5031, "ACITM01", "WORD RECALL TASK", "ADAS-COG", "", "5", "", "5", 5, "", "", "", "", "", 201.0, "RETRIEVAL", 168, "TREATMENT", "2013-02-22", 169], ["CDISCPILOT01", "QS", "01-701-1111", 5002, "ACITM02", "NAMING OBJECTS AND FINGERS (REFER TO 5 C", "ADAS-COG", "", "0", "", "0", 0, "", "", "", "Y", "", 3.0, "BASELINE", 1, "TREATMENT", "2012-09-07", 1], ["CDISCPILOT01", "QS", "01-701-1111", 5017, "ACITM02", "NAMING OBJECTS AND FINGERS (REFER TO 5 C", "ADAS-COG", "", "0", "", "0", 0, "", "", "", "", "", 4.0, "WEEK 2", 14, "TREATMENT", "2012-09-17", 11], ["CDISCPILOT01", "QS", "01-701-1111", 5032, "ACITM02", "NAMING OBJECTS AND FINGERS (REFER TO 5 C", "ADAS-COG", "", "0", "", "0", 0, "", "", "", "", "", 201.0, "RETRIEVAL", 168, "TREATMENT", "2013-02-22", 169], ["CDISCPILOT01", "QS", "01-701-1111", 5003, "ACITM03", "DELAYED WORD RECALL", "ADAS-COG", "", "6", "", "6", 6, "", "", "", "Y", "", 3.0, "BASELINE", 1, "TREATMENT", "2012-09-07", 1], ["CDISCPILOT01", "QS", "01-701-1111", 5018, "ACITM03", "DELAYED WORD RECALL", "ADAS-COG", "", "4", "", "4", 4, "", "", "", "", "", 4.0, "WEEK 2", 14, "TREATMENT", "2012-09-17", 11], ["CDISCPILOT01", "QS", "01-701-1111", 5033, "ACITM03", "DELAYED WORD RECALL", "ADAS-COG", "", "5", "", "5", 5, "", "", "", "", "", 201.0, "RETRIEVAL", 168, "TREATMENT", "2013-02-22", 169], ["CDISCPILOT01", "QS", "01-701-1111", 5004, "ACITM04", "COMMANDS", "ADAS-COG", "", "0", "", "0", 0, "", "", "", "Y", "", 3.0, "BASELINE", 1, "TREATMENT", "2012-09-07", 1], ["CDISCPILOT01", "QS", "01-701-1111", 5019, "ACITM04", "COMMANDS", "ADAS-COG", "", "0", "", "0", 0, "", "", "", "", "", 4.0, "WEEK 2", 14, "TREATMENT", "2012-09-17", 11], ["CDISCPILOT01", "QS", "01-701-1111", 5034, "ACITM04", "COMMANDS", "ADAS-COG", "", "0", "", "0", 0, "", "", "", "", "", 201.0, "RETRIEVAL", 168, "TREATMENT", "2013-02-22", 169], ["CDISCPILOT01", "QS", "01-701-1111", 5005, "ACITM05", "CONSTRUCTIONAL PRAXIS", "ADAS-COG", "", "0", "", "0", 0, "", "", "", "Y", "", 3.0, "BASELINE", 1, "TREATMENT", "2012-09-07", 1], ["CDISCPILOT01", "QS", "01-701-1111", 5020, "ACITM05", "CONSTRUCTIONAL PRAXIS", "ADAS-COG", "", "0", "", "0", 0, "", "", "", "", "", 4.0, "WEEK 2", 14, "TREATMENT", "2012-09-17", 11], ["CDISCPILOT01", "QS", "01-701-1111", 5035, "ACITM05", "CONSTRUCTIONAL PRAXIS", "ADAS-COG", "", "0", "", "0", 0, "", "", "", "", "", 201.0, "RETRIEVAL", 168, "TREATMENT", "2013-02-22", 169], ["CDISCPILOT01", "QS", "01-701-1111", 5006, "ACITM06", "IDEATIONAL PRAXIS", "ADAS-COG", "", "1", "", "1", 1, "", "", "", "Y", "", 3.0, "BASELINE", 1, "TREATMENT", "2012-09-07", 1], ["CDISCPILOT01", "QS", "01-701-1111", 5021, "ACITM06", "IDEATIONAL PRAXIS", "ADAS-COG", "", "0", "", "0", 0, "", "", "", "", "", 4.0, "WEEK 2", 14, "TREATMENT", "2012-09-17", 11], ["CDISCPILOT01", "QS", "01-701-1111", 5036, "ACITM06", "IDEATIONAL PRAXIS", "ADAS-COG", "", "0", "", "0", 0, "", "", "", "", "", 201.0, "RETRIEVAL", 168, "TREATMENT", "2013-02-22", 169], ["CDISCPILOT01", "QS", "01-701-1111", 5007, "ACITM07", "ORIENTATION", "ADAS-COG", "", "0", "", "0", 0, "", "", "", "Y", "", 3.0, "BASELINE", 1, "TREATMENT", "2012-09-07", 1], ["CDISCPILOT01", "QS", "01-701-1111", 5022, "ACITM07", "ORIENTATION", "ADAS-COG", "", "0", "", "0", 0, "", "", "", "", "", 4.0, "WEEK 2", 14, "TREATMENT", "2012-09-17", 11], ["CDISCPILOT01", "QS", "01-701-1111", 5037, "ACITM07", "ORIENTATION", "ADAS-COG", "", "1", "", "1", 1, "", "", "", "", "", 201.0, "RETRIEVAL", 168, "TREATMENT", "2013-02-22", 169], ["CDISCPILOT01", "QS", "01-701-1111", 5008, "ACITM08", "WORD RECOGNITION", "ADAS-COG", "", "1", "", "1", 1, "", "", "", "Y", "", 3.0, "BASELINE", 1, "TREATMENT", "2012-09-07", 1], ["CDISCPILOT01", "QS", "01-701-1111", 5023, "ACITM08", "WORD RECOGNITION", "ADAS-COG", "", "1", "", "1", 1, "", "", "", "", "", 4.0, "WEEK 2", 14, "TREATMENT", "2012-09-17", 11], ["CDISCPILOT01", "QS", "01-701-1111", 5038, "ACITM08", "WORD RECOGNITION", "ADAS-COG", "", "3", "", "3", 3, "", "", "", "", "", 201.0, "RETRIEVAL", 168, "TREATMENT", "2013-02-22", 169], ["CDISCPILOT01", "QS", "01-701-1111", 5009, "ACITM09", "ATTENTION/VISUAL SEARCH TASK", "ADAS-COG", "", "31", "", "31", 31, "", "", "", "Y", "", 3.0, "BASELINE", 1, "TREATMENT", "2012-09-07", 1], ["CDISCPILOT01", "QS", "01-701-1111", 5024, "ACITM09", "ATTENTION/VISUAL SEARCH TASK", "ADAS-COG", "", "24", "", "24", 24, "", "", "", "", "", 4.0, "WEEK 2", 14, "TREATMENT", "2012-09-17", 11], ["CDISCPILOT01", "QS", "01-701-1111", 5039, "ACITM09", "ATTENTION/VISUAL SEARCH TASK", "ADAS-COG", "", "31", "", "31", 31, "", "", "", "", "", 201.0, "RETRIEVAL", 168, "TREATMENT", "2013-02-22", 169], ["CDISCPILOT01", "QS", "01-701-1111", 5010, "ACITM10", "MAZE SOLUTION", "ADAS-COG", "", "3", "sec", "3", 3, "sec", "", "", "Y", "", 3.0, "BASELINE", 1, "TREATMENT", "2012-09-07", 1], ["CDISCPILOT01", "QS", "01-701-1111", 5025, "ACITM10", "MAZE SOLUTION", "ADAS-COG", "", "7", "sec", "7", 7, "sec", "", "", "", "", 4.0, "WEEK 2", 14, "TREATMENT", "2012-09-17", 11], ["CDISCPILOT01", "QS", "01-701-1111", 5040, "ACITM10", "MAZE SOLUTION", "ADAS-COG", "", "7", "sec", "7", 7, "sec", "", "", "", "", 201.0, "RETRIEVAL", 168, "TREATMENT", "2013-02-22", 169], ["CDISCPILOT01", "QS", "01-701-1111", 5011, "ACITM11", "SPOKEN LANGUAGE ABILITY", "ADAS-COG", "", "0", "", "0", 0, "", "", "", "Y", "", 3.0, "BASELINE", 1, "TREATMENT", "2012-09-07", 1], ["CDISCPILOT01", "QS", "01-701-1111", 5026, "ACITM11", "SPOKEN LANGUAGE ABILITY", "ADAS-COG", "", "0", "", "0", 0, "", "", "", "", "", 4.0, "WEEK 2", 14, "TREATMENT", "2012-09-17", 11], ["CDISCPILOT01", "QS", "01-701-1111", 5041, "ACITM11", "SPOKEN LANGUAGE ABILITY", "ADAS-COG", "", "0", "", "0", 0, "", "", "", "", "", 201.0, "RETRIEVAL", 168, "TREATMENT", "2013-02-22", 169], ["CDISCPILOT01", "QS", "01-701-1111", 5012, "ACITM12", "COMPREHENSION OF SPOKEN LANGUAGE", "ADAS-COG", "", "0", "", "0", 0, "", "", "", "Y", "", 3.0, "BASELINE", 1, "TREATMENT", "2012-09-07", 1], ["CDISCPILOT01", "QS", "01-701-1111", 5027, "ACITM12", "COMPREHENSION OF SPOKEN LANGUAGE", "ADAS-COG", "", "0", "", "0", 0, "", "", "", "", "", 4.0, "WEEK 2", 14, "TREATMENT", "2012-09-17", 11], ["CDISCPILOT01", "QS", "01-701-1111", 5042, "ACITM12", "COMPREHENSION OF SPOKEN LANGUAGE", "ADAS-COG", "", "0", "", "0", 0, "", "", "", "", "", 201.0, "RETRIEVAL", 168, "TREATMENT", "2013-02-22", 169], ["CDISCPILOT01", "QS", "01-701-1111", 5013, "ACITM13", "WORD FINDING DIFFICULTY IN SPONTANEOUS S", "ADAS-COG", "", "0", "", "0", 0, "", "", "", "Y", "", 3.0, "BASELINE", 1, "TREATMENT", "2012-09-07", 1], ["CDISCPILOT01", "QS", "01-701-1111", 5028, "ACITM13", "WORD FINDING DIFFICULTY IN SPONTANEOUS S", "ADAS-COG", "", "0", "", "0", 0, "", "", "", "", "", 4.0, "WEEK 2", 14, "TREATMENT", "2012-09-17", 11], ["CDISCPILOT01", "QS", "01-701-1111", 5043, "ACITM13", "WORD FINDING DIFFICULTY IN SPONTANEOUS S", "ADAS-COG", "", "0", "", "0", 0, "", "", "", "", "", 201.0, "RETRIEVAL", 168, "TREATMENT", "2013-02-22", 169], ["CDISCPILOT01", "QS", "01-701-1111", 5014, "ACITM14", "RECALL OF TEST INSTRUCTIONS", "ADAS-COG", "", "0", "", "0", 0, "", "", "", "Y", "", 3.0, "BASELINE", 1, "TREATMENT", "2012-09-07", 1], ["CDISCPILOT01", "QS", "01-701-1111", 5029, "ACITM14", "RECALL OF TEST INSTRUCTIONS", "ADAS-COG", "", "0", "", "0", 0, "", "", "", "", "", 4.0, "WEEK 2", 14, "TREATMENT", "2012-09-17", 11], ["CDISCPILOT01", "QS", "01-701-1111", 5044, "ACITM14", "RECALL OF TEST INSTRUCTIONS", "ADAS-COG", "", "0", "", "0", 0, "", "", "", "", "", 201.0, "RETRIEVAL", 168, "TREATMENT", "2013-02-22", 169], ["CDISCPILOT01", "QS", "01-701-1111", 5015, "ACTOT", "ADAS-COG(11) Subscore", "ADAS-COG", "", "", "", "7", 7, "", "", "", "Y", "Y", 3.0, "BASELINE", 1, "TREATMENT", "2012-09-07", 1], ["CDISCPILOT01", "QS", "01-701-1111", 5030, "ACTOT", "ADAS-COG(11) Subscore", "ADAS-COG", "", "", "", "5", 5, "", "", "", "", "Y", 4.0, "WEEK 2", 14, "TREATMENT", "2012-09-17", 11], ["CDISCPILOT01", "QS", "01-701-1111", 5045, "ACTOT", "ADAS-COG(11) Subscore", "ADAS-COG", "", "", "", "9", 9, "", "", "", "", "Y", 201.0, "RETRIEVAL", 168, "TREATMENT", "2013-02-22", 169], ["CDISCPILOT01", "QS", "01-701-1115", 5001, "ACITM01", "WORD RECALL TASK", "ADAS-COG", "", "6", "", "6", 6, "", "", "", "Y", "", 3.0, "BASELINE", 1, "TREATMENT", "2012-11-30", 1], ["CDISCPILOT01", "QS", "01-701-1115", 5016, "ACITM01", "WORD RECALL TASK", "ADAS-COG", "", "6", "", "6", 6, "", "", "", "", "", 8.0, "WEEK 8", 56, "TREATMENT", "2013-01-23", 55], ["CDISCPILOT01", "QS", "01-701-1115", 5031, "ACITM01", "WORD RECALL TASK", "ADAS-COG", "", "6", "", "6", 6, "", "", "", "", "", 201.0, "RETRIEVAL", 168, "TREATMENT", "2013-05-20", 172], ["CDISCPILOT01", "QS", "01-701-1115", 5002, "ACITM02", "NAMING OBJECTS AND FINGERS (REFER TO 5 C", "ADAS-COG", "", "0", "", "0", 0, "", "", "", "Y", "", 3.0, "BASELINE", 1, "TREATMENT", "2012-11-30", 1], ["CDISCPILOT01", "QS", "01-701-1115", 5017, "ACITM02", "NAMING OBJECTS AND FINGERS (REFER TO 5 C", "ADAS-COG", "", "1", "", "1", 1, "", "", "", "", "", 8.0, "WEEK 8", 56, "TREATMENT", "2013-01-23", 55], ["CDISCPILOT01", "QS", "01-701-1115", 5032, "ACITM02", "NAMING OBJECTS AND FINGERS (REFER TO 5 C", "ADAS-COG", "", "0", "", "0", 0, "", "", "", "", "", 201.0, "RETRIEVAL", 168, "TREATMENT", "2013-05-20", 172], ["CDISCPILOT01", "QS", "01-701-1115", 5003, "ACITM03", "DELAYED WORD RECALL", "ADAS-COG", "", "6", "", "6", 6, "", "", "", "Y", "", 3.0, "BASELINE", 1, "TREATMENT", "2012-11-30", 1], ["CDISCPILOT01", "QS", "01-701-1115", 5018, "ACITM03", "DELAYED WORD RECALL", "ADAS-COG", "", "6", "", "6", 6, "", "", "", "", "", 8.0, "WEEK 8", 56, "TREATMENT", "2013-01-23", 55], ["CDISCPILOT01", "QS", "01-701-1115", 5033, "ACITM03", "DELAYED WORD RECALL", "ADAS-COG", "", "7", "", "7", 7, "", "", "", "", "", 201.0, "RETRIEVAL", 168, "TREATMENT", "2013-05-20", 172], ["CDISCPILOT01", "QS", "01-701-1115", 5004, "ACITM04", "COMMANDS", "ADAS-COG", "", "0", "", "0", 0, "", "", "", "Y", "", 3.0, "BASELINE", 1, "TREATMENT", "2012-11-30", 1], ["CDISCPILOT01", "QS", "01-701-1115", 5019, "ACITM04", "COMMANDS", "ADAS-COG", "", "0", "", "0", 0, "", "", "", "", "", 8.0, "WEEK 8", 56, "TREATMENT", "2013-01-23", 55], ["CDISCPILOT01", "QS", "01-701-1115", 5034, "ACITM04", "COMMANDS", "ADAS-COG", "", "0", "", "0", 0, "", "", "", "", "", 201.0, "RETRIEVAL", 168, "TREATMENT", "2013-05-20", 172], ["CDISCPILOT01", "QS", "01-701-1115", 5005, "ACITM05", "CONSTRUCTIONAL PRAXIS", "ADAS-COG", "", "1", "", "1", 1, "", "", "", "Y", "", 3.0, "BASELINE", 1, "TREATMENT", "2012-11-30", 1], ["CDISCPILOT01", "QS", "01-701-1115", 5020, "ACITM05", "CONSTRUCTIONAL PRAXIS", "ADAS-COG", "", "1", "", "1", 1, "", "", "", "", "", 8.0, "WEEK 8", 56, "TREATMENT", "2013-01-23", 55], ["CDISCPILOT01", "QS", "01-701-1115", 5035, "ACITM05", "CONSTRUCTIONAL PRAXIS", "ADAS-COG", "", "1", "", "1", 1, "", "", "", "", "", 201.0, "RETRIEVAL", 168, "TREATMENT", "2013-05-20", 172], ["CDISCPILOT01", "QS", "01-701-1115", 5006, "ACITM06", "IDEATIONAL PRAXIS", "ADAS-COG", "", "1", "", "1", 1, "", "", "", "Y", "", 3.0, "BASELINE", 1, "TREATMENT", "2012-11-30", 1], ["CDISCPILOT01", "QS", "01-701-1115", 5021, "ACITM06", "IDEATIONAL PRAXIS", "ADAS-COG", "", "0", "", "0", 0, "", "", "", "", "", 8.0, "WEEK 8", 56, "TREATMENT", "2013-01-23", 55], ["CDISCPILOT01", "QS", "01-701-1115", 5036, "ACITM06", "IDEATIONAL PRAXIS", "ADAS-COG", "", "0", "", "0", 0, "", "", "", "", "", 201.0, "RETRIEVAL", 168, "TREATMENT", "2013-05-20", 172], ["CDISCPILOT01", "QS", "01-701-1115", 5007, "ACITM07", "ORIENTATION", "ADAS-COG", "", "1", "", "1", 1, "", "", "", "Y", "", 3.0, "BASELINE", 1, "TREATMENT", "2012-11-30", 1], ["CDISCPILOT01", "QS", "01-701-1115", 5022, "ACITM07", "ORIENTATION", "ADAS-COG", "", "1", "", "1", 1, "", "", "", "", "", 8.0, "WEEK 8", 56, "TREATMENT", "2013-01-23", 55], ["CDISCPILOT01", "QS", "01-701-1115", 5037, "ACITM07", "ORIENTATION", "ADAS-COG", "", "2", "", "2", 2, "", "", "", "", "", 201.0, "RETRIEVAL", 168, "TREATMENT", "2013-05-20", 172], ["CDISCPILOT01", "QS", "01-701-1115", 5008, "ACITM08", "WORD RECOGNITION", "ADAS-COG", "", "1", "", "1", 1, "", "", "", "Y", "", 3.0, "BASELINE", 1, "TREATMENT", "2012-11-30", 1], ["CDISCPILOT01", "QS", "01-701-1115", 5023, "ACITM08", "WORD RECOGNITION", "ADAS-COG", "", "5", "", "5", 5, "", "", "", "", "", 8.0, "WEEK 8", 56, "TREATMENT", "2013-01-23", 55], ["CDISCPILOT01", "QS", "01-701-1115", 5038, "ACITM08", "WORD RECOGNITION", "ADAS-COG", "", "1", "", "1", 1, "", "", "", "", "", 201.0, "RETRIEVAL", 168, "TREATMENT", "2013-05-20", 172], ["CDISCPILOT01", "QS", "01-701-1115", 5009, "ACITM09", "ATTENTION/VISUAL SEARCH TASK", "ADAS-COG", "", "26", "", "26", 26, "", "", "", "Y", "", 3.0, "BASELINE", 1, "TREATMENT", "2012-11-30", 1], ["CDISCPILOT01", "QS", "01-701-1115", 5024, "ACITM09", "ATTENTION/VISUAL SEARCH TASK", "ADAS-COG", "", "23", "", "23", 23, "", "", "", "", "", 8.0, "WEEK 8", 56, "TREATMENT", "2013-01-23", 55], ["CDISCPILOT01", "QS", "01-701-1115", 5039, "ACITM09", "ATTENTION/VISUAL SEARCH TASK", "ADAS-COG", "", "24", "", "24", 24, "", "", "", "", "", 201.0, "RETRIEVAL", 168, "TREATMENT", "2013-05-20", 172], ["CDISCPILOT01", "QS", "01-701-1115", 5010, "ACITM10", "MAZE SOLUTION", "ADAS-COG", "", "3", "sec", "3", 3, "sec", "", "", "Y", "", 3.0, "BASELINE", 1, "TREATMENT", "2012-11-30", 1], ["CDISCPILOT01", "QS", "01-701-1115", 5025, "ACITM10", "MAZE SOLUTION", "ADAS-COG", "", "6", "sec", "6", 6, "sec", "", "", "", "", 8.0, "WEEK 8", 56, "TREATMENT", "2013-01-23", 55], ["CDISCPILOT01", "QS", "01-701-1115", 5040, "ACITM10", "MAZE SOLUTION", "ADAS-COG", "", "7", "sec", "7", 7, "sec", "", "", "", "", 201.0, "RETRIEVAL", 168, "TREATMENT", "2013-05-20", 172], ["CDISCPILOT01", "QS", "01-701-1115", 5011, "ACITM11", "SPOKEN LANGUAGE ABILITY", "ADAS-COG", "", "0", "", "0", 0, "", "", "", "Y", "", 3.0, "BASELINE", 1, "TREATMENT", "2012-11-30", 1], ["CDISCPILOT01", "QS", "01-701-1115", 5026, "ACITM11", "SPOKEN LANGUAGE ABILITY", "ADAS-COG", "", "0", "", "0", 0, "", "", "", "", "", 8.0, "WEEK 8", 56, "TREATMENT", "2013-01-23", 55], ["CDISCPILOT01", "QS", "01-701-1115", 5041, "ACITM11", "SPOKEN LANGUAGE ABILITY", "ADAS-COG", "", "0", "", "0", 0, "", "", "", "", "", 201.0, "RETRIEVAL", 168, "TREATMENT", "2013-05-20", 172], ["CDISCPILOT01", "QS", "01-701-1115", 5012, "ACITM12", "COMPREHENSION OF SPOKEN LANGUAGE", "ADAS-COG", "", "0", "", "0", 0, "", "", "", "Y", "", 3.0, "BASELINE", 1, "TREATMENT", "2012-11-30", 1], ["CDISCPILOT01", "QS", "01-701-1115", 5027, "ACITM12", "COMPREHENSION OF SPOKEN LANGUAGE", "ADAS-COG", "", "0", "", "0", 0, "", "", "", "", "", 8.0, "WEEK 8", 56, "TREATMENT", "2013-01-23", 55], ["CDISCPILOT01", "QS", "01-701-1115", 5042, "ACITM12", "COMPREHENSION OF SPOKEN LANGUAGE", "ADAS-COG", "", "0", "", "0", 0, "", "", "", "", "", 201.0, "RETRIEVAL", 168, "TREATMENT", "2013-05-20", 172], ["CDISCPILOT01", "QS", "01-701-1115", 5013, "ACITM13", "WORD FINDING DIFFICULTY IN SPONTANEOUS S", "ADAS-COG", "", "0", "", "0", 0, "", "", "", "Y", "", 3.0, "BASELINE", 1, "TREATMENT", "2012-11-30", 1], ["CDISCPILOT01", "QS", "01-701-1115", 5028, "ACITM13", "WORD FINDING DIFFICULTY IN SPONTANEOUS S", "ADAS-COG", "", "0", "", "0", 0, "", "", "", "", "", 8.0, "WEEK 8", 56, "TREATMENT", "2013-01-23", 55], ["CDISCPILOT01", "QS", "01-701-1115", 5043, "ACITM13", "WORD FINDING DIFFICULTY IN SPONTANEOUS S", "ADAS-COG", "", "0", "", "0", 0, "", "", "", "", "", 201.0, "RETRIEVAL", 168, "TREATMENT", "2013-05-20", 172], ["CDISCPILOT01", "QS", "01-701-1115", 5014, "ACITM14", "RECALL OF TEST INSTRUCTIONS", "ADAS-COG", "", "0", "", "0", 0, "", "", "", "Y", "", 3.0, "BASELINE", 1, "TREATMENT", "2012-11-30", 1], ["CDISCPILOT01", "QS", "01-701-1115", 5029, "ACITM14", "RECALL OF TEST INSTRUCTIONS", "ADAS-COG", "", "0", "", "0", 0, "", "", "", "", "", 8.0, "WEEK 8", 56, "TREATMENT", "2013-01-23", 55], ["CDISCPILOT01", "QS", "01-701-1115", 5044, "ACITM14", "RECALL OF TEST INSTRUCTIONS", "ADAS-COG", "", "0", "", "0", 0, "", "", "", "", "", 201.0, "RETRIEVAL", 168, "TREATMENT", "2013-05-20", 172], ["CDISCPILOT01", "QS", "01-701-1115", 5015, "ACTOT", "ADAS-COG(11) Subscore", "ADAS-COG", "", "", "", "10", 10, "", "", "", "Y", "Y", 3.0, "BASELINE", 1, "TREATMENT", "2012-11-30", 1], ["CDISCPILOT01", "QS", "01-701-1115", 5030, "ACTOT", "ADAS-COG(11) Subscore", "ADAS-COG", "", "", "", "14", 14, "", "", "", "", "Y", 8.0, "WEEK 8", 56, "TREATMENT", "2013-01-23", 55], ["CDISCPILOT01", "QS", "01-701-1115", 5045, "ACTOT", "ADAS-COG(11) Subscore", "ADAS-COG", "", "", "", "10", 10, "", "", "", "", "Y", 201.0, "RETRIEVAL", 168, "TREATMENT", "2013-05-20", 172], ["CDISCPILOT01", "QS", "01-701-1118", 5001, "ACITM01", "WORD RECALL TASK", "ADAS-COG", "", "5", "", "5", 5, "", "", "", "Y", "", 3.0, "BASELINE", 1, "TREATMENT", "2014-03-12", 1], ["CDISCPILOT01", "QS", "01-701-1118", 5016, "ACITM01", "WORD RECALL TASK", "ADAS-COG", "", "5", "", "5", 5, "", "", "", "", "", 8.0, "WEEK 8", 56, "TREATMENT", "2014-05-08", 58], ["CDISCPILOT01", "QS", "01-701-1118", 5031, "ACITM01", "WORD RECALL TASK", "ADAS-COG", "", "4", "", "4", 4, "", "", "", "", "", 10.0, "WEEK 16", 112, "TREATMENT", "2014-07-02", 113], ["CDISCPILOT01", "QS", "01-701-1118", 5046, "ACITM01", "WORD RECALL TASK", "ADAS-COG", "", "5", "", "5", 5, "", "", "", "", "", 12.0, "WEEK 24", 168, "TREATMENT", "2014-08-27", 169], ["CDISCPILOT01", "QS", "01-701-1118", 5002, "ACITM02", "NAMING OBJECTS AND FINGERS (REFER TO 5 C", "ADAS-COG", "", "1", "", "1", 1, "", "", "", "Y", "", 3.0, "BASELINE", 1, "TREATMENT", "2014-03-12", 1], ["CDISCPILOT01", "QS", "01-701-1118", 5017, "ACITM02", "NAMING OBJECTS AND FINGERS (REFER TO 5 C", "ADAS-COG", "", "0", "", "0", 0, "", "", "", "", "", 8.0, "WEEK 8", 56, "TREATMENT", "2014-05-08", 58], ["CDISCPILOT01", "QS", "01-701-1118", 5032, "ACITM02", "NAMING OBJECTS AND FINGERS (REFER TO 5 C", "ADAS-COG", "", "0", "", "0", 0, "", "", "", "", "", 10.0, "WEEK 16", 112, "TREATMENT", "2014-07-02", 113], ["CDISCPILOT01", "QS", "01-701-1118", 5047, "ACITM02", "NAMING OBJECTS AND FINGERS (REFER TO 5 C", "ADAS-COG", "", "0", "", "0", 0, "", "", "", "", "", 12.0, "WEEK 24", 168, "TREATMENT", "2014-08-27", 169], ["CDISCPILOT01", "QS", "01-701-1118", 5003, "ACITM03", "DELAYED WORD RECALL", "ADAS-COG", "", "10", "", "10", 10, "", "", "", "Y", "", 3.0, "BASELINE", 1, "TREATMENT", "2014-03-12", 1], ["CDISCPILOT01", "QS", "01-701-1118", 5018, "ACITM03", "DELAYED WORD RECALL", "ADAS-COG", "", "7", "", "7", 7, "", "", "", "", "", 8.0, "WEEK 8", 56, "TREATMENT", "2014-05-08", 58], ["CDISCPILOT01", "QS", "01-701-1118", 5033, "ACITM03", "DELAYED WORD RECALL", "ADAS-COG", "", "6", "", "6", 6, "", "", "", "", "", 10.0, "WEEK 16", 112, "TREATMENT", "2014-07-02", 113], ["CDISCPILOT01", "QS", "01-701-1118", 5048, "ACITM03", "DELAYED WORD RECALL", "ADAS-COG", "", "8", "", "8", 8, "", "", "", "", "", 12.0, "WEEK 24", 168, "TREATMENT", "2014-08-27", 169], ["CDISCPILOT01", "QS", "01-701-1118", 5004, "ACITM04", "COMMANDS", "ADAS-COG", "", "0", "", "0", 0, "", "", "", "Y", "", 3.0, "BASELINE", 1, "TREATMENT", "2014-03-12", 1], ["CDISCPILOT01", "QS", "01-701-1118", 5019, "ACITM04", "COMMANDS", "ADAS-COG", "", "0", "", "0", 0, "", "", "", "", "", 8.0, "WEEK 8", 56, "TREATMENT", "2014-05-08", 58], ["CDISCPILOT01", "QS", "01-701-1118", 5034, "ACITM04", "COMMANDS", "ADAS-COG", "", "0", "", "0", 0, "", "", "", "", "", 10.0, "WEEK 16", 112, "TREATMENT", "2014-07-02", 113], ["CDISCPILOT01", "QS", "01-701-1118", 5049, "ACITM04", "COMMANDS", "ADAS-COG", "", "0", "", "0", 0, "", "", "", "", "", 12.0, "WEEK 24", 168, "TREATMENT", "2014-08-27", 169], ["CDISCPILOT01", "QS", "01-701-1118", 5005, "ACITM05", "CONSTRUCTIONAL PRAXIS", "ADAS-COG", "", "3", "", "3", 3, "", "", "", "Y", "", 3.0, "BASELINE", 1, "TREATMENT", "2014-03-12", 1], ["CDISCPILOT01", "QS", "01-701-1118", 5020, "ACITM05", "CONSTRUCTIONAL PRAXIS", "ADAS-COG", "", "3", "", "3", 3, "", "", "", "", "", 8.0, "WEEK 8", 56, "TREATMENT", "2014-05-08", 58], ["CDISCPILOT01", "QS", "01-701-1118", 5035, "ACITM05", "CONSTRUCTIONAL PRAXIS", "ADAS-COG", "", "2", "", "2", 2, "", "", "", "", "", 10.0, "WEEK 16", 112, "TREATMENT", "2014-07-02", 113], ["CDISCPILOT01", "QS", "01-701-1118", 5050, "ACITM05", "CONSTRUCTIONAL PRAXIS", "ADAS-COG", "", "2", "", "2", 2, "", "", "", "", "", 12.0, "WEEK 24", 168, "TREATMENT", "2014-08-27", 169], ["CDISCPILOT01", "QS", "01-701-1118", 5006, "ACITM06", "IDEATIONAL PRAXIS", "ADAS-COG", "", "1", "", "1", 1, "", "", "", "Y", "", 3.0, "BASELINE", 1, "TREATMENT", "2014-03-12", 1], ["CDISCPILOT01", "QS", "01-701-1118", 5021, "ACITM06", "IDEATIONAL PRAXIS", "ADAS-COG", "", "0", "", "0", 0, "", "", "", "", "", 8.0, "WEEK 8", 56, "TREATMENT", "2014-05-08", 58], ["CDISCPILOT01", "QS", "01-701-1118", 5036, "ACITM06", "IDEATIONAL PRAXIS", "ADAS-COG", "", "0", "", "0", 0, "", "", "", "", "", 10.0, "WEEK 16", 112, "TREATMENT", "2014-07-02", 113], ["CDISCPILOT01", "QS", "01-701-1118", 5051, "ACITM06", "IDEATIONAL PRAXIS", "ADAS-COG", "", "0", "", "0", 0, "", "", "", "", "", 12.0, "WEEK 24", 168, "TREATMENT", "2014-08-27", 169], ["CDISCPILOT01", "QS", "01-701-1118", 5007, "ACITM07", "ORIENTATION", "ADAS-COG", "", "4", "", "4", 4, "", "", "", "Y", "", 3.0, "BASELINE", 1, "TREATMENT", "2014-03-12", 1], ["CDISCPILOT01", "QS", "01-701-1118", 5022, "ACITM07", "ORIENTATION", "ADAS-COG", "", "1", "", "1", 1, "", "", "", "", "", 8.0, "WEEK 8", 56, "TREATMENT", "2014-05-08", 58], ["CDISCPILOT01", "QS", "01-701-1118", 5037, "ACITM07", "ORIENTATION", "ADAS-COG", "", "1", "", "1", 1, "", "", "", "", "", 10.0, "WEEK 16", 112, "TREATMENT", "2014-07-02", 113], ["CDISCPILOT01", "QS", "01-701-1118", 5052, "ACITM07", "ORIENTATION", "ADAS-COG", "", "1", "", "1", 1, "", "", "", "", "", 12.0, "WEEK 24", 168, "TREATMENT", "2014-08-27", 169], ["CDISCPILOT01", "QS", "01-701-1118", 5008, "ACITM08", "WORD RECOGNITION", "ADAS-COG", "", "10", "", "10", 10, "", "", "", "Y", "", 3.0, "BASELINE", 1, "TREATMENT", "2014-03-12", 1], ["CDISCPILOT01", "QS", "01-701-1118", 5023, "ACITM08", "WORD RECOGNITION", "ADAS-COG", "", "10", "", "10", 10, "", "", "", "", "", 8.0, "WEEK 8", 56, "TREATMENT", "2014-05-08", 58], ["CDISCPILOT01", "QS", "01-701-1118", 5038, "ACITM08", "WORD RECOGNITION", "ADAS-COG", "", "10", "", "10", 10, "", "", "", "", "", 10.0, "WEEK 16", 112, "TREATMENT", "2014-07-02", 113], ["CDISCPILOT01", "QS", "01-701-1118", 5053, "ACITM08", "WORD RECOGNITION", "ADAS-COG", "", "7", "", "7", 7, "", "", "", "", "", 12.0, "WEEK 24", 168, "TREATMENT", "2014-08-27", 169], ["CDISCPILOT01", "QS", "01-701-1118", 5009, "ACITM09", "ATTENTION/VISUAL SEARCH TASK", "ADAS-COG", "", "12", "", "12", 12, "", "", "", "Y", "", 3.0, "BASELINE", 1, "TREATMENT", "2014-03-12", 1], ["CDISCPILOT01", "QS", "01-701-1118", 5024, "ACITM09", "ATTENTION/VISUAL SEARCH TASK", "ADAS-COG", "", "10", "", "10", 10, "", "", "", "", "", 8.0, "WEEK 8", 56, "TREATMENT", "2014-05-08", 58], ["CDISCPILOT01", "QS", "01-701-1118", 5039, "ACITM09", "ATTENTION/VISUAL SEARCH TASK", "ADAS-COG", "", "11", "", "11", 11, "", "", "", "", "", 10.0, "WEEK 16", 112, "TREATMENT", "2014-07-02", 113], ["CDISCPILOT01", "QS", "01-701-1118", 5054, "ACITM09", "ATTENTION/VISUAL SEARCH TASK", "ADAS-COG", "", "18", "", "18", 18, "", "", "", "", "", 12.0, "WEEK 24", 168, "TREATMENT", "2014-08-27", 169], ["CDISCPILOT01", "QS", "01-701-1118", 5010, "ACITM10", "MAZE SOLUTION", "ADAS-COG", "", "6", "sec", "6", 6, "sec", "", "", "Y", "", 3.0, "BASELINE", 1, "TREATMENT", "2014-03-12", 1], ["CDISCPILOT01", "QS", "01-701-1118", 5025, "ACITM10", "MAZE SOLUTION", "ADAS-COG", "", "7", "sec", "7", 7, "sec", "", "", "", "", 8.0, "WEEK 8", 56, "TREATMENT", "2014-05-08", 58], ["CDISCPILOT01", "QS", "01-701-1118", 5040, "ACITM10", "MAZE SOLUTION", "ADAS-COG", "", "9", "sec", "9", 9, "sec", "", "", "", "", 10.0, "WEEK 16", 112, "TREATMENT", "2014-07-02", 113], ["CDISCPILOT01", "QS", "01-701-1118", 5055, "ACITM10", "MAZE SOLUTION", "ADAS-COG", "", "7", "sec", "7", 7, "sec", "", "", "", "", 12.0, "WEEK 24", 168, "TREATMENT", "2014-08-27", 169], ["CDISCPILOT01", "QS", "01-701-1118", 5011, "ACITM11", "SPOKEN LANGUAGE ABILITY", "ADAS-COG", "", "0", "", "0", 0, "", "", "", "Y", "", 3.0, "BASELINE", 1, "TREATMENT", "2014-03-12", 1], ["CDISCPILOT01", "QS", "01-701-1118", 5026, "ACITM11", "SPOKEN LANGUAGE ABILITY", "ADAS-COG", "", "0", "", "0", 0, "", "", "", "", "", 8.0, "WEEK 8", 56, "TREATMENT", "2014-05-08", 58], ["CDISCPILOT01", "QS", "01-701-1118", 5041, "ACITM11", "SPOKEN LANGUAGE ABILITY", "ADAS-COG", "", "0", "", "0", 0, "", "", "", "", "", 10.0, "WEEK 16", 112, "TREATMENT", "2014-07-02", 113], ["CDISCPILOT01", "QS", "01-701-1118", 5056, "ACITM11", "SPOKEN LANGUAGE ABILITY", "ADAS-COG", "", "0", "", "0", 0, "", "", "", "", "", 12.0, "WEEK 24", 168, "TREATMENT", "2014-08-27", 169], ["CDISCPILOT01", "QS", "01-701-1118", 5012, "ACITM12", "COMPREHENSION OF SPOKEN LANGUAGE", "ADAS-COG", "", "0", "", "0", 0, "", "", "", "Y", "", 3.0, "BASELINE", 1, "TREATMENT", "2014-03-12", 1], ["CDISCPILOT01", "QS", "01-701-1118", 5027, "ACITM12", "COMPREHENSION OF SPOKEN LANGUAGE", "ADAS-COG", "", "0", "", "0", 0, "", "", "", "", "", 8.0, "WEEK 8", 56, "TREATMENT", "2014-05-08", 58], ["CDISCPILOT01", "QS", "01-701-1118", 5042, "ACITM12", "COMPREHENSION OF SPOKEN LANGUAGE", "ADAS-COG", "", "0", "", "0", 0, "", "", "", "", "", 10.0, "WEEK 16", 112, "TREATMENT", "2014-07-02", 113], ["CDISCPILOT01", "QS", "01-701-1118", 5057, "ACITM12", "COMPREHENSION OF SPOKEN LANGUAGE", "ADAS-COG", "", "0", "", "0", 0, "", "", "", "", "", 12.0, "WEEK 24", 168, "TREATMENT", "2014-08-27", 169], ["CDISCPILOT01", "QS", "01-701-1118", 5013, "ACITM13", "WORD FINDING DIFFICULTY IN SPONTANEOUS S", "ADAS-COG", "", "1", "", "1", 1, "", "", "", "Y", "", 3.0, "BASELINE", 1, "TREATMENT", "2014-03-12", 1], ["CDISCPILOT01", "QS", "01-701-1118", 5028, "ACITM13", "WORD FINDING DIFFICULTY IN SPONTANEOUS S", "ADAS-COG", "", "0", "", "0", 0, "", "", "", "", "", 8.0, "WEEK 8", 56, "TREATMENT", "2014-05-08", 58], ["CDISCPILOT01", "QS", "01-701-1118", 5043, "ACITM13", "WORD FINDING DIFFICULTY IN SPONTANEOUS S", "ADAS-COG", "", "0", "", "0", 0, "", "", "", "", "", 10.0, "WEEK 16", 112, "TREATMENT", "2014-07-02", 113], ["CDISCPILOT01", "QS", "01-701-1118", 5058, "ACITM13", "WORD FINDING DIFFICULTY IN SPONTANEOUS S", "ADAS-COG", "", "0", "", "0", 0, "", "", "", "", "", 12.0, "WEEK 24", 168, "TREATMENT", "2014-08-27", 169], ["CDISCPILOT01", "QS", "01-701-1118", 5014, "ACITM14", "RECALL OF TEST INSTRUCTIONS", "ADAS-COG", "", "1", "", "1", 1, "", "", "", "Y", "", 3.0, "BASELINE", 1, "TREATMENT", "2014-03-12", 1], ["CDISCPILOT01", "QS", "01-701-1118", 5029, "ACITM14", "RECALL OF TEST INSTRUCTIONS", "ADAS-COG", "", "0", "", "0", 0, "", "", "", "", "", 8.0, "WEEK 8", 56, "TREATMENT", "2014-05-08", 58], ["CDISCPILOT01", "QS", "01-701-1118", 5044, "ACITM14", "RECALL OF TEST INSTRUCTIONS", "ADAS-COG", "", "0", "", "0", 0, "", "", "", "", "", 10.0, "WEEK 16", 112, "TREATMENT", "2014-07-02", 113], ["CDISCPILOT01", "QS", "01-701-1118", 5059, "ACITM14", "RECALL OF TEST INSTRUCTIONS", "ADAS-COG", "", "0", "", "0", 0, "", "", "", "", "", 12.0, "WEEK 24", 168, "TREATMENT", "2014-08-27", 169], ["CDISCPILOT01", "QS", "01-701-1118", 5015, "ACTOT", "ADAS-COG(11) Subscore", "ADAS-COG", "", "", "", "26", 26, "", "", "", "Y", "Y", 3.0, "BASELINE", 1, "TREATMENT", "2014-03-12", 1], ["CDISCPILOT01", "QS", "01-701-1118", 5030, "ACTOT", "ADAS-COG(11) Subscore", "ADAS-COG", "", "", "", "19", 19, "", "", "", "", "Y", 8.0, "WEEK 8", 56, "TREATMENT", "2014-05-08", 58], ["CDISCPILOT01", "QS", "01-701-1118", 5045, "ACTOT", "ADAS-COG(11) Subscore", "ADAS-COG", "", "", "", "17", 17, "", "", "", "", "Y", 10.0, "WEEK 16", 112, "TREATMENT", "2014-07-02", 113], ["CDISCPILOT01", "QS", "01-701-1118", 5060, "ACTOT", "ADAS-COG(11) Subscore", "ADAS-COG", "", "", "", "15", 15, "", "", "", "", "Y", 12.0, "WEEK 24", 168, "TREATMENT", "2014-08-27", 169], ["CDISCPILOT01", "QS", "01-701-1130", 5001, "ACITM01", "WORD RECALL TASK", "ADAS-COG", "", "4", "", "4", 4, "", "", "", "Y", "", 3.0, "BASELINE", 1, "TREATMENT", "2014-02-15", 1], ["CDISCPILOT01", "QS", "01-701-1130", 5016, "ACITM01", "WORD RECALL TASK", "ADAS-COG", "", "4", "", "4", 4, "", "", "", "", "", 8.0, "WEEK 8", 56, "TREATMENT", "2014-04-12", 57], ["CDISCPILOT01", "QS", "01-701-1130", 5031, "ACITM01", "WORD RECALL TASK", "ADAS-COG", "", "5", "", "5", 5, "", "", "", "", "", 10.0, "WEEK 16", 112, "TREATMENT", "2014-06-07", 113], ["CDISCPILOT01", "QS", "01-701-1130", 5046, "ACITM01", "WORD RECALL TASK", "ADAS-COG", "", "4", "", "4", 4, "", "", "", "", "", 12.0, "WEEK 24", 168, "TREATMENT", "2014-08-02", 169], ["CDISCPILOT01", "QS", "01-701-1130", 5002, "ACITM02", "NAMING OBJECTS AND FINGERS (REFER TO 5 C", "ADAS-COG", "", "0", "", "0", 0, "", "", "", "Y", "", 3.0, "BASELINE", 1, "TREATMENT", "2014-02-15", 1], ["CDISCPILOT01", "QS", "01-701-1130", 5017, "ACITM02", "NAMING OBJECTS AND FINGERS (REFER TO 5 C", "ADAS-COG", "", "0", "", "0", 0, "", "", "", "", "", 8.0, "WEEK 8", 56, "TREATMENT", "2014-04-12", 57], ["CDISCPILOT01", "QS", "01-701-1130", 5032, "ACITM02", "NAMING OBJECTS AND FINGERS (REFER TO 5 C", "ADAS-COG", "", "0", "", "0", 0, "", "", "", "", "", 10.0, "WEEK 16", 112, "TREATMENT", "2014-06-07", 113], ["CDISCPILOT01", "QS", "01-701-1130", 5047, "ACITM02", "NAMING OBJECTS AND FINGERS (REFER TO 5 C", "ADAS-COG", "", "0", "", "0", 0, "", "", "", "", "", 12.0, "WEEK 24", 168, "TREATMENT", "2014-08-02", 169], ["CDISCPILOT01", "QS", "01-701-1130", 5003, "ACITM03", "DELAYED WORD RECALL", "ADAS-COG", "", "10", "", "10", 10, "", "", "", "Y", "", 3.0, "BASELINE", 1, "TREATMENT", "2014-02-15", 1], ["CDISCPILOT01", "QS", "01-701-1130", 5018, "ACITM03", "DELAYED WORD RECALL", "ADAS-COG", "", "10", "", "10", 10, "", "", "", "", "", 8.0, "WEEK 8", 56, "TREATMENT", "2014-04-12", 57], ["CDISCPILOT01", "QS", "01-701-1130", 5033, "ACITM03", "DELAYED WORD RECALL", "ADAS-COG", "", "10", "", "10", 10, "", "", "", "", "", 10.0, "WEEK 16", 112, "TREATMENT", "2014-06-07", 113], ["CDISCPILOT01", "QS", "01-701-1130", 5048, "ACITM03", "DELAYED WORD RECALL", "ADAS-COG", "", "10", "", "10", 10, "", "", "", "", "", 12.0, "WEEK 24", 168, "TREATMENT", "2014-08-02", 169], ["CDISCPILOT01", "QS", "01-701-1130", 5004, "ACITM04", "COMMANDS", "ADAS-COG", "", "0", "", "0", 0, "", "", "", "Y", "", 3.0, "BASELINE", 1, "TREATMENT", "2014-02-15", 1], ["CDISCPILOT01", "QS", "01-701-1130", 5019, "ACITM04", "COMMANDS", "ADAS-COG", "", "0", "", "0", 0, "", "", "", "", "", 8.0, "WEEK 8", 56, "TREATMENT", "2014-04-12", 57], ["CDISCPILOT01", "QS", "01-701-1130", 5034, "ACITM04", "COMMANDS", "ADAS-COG", "", "0", "", "0", 0, "", "", "", "", "", 10.0, "WEEK 16", 112, "TREATMENT", "2014-06-07", 113], ["CDISCPILOT01", "QS", "01-701-1130", 5049, "ACITM04", "COMMANDS", "ADAS-COG", "", "0", "", "0", 0, "", "", "", "", "", 12.0, "WEEK 24", 168, "TREATMENT", "2014-08-02", 169], ["CDISCPILOT01", "QS", "01-701-1130", 5005, "ACITM05", "CONSTRUCTIONAL PRAXIS", "ADAS-COG", "", "0", "", "0", 0, "", "", "", "Y", "", 3.0, "BASELINE", 1, "TREATMENT", "2014-02-15", 1], ["CDISCPILOT01", "QS", "01-701-1130", 5020, "ACITM05", "CONSTRUCTIONAL PRAXIS", "ADAS-COG", "", "1", "", "1", 1, "", "", "", "", "", 8.0, "WEEK 8", 56, "TREATMENT", "2014-04-12", 57], ["CDISCPILOT01", "QS", "01-701-1130", 5035, "ACITM05", "CONSTRUCTIONAL PRAXIS", "ADAS-COG", "", "0", "", "0", 0, "", "", "", "", "", 10.0, "WEEK 16", 112, "TREATMENT", "2014-06-07", 113], ["CDISCPILOT01", "QS", "01-701-1130", 5050, "ACITM05", "CONSTRUCTIONAL PRAXIS", "ADAS-COG", "", "1", "", "1", 1, "", "", "", "", "", 12.0, "WEEK 24", 168, "TREATMENT", "2014-08-02", 169], ["CDISCPILOT01", "QS", "01-701-1130", 5006, "ACITM06", "IDEATIONAL PRAXIS", "ADAS-COG", "", "2", "", "2", 2, "", "", "", "Y", "", 3.0, "BASELINE", 1, "TREATMENT", "2014-02-15", 1], ["CDISCPILOT01", "QS", "01-701-1130", 5021, "ACITM06", "IDEATIONAL PRAXIS", "ADAS-COG", "", "1", "", "1", 1, "", "", "", "", "", 8.0, "WEEK 8", 56, "TREATMENT", "2014-04-12", 57], ["CDISCPILOT01", "QS", "01-701-1130", 5036, "ACITM06", "IDEATIONAL PRAXIS", "ADAS-COG", "", "1", "", "1", 1, "", "", "", "", "", 10.0, "WEEK 16", 112, "TREATMENT", "2014-06-07", 113], ["CDISCPILOT01", "QS", "01-701-1130", 5051, "ACITM06", "IDEATIONAL PRAXIS", "ADAS-COG", "", "1", "", "1", 1, "", "", "", "", "", 12.0, "WEEK 24", 168, "TREATMENT", "2014-08-02", 169], ["CDISCPILOT01", "QS", "01-701-1130", 5007, "ACITM07", "ORIENTATION", "ADAS-COG", "", "5", "", "5", 5, "", "", "", "Y", "", 3.0, "BASELINE", 1, "TREATMENT", "2014-02-15", 1], ["CDISCPILOT01", "QS", "01-701-1130", 5022, "ACITM07", "ORIENTATION", "ADAS-COG", "", "3", "", "3", 3, "", "", "", "", "", 8.0, "WEEK 8", 56, "TREATMENT", "2014-04-12", 57], ["CDISCPILOT01", "QS", "01-701-1130", 5037, "ACITM07", "ORIENTATION", "ADAS-COG", "", "3", "", "3", 3, "", "", "", "", "", 10.0, "WEEK 16", 112, "TREATMENT", "2014-06-07", 113], ["CDISCPILOT01", "QS", "01-701-1130", 5052, "ACITM07", "ORIENTATION", "ADAS-COG", "", "3", "", "3", 3, "", "", "", "", "", 12.0, "WEEK 24", 168, "TREATMENT", "2014-08-02", 169], ["CDISCPILOT01", "QS", "01-701-1130", 5008, "ACITM08", "WORD RECOGNITION", "ADAS-COG", "", "8", "", "8", 8, "", "", "", "Y", "", 3.0, "BASELINE", 1, "TREATMENT", "2014-02-15", 1], ["CDISCPILOT01", "QS", "01-701-1130", 5023, "ACITM08", "WORD RECOGNITION", "ADAS-COG", "", "3", "", "3", 3, "", "", "", "", "", 8.0, "WEEK 8", 56, "TREATMENT", "2014-04-12", 57], ["CDISCPILOT01", "QS", "01-701-1130", 5038, "ACITM08", "WORD RECOGNITION", "ADAS-COG", "", "3", "", "3", 3, "", "", "", "", "", 10.0, "WEEK 16", 112, "TREATMENT", "2014-06-07", 113], ["CDISCPILOT01", "QS", "01-701-1130", 5053, "ACITM08", "WORD RECOGNITION", "ADAS-COG", "", "5", "", "5", 5, "", "", "", "", "", 12.0, "WEEK 24", 168, "TREATMENT", "2014-08-02", 169], ["CDISCPILOT01", "QS", "01-701-1130", 5009, "ACITM09", "ATTENTION/VISUAL SEARCH TASK", "ADAS-COG", "", "25", "", "25", 25, "", "", "", "Y", "", 3.0, "BASELINE", 1, "TREATMENT", "2014-02-15", 1], ["CDISCPILOT01", "QS", "01-701-1130", 5024, "ACITM09", "ATTENTION/VISUAL SEARCH TASK", "ADAS-COG", "", "19", "", "19", 19, "", "", "", "", "", 8.0, "WEEK 8", 56, "TREATMENT", "2014-04-12", 57], ["CDISCPILOT01", "QS", "01-701-1130", 5039, "ACITM09", "ATTENTION/VISUAL SEARCH TASK", "ADAS-COG", "", "24", "", "24", 24, "", "", "", "", "", 10.0, "WEEK 16", 112, "TREATMENT", "2014-06-07", 113], ["CDISCPILOT01", "QS", "01-701-1130", 5054, "ACITM09", "ATTENTION/VISUAL SEARCH TASK", "ADAS-COG", "", "28", "", "28", 28, "", "", "", "", "", 12.0, "WEEK 24", 168, "TREATMENT", "2014-08-02", 169], ["CDISCPILOT01", "QS", "01-701-1130", 5010, "ACITM10", "MAZE SOLUTION", "ADAS-COG", "", "4", "sec", "4", 4, "sec", "", "", "Y", "", 3.0, "BASELINE", 1, "TREATMENT", "2014-02-15", 1], ["CDISCPILOT01", "QS", "01-701-1130", 5025, "ACITM10", "MAZE SOLUTION", "ADAS-COG", "", "8", "sec", "8", 8, "sec", "", "", "", "", 8.0, "WEEK 8", 56, "TREATMENT", "2014-04-12", 57], ["CDISCPILOT01", "QS", "01-701-1130", 5040, "ACITM10", "MAZE SOLUTION", "ADAS-COG", "", "7", "sec", "7", 7, "sec", "", "", "", "", 10.0, "WEEK 16", 112, "TREATMENT", "2014-06-07", 113], ["CDISCPILOT01", "QS", "01-701-1130", 5055, "ACITM10", "MAZE SOLUTION", "ADAS-COG", "", "5", "sec", "5", 5, "sec", "", "", "", "", 12.0, "WEEK 24", 168, "TREATMENT", "2014-08-02", 169], ["CDISCPILOT01", "QS", "01-701-1130", 5011, "ACITM11", "SPOKEN LANGUAGE ABILITY", "ADAS-COG", "", "0", "", "0", 0, "", "", "", "Y", "", 3.0, "BASELINE", 1, "TREATMENT", "2014-02-15", 1], ["CDISCPILOT01", "QS", "01-701-1130", 5026, "ACITM11", "SPOKEN LANGUAGE ABILITY", "ADAS-COG", "", "0", "", "0", 0, "", "", "", "", "", 8.0, "WEEK 8", 56, "TREATMENT", "2014-04-12", 57], ["CDISCPILOT01", "QS", "01-701-1130", 5041, "ACITM11", "SPOKEN LANGUAGE ABILITY", "ADAS-COG", "", "0", "", "0", 0, "", "", "", "", "", 10.0, "WEEK 16", 112, "TREATMENT", "2014-06-07", 113], ["CDISCPILOT01", "QS", "01-701-1130", 5056, "ACITM11", "SPOKEN LANGUAGE ABILITY", "ADAS-COG", "", "0", "", "0", 0, "", "", "", "", "", 12.0, "WEEK 24", 168, "TREATMENT", "2014-08-02", 169], ["CDISCPILOT01", "QS", "01-701-1130", 5012, "ACITM12", "COMPREHENSION OF SPOKEN LANGUAGE", "ADAS-COG", "", "0", "", "0", 0, "", "", "", "Y", "", 3.0, "BASELINE", 1, "TREATMENT", "2014-02-15", 1], ["CDISCPILOT01", "QS", "01-701-1130", 5027, "ACITM12", "COMPREHENSION OF SPOKEN LANGUAGE", "ADAS-COG", "", "0", "", "0", 0, "", "", "", "", "", 8.0, "WEEK 8", 56, "TREATMENT", "2014-04-12", 57], ["CDISCPILOT01", "QS", "01-701-1130", 5042, "ACITM12", "COMPREHENSION OF SPOKEN LANGUAGE", "ADAS-COG", "", "0", "", "0", 0, "", "", "", "", "", 10.0, "WEEK 16", 112, "TREATMENT", "2014-06-07", 113], ["CDISCPILOT01", "QS", "01-701-1130", 5057, "ACITM12", "COMPREHENSION OF SPOKEN LANGUAGE", "ADAS-COG", "", "0", "", "0", 0, "", "", "", "", "", 12.0, "WEEK 24", 168, "TREATMENT", "2014-08-02", 169], ["CDISCPILOT01", "QS", "01-701-1130", 5013, "ACITM13", "WORD FINDING DIFFICULTY IN SPONTANEOUS S", "ADAS-COG", "", "0", "", "0", 0, "", "", "", "Y", "", 3.0, "BASELINE", 1, "TREATMENT", "2014-02-15", 1], ["CDISCPILOT01", "QS", "01-701-1130", 5028, "ACITM13", "WORD FINDING DIFFICULTY IN SPONTANEOUS S", "ADAS-COG", "", "0", "", "0", 0, "", "", "", "", "", 8.0, "WEEK 8", 56, "TREATMENT", "2014-04-12", 57], ["CDISCPILOT01", "QS", "01-701-1130", 5043, "ACITM13", "WORD FINDING DIFFICULTY IN SPONTANEOUS S", "ADAS-COG", "", "0", "", "0", 0, "", "", "", "", "", 10.0, "WEEK 16", 112, "TREATMENT", "2014-06-07", 113], ["CDISCPILOT01", "QS", "01-701-1130", 5058, "ACITM13", "WORD FINDING DIFFICULTY IN SPONTANEOUS S", "ADAS-COG", "", "0", "", "0", 0, "", "", "", "", "", 12.0, "WEEK 24", 168, "TREATMENT", "2014-08-02", 169], ["CDISCPILOT01", "QS", "01-701-1130", 5014, "ACITM14", "RECALL OF TEST INSTRUCTIONS", "ADAS-COG", "", "0", "", "0", 0, "", "", "", "Y", "", 3.0, "BASELINE", 1, "TREATMENT", "2014-02-15", 1], ["CDISCPILOT01", "QS", "01-701-1130", 5029, "ACITM14", "RECALL OF TEST INSTRUCTIONS", "ADAS-COG", "", "0", "", "0", 0, "", "", "", "", "", 8.0, "WEEK 8", 56, "TREATMENT", "2014-04-12", 57], ["CDISCPILOT01", "QS", "01-701-1130", 5044, "ACITM14", "RECALL OF TEST INSTRUCTIONS", "ADAS-COG", "", "0", "", "0", 0, "", "", "", "", "", 10.0, "WEEK 16", 112, "TREATMENT", "2014-06-07", 113], ["CDISCPILOT01", "QS", "01-701-1130", 5059, "ACITM14", "RECALL OF TEST INSTRUCTIONS", "ADAS-COG", "", "0", "", "0", 0, "", "", "", "", "", 12.0, "WEEK 24", 168, "TREATMENT", "2014-08-02", 169], ["CDISCPILOT01", "QS", "01-701-1130", 5015, "ACTOT", "ADAS-COG(11) Subscore", "ADAS-COG", "", "", "", "19", 19, "", "", "", "Y", "Y", 3.0, "BASELINE", 1, "TREATMENT", "2014-02-15", 1], ["CDISCPILOT01", "QS", "01-701-1130", 5030, "ACTOT", "ADAS-COG(11) Subscore", "ADAS-COG", "", "", "", "12", 12, "", "", "", "", "Y", 8.0, "WEEK 8", 56, "TREATMENT", "2014-04-12", 57], ["CDISCPILOT01", "QS", "01-701-1130", 5045, "ACTOT", "ADAS-COG(11) Subscore", "ADAS-COG", "", "", "", "12", 12, "", "", "", "", "Y", 10.0, "WEEK 16", 112, "TREATMENT", "2014-06-07", 113], ["CDISCPILOT01", "QS", "01-701-1130", 5060, "ACTOT", "ADAS-COG(11) Subscore", "ADAS-COG", "", "", "", "14", 14, "", "", "", "", "Y", 12.0, "WEEK 24", 168, "TREATMENT", "2014-08-02", 169], ["CDISCPILOT01", "QS", "01-701-1133", 5001, "ACITM01", "WORD RECALL TASK", "ADAS-COG", "", "7", "", "7", 7, "", "", "", "Y", "", 3.0, "BASELINE", 1, "TREATMENT", "2012-10-28", 1], ["CDISCPILOT01", "QS", "01-701-1133", 5016, "ACITM01", "WORD RECALL TASK", "ADAS-COG", "", "6", "", "6", 6, "", "", "", "", "", 8.0, "WEEK 8", 56, "TREATMENT", "2012-12-24", 58], ["CDISCPILOT01", "QS", "01-701-1133", 5031, "ACITM01", "WORD RECALL TASK", "ADAS-COG", "", "6", "", "6", 6, "", "", "", "", "", 10.0, "WEEK 16", 112, "TREATMENT", "2013-02-18", 114], ["CDISCPILOT01", "QS", "01-701-1133", 5046, "ACITM01", "WORD RECALL TASK", "ADAS-COG", "", "6", "", "6", 6, "", "", "", "", "", 12.0, "WEEK 24", 168, "TREATMENT", "2013-04-18", 173], ["CDISCPILOT01", "QS", "01-701-1133", 5002, "ACITM02", "NAMING OBJECTS AND FINGERS (REFER TO 5 C", "ADAS-COG", "", "0", "", "0", 0, "", "", "", "Y", "", 3.0, "BASELINE", 1, "TREATMENT", "2012-10-28", 1], ["CDISCPILOT01", "QS", "01-701-1133", 5017, "ACITM02", "NAMING OBJECTS AND FINGERS (REFER TO 5 C", "ADAS-COG", "", "0", "", "0", 0, "", "", "", "", "", 8.0, "WEEK 8", 56, "TREATMENT", "2012-12-24", 58], ["CDISCPILOT01", "QS", "01-701-1133", 5032, "ACITM02", "NAMING OBJECTS AND FINGERS (REFER TO 5 C", "ADAS-COG", "", "0", "", "0", 0, "", "", "", "", "", 10.0, "WEEK 16", 112, "TREATMENT", "2013-02-18", 114], ["CDISCPILOT01", "QS", "01-701-1133", 5047, "ACITM02", "NAMING OBJECTS AND FINGERS (REFER TO 5 C", "ADAS-COG", "", "0", "", "0", 0, "", "", "", "", "", 12.0, "WEEK 24", 168, "TREATMENT", "2013-04-18", 173], ["CDISCPILOT01", "QS", "01-701-1133", 5003, "ACITM03", "DELAYED WORD RECALL", "ADAS-COG", "", "9", "", "9", 9, "", "", "", "Y", "", 3.0, "BASELINE", 1, "TREATMENT", "2012-10-28", 1], ["CDISCPILOT01", "QS", "01-701-1133", 5018, "ACITM03", "DELAYED WORD RECALL", "ADAS-COG", "", "9", "", "9", 9, "", "", "", "", "", 8.0, "WEEK 8", 56, "TREATMENT", "2012-12-24", 58], ["CDISCPILOT01", "QS", "01-701-1133", 5033, "ACITM03", "DELAYED WORD RECALL", "ADAS-COG", "", "8", "", "8", 8, "", "", "", "", "", 10.0, "WEEK 16", 112, "TREATMENT", "2013-02-18", 114], ["CDISCPILOT01", "QS", "01-701-1133", 5048, "ACITM03", "DELAYED WORD RECALL", "ADAS-COG", "", "10", "", "10", 10, "", "", "", "", "", 12.0, "WEEK 24", 168, "TREATMENT", "2013-04-18", 173], ["CDISCPILOT01", "QS", "01-701-1133", 5004, "ACITM04", "COMMANDS", "ADAS-COG", "", "0", "", "0", 0, "", "", "", "Y", "", 3.0, "BASELINE", 1, "TREATMENT", "2012-10-28", 1], ["CDISCPILOT01", "QS", "01-701-1133", 5019, "ACITM04", "COMMANDS", "ADAS-COG", "", "0", "", "0", 0, "", "", "", "", "", 8.0, "WEEK 8", 56, "TREATMENT", "2012-12-24", 58], ["CDISCPILOT01", "QS", "01-701-1133", 5034, "ACITM04", "COMMANDS", "ADAS-COG", "", "0", "", "0", 0, "", "", "", "", "", 10.0, "WEEK 16", 112, "TREATMENT", "2013-02-18", 114], ["CDISCPILOT01", "QS", "01-701-1133", 5049, "ACITM04", "COMMANDS", "ADAS-COG", "", "1", "", "1", 1, "", "", "", "", "", 12.0, "WEEK 24", 168, "TREATMENT", "2013-04-18", 173], ["CDISCPILOT01", "QS", "01-701-1133", 5005, "ACITM05", "CONSTRUCTIONAL PRAXIS", "ADAS-COG", "", "1", "", "1", 1, "", "", "", "Y", "", 3.0, "BASELINE", 1, "TREATMENT", "2012-10-28", 1], ["CDISCPILOT01", "QS", "01-701-1133", 5020, "ACITM05", "CONSTRUCTIONAL PRAXIS", "ADAS-COG", "", "1", "", "1", 1, "", "", "", "", "", 8.0, "WEEK 8", 56, "TREATMENT", "2012-12-24", 58], ["CDISCPILOT01", "QS", "01-701-1133", 5035, "ACITM05", "CONSTRUCTIONAL PRAXIS", "ADAS-COG", "", "1", "", "1", 1, "", "", "", "", "", 10.0, "WEEK 16", 112, "TREATMENT", "2013-02-18", 114], ["CDISCPILOT01", "QS", "01-701-1133", 5050, "ACITM05", "CONSTRUCTIONAL PRAXIS", "ADAS-COG", "", "3", "", "3", 3, "", "", "", "", "", 12.0, "WEEK 24", 168, "TREATMENT", "2013-04-18", 173], ["CDISCPILOT01", "QS", "01-701-1133", 5006, "ACITM06", "IDEATIONAL PRAXIS", "ADAS-COG", "", "0", "", "0", 0, "", "", "", "Y", "", 3.0, "BASELINE", 1, "TREATMENT", "2012-10-28", 1], ["CDISCPILOT01", "QS", "01-701-1133", 5021, "ACITM06", "IDEATIONAL PRAXIS", "ADAS-COG", "", "0", "", "0", 0, "", "", "", "", "", 8.0, "WEEK 8", 56, "TREATMENT", "2012-12-24", 58], ["CDISCPILOT01", "QS", "01-701-1133", 5036, "ACITM06", "IDEATIONAL PRAXIS", "ADAS-COG", "", "0", "", "0", 0, "", "", "", "", "", 10.0, "WEEK 16", 112, "TREATMENT", "2013-02-18", 114], ["CDISCPILOT01", "QS", "01-701-1133", 5051, "ACITM06", "IDEATIONAL PRAXIS", "ADAS-COG", "", "0", "", "0", 0, "", "", "", "", "", 12.0, "WEEK 24", 168, "TREATMENT", "2013-04-18", 173], ["CDISCPILOT01", "QS", "01-701-1133", 5007, "ACITM07", "ORIENTATION", "ADAS-COG", "", "2", "", "2", 2, "", "", "", "Y", "", 3.0, "BASELINE", 1, "TREATMENT", "2012-10-28", 1], ["CDISCPILOT01", "QS", "01-701-1133", 5022, "ACITM07", "ORIENTATION", "ADAS-COG", "", "4", "", "4", 4, "", "", "", "", "", 8.0, "WEEK 8", 56, "TREATMENT", "2012-12-24", 58], ["CDISCPILOT01", "QS", "01-701-1133", 5037, "ACITM07", "ORIENTATION", "ADAS-COG", "", "5", "", "5", 5, "", "", "", "", "", 10.0, "WEEK 16", 112, "TREATMENT", "2013-02-18", 114], ["CDISCPILOT01", "QS", "01-701-1133", 5052, "ACITM07", "ORIENTATION", "ADAS-COG", "", "4", "", "4", 4, "", "", "", "", "", 12.0, "WEEK 24", 168, "TREATMENT", "2013-04-18", 173], ["CDISCPILOT01", "QS", "01-701-1133", 5008, "ACITM08", "WORD RECOGNITION", "ADAS-COG", "", "2", "", "2", 2, "", "", "", "Y", "", 3.0, "BASELINE", 1, "TREATMENT", "2012-10-28", 1], ["CDISCPILOT01", "QS", "01-701-1133", 5023, "ACITM08", "WORD RECOGNITION", "ADAS-COG", "", "3", "", "3", 3, "", "", "", "", "", 8.0, "WEEK 8", 56, "TREATMENT", "2012-12-24", 58], ["CDISCPILOT01", "QS", "01-701-1133", 5038, "ACITM08", "WORD RECOGNITION", "ADAS-COG", "", "5", "", "5", 5, "", "", "", "", "", 10.0, "WEEK 16", 112, "TREATMENT", "2013-02-18", 114], ["CDISCPILOT01", "QS", "01-701-1133", 5053, "ACITM08", "WORD RECOGNITION", "ADAS-COG", "", "4", "", "4", 4, "", "", "", "", "", 12.0, "WEEK 24", 168, "TREATMENT", "2013-04-18", 173], ["CDISCPILOT01", "QS", "01-701-1133", 5009, "ACITM09", "ATTENTION/VISUAL SEARCH TASK", "ADAS-COG", "", "24", "", "24", 24, "", "", "", "Y", "", 3.0, "BASELINE", 1, "TREATMENT", "2012-10-28", 1], ["CDISCPILOT01", "QS", "01-701-1133", 5024, "ACITM09", "ATTENTION/VISUAL SEARCH TASK", "ADAS-COG", "", "22", "", "22", 22, "", "", "", "", "", 8.0, "WEEK 8", 56, "TREATMENT", "2012-12-24", 58], ["CDISCPILOT01", "QS", "01-701-1133", 5039, "ACITM09", "ATTENTION/VISUAL SEARCH TASK", "ADAS-COG", "", "21", "", "21", 21, "", "", "", "", "", 10.0, "WEEK 16", 112, "TREATMENT", "2013-02-18", 114], ["CDISCPILOT01", "QS", "01-701-1133", 5054, "ACITM09", "ATTENTION/VISUAL SEARCH TASK", "ADAS-COG", "", "22", "", "22", 22, "", "", "", "", "", 12.0, "WEEK 24", 168, "TREATMENT", "2013-04-18", 173], ["CDISCPILOT01", "QS", "01-701-1133", 5010, "ACITM10", "MAZE SOLUTION", "ADAS-COG", "", "12", "sec", "12", 12, "sec", "", "", "Y", "", 3.0, "BASELINE", 1, "TREATMENT", "2012-10-28", 1], ["CDISCPILOT01", "QS", "01-701-1133", 5025, "ACITM10", "MAZE SOLUTION", "ADAS-COG", "", "240", "sec", "240", 240, "sec", "", "", "", "", 8.0, "WEEK 8", 56, "TREATMENT", "2012-12-24", 58], ["CDISCPILOT01", "QS", "01-701-1133", 5040, "ACITM10", "MAZE SOLUTION", "ADAS-COG", "", "16", "sec", "16", 16, "sec", "", "", "", "", 10.0, "WEEK 16", 112, "TREATMENT", "2013-02-18", 114], ["CDISCPILOT01", "QS", "01-701-1133", 5055, "ACITM10", "MAZE SOLUTION", "ADAS-COG", "", "14", "sec", "14", 14, "sec", "", "", "", "", 12.0, "WEEK 24", 168, "TREATMENT", "2013-04-18", 173], ["CDISCPILOT01", "QS", "01-701-1133", 5011, "ACITM11", "SPOKEN LANGUAGE ABILITY", "ADAS-COG", "", "0", "", "0", 0, "", "", "", "Y", "", 3.0, "BASELINE", 1, "TREATMENT", "2012-10-28", 1], ["CDISCPILOT01", "QS", "01-701-1133", 5026, "ACITM11", "SPOKEN LANGUAGE ABILITY", "ADAS-COG", "", "1", "", "1", 1, "", "", "", "", "", 8.0, "WEEK 8", 56, "TREATMENT", "2012-12-24", 58], ["CDISCPILOT01", "QS", "01-701-1133", 5041, "ACITM11", "SPOKEN LANGUAGE ABILITY", "ADAS-COG", "", "1", "", "1", 1, "", "", "", "", "", 10.0, "WEEK 16", 112, "TREATMENT", "2013-02-18", 114], ["CDISCPILOT01", "QS", "01-701-1133", 5056, "ACITM11", "SPOKEN LANGUAGE ABILITY", "ADAS-COG", "", "0", "", "0", 0, "", "", "", "", "", 12.0, "WEEK 24", 168, "TREATMENT", "2013-04-18", 173], ["CDISCPILOT01", "QS", "01-701-1133", 5012, "ACITM12", "COMPREHENSION OF SPOKEN LANGUAGE", "ADAS-COG", "", "0", "", "0", 0, "", "", "", "Y", "", 3.0, "BASELINE", 1, "TREATMENT", "2012-10-28", 1], ["CDISCPILOT01", "QS", "01-701-1133", 5027, "ACITM12", "COMPREHENSION OF SPOKEN LANGUAGE", "ADAS-COG", "", "2", "", "2", 2, "", "", "", "", "", 8.0, "WEEK 8", 56, "TREATMENT", "2012-12-24", 58], ["CDISCPILOT01", "QS", "01-701-1133", 5042, "ACITM12", "COMPREHENSION OF SPOKEN LANGUAGE", "ADAS-COG", "", "2", "", "2", 2, "", "", "", "", "", 10.0, "WEEK 16", 112, "TREATMENT", "2013-02-18", 114], ["CDISCPILOT01", "QS", "01-701-1133", 5057, "ACITM12", "COMPREHENSION OF SPOKEN LANGUAGE", "ADAS-COG", "", "0", "", "0", 0, "", "", "", "", "", 12.0, "WEEK 24", 168, "TREATMENT", "2013-04-18", 173], ["CDISCPILOT01", "QS", "01-701-1133", 5013, "ACITM13", "WORD FINDING DIFFICULTY IN SPONTANEOUS S", "ADAS-COG", "", "1", "", "1", 1, "", "", "", "Y", "", 3.0, "BASELINE", 1, "TREATMENT", "2012-10-28", 1], ["CDISCPILOT01", "QS", "01-701-1133", 5028, "ACITM13", "WORD FINDING DIFFICULTY IN SPONTANEOUS S", "ADAS-COG", "", "1", "", "1", 1, "", "", "", "", "", 8.0, "WEEK 8", 56, "TREATMENT", "2012-12-24", 58], ["CDISCPILOT01", "QS", "01-701-1133", 5043, "ACITM13", "WORD FINDING DIFFICULTY IN SPONTANEOUS S", "ADAS-COG", "", "1", "", "1", 1, "", "", "", "", "", 10.0, "WEEK 16", 112, "TREATMENT", "2013-02-18", 114], ["CDISCPILOT01", "QS", "01-701-1133", 5058, "ACITM13", "WORD FINDING DIFFICULTY IN SPONTANEOUS S", "ADAS-COG", "", "0", "", "0", 0, "", "", "", "", "", 12.0, "WEEK 24", 168, "TREATMENT", "2013-04-18", 173], ["CDISCPILOT01", "QS", "01-701-1133", 5014, "ACITM14", "RECALL OF TEST INSTRUCTIONS", "ADAS-COG", "", "0", "", "0", 0, "", "", "", "Y", "", 3.0, "BASELINE", 1, "TREATMENT", "2012-10-28", 1], ["CDISCPILOT01", "QS", "01-701-1133", 5029, "ACITM14", "RECALL OF TEST INSTRUCTIONS", "ADAS-COG", "", "2", "", "2", 2, "", "", "", "", "", 8.0, "WEEK 8", 56, "TREATMENT", "2012-12-24", 58], ["CDISCPILOT01", "QS", "01-701-1133", 5044, "ACITM14", "RECALL OF TEST INSTRUCTIONS", "ADAS-COG", "", "1", "", "1", 1, "", "", "", "", "", 10.0, "WEEK 16", 112, "TREATMENT", "2013-02-18", 114], ["CDISCPILOT01", "QS", "01-701-1133", 5059, "ACITM14", "RECALL OF TEST INSTRUCTIONS", "ADAS-COG", "", "0", "", "0", 0, "", "", "", "", "", 12.0, "WEEK 24", 168, "TREATMENT", "2013-04-18", 173], ["CDISCPILOT01", "QS", "01-701-1133", 5015, "ACTOT", "ADAS-COG(11) Subscore", "ADAS-COG", "", "", "", "13", 13, "", "", "", "Y", "Y", 3.0, "BASELINE", 1, "TREATMENT", "2012-10-28", 1], ["CDISCPILOT01", "QS", "01-701-1133", 5030, "ACTOT", "ADAS-COG(11) Subscore", "ADAS-COG", "", "", "", "20", 20, "", "", "", "", "Y", 8.0, "WEEK 8", 56, "TREATMENT", "2012-12-24", 58], ["CDISCPILOT01", "QS", "01-701-1133", 5045, "ACTOT", "ADAS-COG(11) Subscore", "ADAS-COG", "", "", "", "22", 22, "", "", "", "", "Y", 10.0, "WEEK 16", 112, "TREATMENT", "2013-02-18", 114], ["CDISCPILOT01", "QS", "01-701-1133", 5060, "ACTOT", "ADAS-COG(11) Subscore", "ADAS-COG", "", "", "", "18", 18, "", "", "", "", "Y", 12.0, "WEEK 24", 168, "TREATMENT", "2013-04-18", 173], ["CDISCPILOT01", "QS", "01-701-1146", 5001, "ACITM01", "WORD RECALL TASK", "ADAS-COG", "", "5", "", "5", 5, "", "", "", "Y", "", 3.0, "BASELINE", 1, "TREATMENT", "2013-05-20", 1], ["CDISCPILOT01", "QS", "01-701-1146", 5016, "ACITM01", "WORD RECALL TASK", "ADAS-COG", "", "4", "", "4", 4, "", "", "", "", "", 7.0, "WEEK 6", 42, "TREATMENT", "2013-06-30", 42], ["CDISCPILOT01", "QS", "01-701-1146", 5002, "ACITM02", "NAMING OBJECTS AND FINGERS (REFER TO 5 C", "ADAS-COG", "", "0", "", "0", 0, "", "", "", "Y", "", 3.0, "BASELINE", 1, "TREATMENT", "2013-05-20", 1], ["CDISCPILOT01", "QS", "01-701-1146", 5017, "ACITM02", "NAMING OBJECTS AND FINGERS (REFER TO 5 C", "ADAS-COG", "", "0", "", "0", 0, "", "", "", "", "", 7.0, "WEEK 6", 42, "TREATMENT", "2013-06-30", 42], ["CDISCPILOT01", "QS", "01-701-1146", 5003, "ACITM03", "DELAYED WORD RECALL", "ADAS-COG", "", "9", "", "9", 9, "", "", "", "Y", "", 3.0, "BASELINE", 1, "TREATMENT", "2013-05-20", 1], ["CDISCPILOT01", "QS", "01-701-1146", 5018, "ACITM03", "DELAYED WORD RECALL", "ADAS-COG", "", "9", "", "9", 9, "", "", "", "", "", 7.0, "WEEK 6", 42, "TREATMENT", "2013-06-30", 42], ["CDISCPILOT01", "QS", "01-701-1146", 5004, "ACITM04", "COMMANDS", "ADAS-COG", "", "0", "", "0", 0, "", "", "", "Y", "", 3.0, "BASELINE", 1, "TREATMENT", "2013-05-20", 1], ["CDISCPILOT01", "QS", "01-701-1146", 5019, "ACITM04", "COMMANDS", "ADAS-COG", "", "0", "", "0", 0, "", "", "", "", "", 7.0, "WEEK 6", 42, "TREATMENT", "2013-06-30", 42], ["CDISCPILOT01", "QS", "01-701-1146", 5005, "ACITM05", "CONSTRUCTIONAL PRAXIS", "ADAS-COG", "", "0", "", "0", 0, "", "", "", "Y", "", 3.0, "BASELINE", 1, "TREATMENT", "2013-05-20", 1], ["CDISCPILOT01", "QS", "01-701-1146", 5020, "ACITM05", "CONSTRUCTIONAL PRAXIS", "ADAS-COG", "", "0", "", "0", 0, "", "", "", "", "", 7.0, "WEEK 6", 42, "TREATMENT", "2013-06-30", 42], ["CDISCPILOT01", "QS", "01-701-1146", 5006, "ACITM06", "IDEATIONAL PRAXIS", "ADAS-COG", "", "1", "", "1", 1, "", "", "", "Y", "", 3.0, "BASELINE", 1, "TREATMENT", "2013-05-20", 1], ["CDISCPILOT01", "QS", "01-701-1146", 5021, "ACITM06", "IDEATIONAL PRAXIS", "ADAS-COG", "", "1", "", "1", 1, "", "", "", "", "", 7.0, "WEEK 6", 42, "TREATMENT", "2013-06-30", 42], ["CDISCPILOT01", "QS", "01-701-1146", 5007, "ACITM07", "ORIENTATION", "ADAS-COG", "", "0", "", "0", 0, "", "", "", "Y", "", 3.0, "BASELINE", 1, "TREATMENT", "2013-05-20", 1], ["CDISCPILOT01", "QS", "01-701-1146", 5022, "ACITM07", "ORIENTATION", "ADAS-COG", "", "0", "", "0", 0, "", "", "", "", "", 7.0, "WEEK 6", 42, "TREATMENT", "2013-06-30", 42], ["CDISCPILOT01", "QS", "01-701-1146", 5008, "ACITM08", "WORD RECOGNITION", "ADAS-COG", "", "4", "", "4", 4, "", "", "", "Y", "", 3.0, "BASELINE", 1, "TREATMENT", "2013-05-20", 1], ["CDISCPILOT01", "QS", "01-701-1146", 5023, "ACITM08", "WORD RECOGNITION", "ADAS-COG", "", "3", "", "3", 3, "", "", "", "", "", 7.0, "WEEK 6", 42, "TREATMENT", "2013-06-30", 42], ["CDISCPILOT01", "QS", "01-701-1146", 5009, "ACITM09", "ATTENTION/VISUAL SEARCH TASK", "ADAS-COG", "", "17", "", "17", 17, "", "", "", "Y", "", 3.0, "BASELINE", 1, "TREATMENT", "2013-05-20", 1], ["CDISCPILOT01", "QS", "01-701-1146", 5024, "ACITM09", "ATTENTION/VISUAL SEARCH TASK", "ADAS-COG", "", "19", "", "19", 19, "", "", "", "", "", 7.0, "WEEK 6", 42, "TREATMENT", "2013-06-30", 42], ["CDISCPILOT01", "QS", "01-701-1146", 5010, "ACITM10", "MAZE SOLUTION", "ADAS-COG", "", "3", "sec", "3", 3, "sec", "", "", "Y", "", 3.0, "BASELINE", 1, "TREATMENT", "2013-05-20", 1], ["CDISCPILOT01", "QS", "01-701-1146", 5025, "ACITM10", "MAZE SOLUTION", "ADAS-COG", "", "13", "sec", "13", 13, "sec", "", "", "", "", 7.0, "WEEK 6", 42, "TREATMENT", "2013-06-30", 42], ["CDISCPILOT01", "QS", "01-701-1146", 5011, "ACITM11", "SPOKEN LANGUAGE ABILITY", "ADAS-COG", "", "1", "", "1", 1, "", "", "", "Y", "", 3.0, "BASELINE", 1, "TREATMENT", "2013-05-20", 1], ["CDISCPILOT01", "QS", "01-701-1146", 5026, "ACITM11", "SPOKEN LANGUAGE ABILITY", "ADAS-COG", "", "0", "", "0", 0, "", "", "", "", "", 7.0, "WEEK 6", 42, "TREATMENT", "2013-06-30", 42], ["CDISCPILOT01", "QS", "01-701-1146", 5012, "ACITM12", "COMPREHENSION OF SPOKEN LANGUAGE", "ADAS-COG", "", "0", "", "0", 0, "", "", "", "Y", "", 3.0, "BASELINE", 1, "TREATMENT", "2013-05-20", 1], ["CDISCPILOT01", "QS", "01-701-1146", 5027, "ACITM12", "COMPREHENSION OF SPOKEN LANGUAGE", "ADAS-COG", "", "0", "", "0", 0, "", "", "", "", "", 7.0, "WEEK 6", 42, "TREATMENT", "2013-06-30", 42], ["CDISCPILOT01", "QS", "01-701-1146", 5013, "ACITM13", "WORD FINDING DIFFICULTY IN SPONTANEOUS S", "ADAS-COG", "", "0", "", "0", 0, "", "", "", "Y", "", 3.0, "BASELINE", 1, "TREATMENT", "2013-05-20", 1], ["CDISCPILOT01", "QS", "01-701-1146", 5028, "ACITM13", "WORD FINDING DIFFICULTY IN SPONTANEOUS S", "ADAS-COG", "", "0", "", "0", 0, "", "", "", "", "", 7.0, "WEEK 6", 42, "TREATMENT", "2013-06-30", 42], ["CDISCPILOT01", "QS", "01-701-1146", 5014, "ACITM14", "RECALL OF TEST INSTRUCTIONS", "ADAS-COG", "", "0", "", "0", 0, "", "", "", "Y", "", 3.0, "BASELINE", 1, "TREATMENT", "2013-05-20", 1], ["CDISCPILOT01", "QS", "01-701-1146", 5029, "ACITM14", "RECALL OF TEST INSTRUCTIONS", "ADAS-COG", "", "2", "", "2", 2, "", "", "", "", "", 7.0, "WEEK 6", 42, "TREATMENT", "2013-06-30", 42], ["CDISCPILOT01", "QS", "01-701-1146", 5015, "ACTOT", "ADAS-COG(11) Subscore", "ADAS-COG", "", "", "", "11", 11, "", "", "", "Y", "Y", 3.0, "BASELINE", 1, "TREATMENT", "2013-05-20", 1], ["CDISCPILOT01", "QS", "01-701-1146", 5030, "ACTOT", "ADAS-COG(11) Subscore", "ADAS-COG", "", "", "", "10", 10, "", "", "", "", "Y", 7.0, "WEEK 6", 42, "TREATMENT", "2013-06-30", 42], ["CDISCPILOT01", "QS", "01-701-1148", 5001, "ACITM01", "WORD RECALL TASK", "ADAS-COG", "", "4", "", "4", 4, "", "", "", "Y", "", 3.0, "BASELINE", 1, "TREATMENT", "2013-08-23", 1], ["CDISCPILOT01", "QS", "01-701-1148", 5016, "ACITM01", "WORD RECALL TASK", "ADAS-COG", "", "4", "", "4", 4, "", "", "", "", "", 8.0, "WEEK 8", 56, "TREATMENT", "2013-10-18", 57], ["CDISCPILOT01", "QS", "01-701-1148", 5031, "ACITM01", "WORD RECALL TASK", "ADAS-COG", "", "4", "", "4", 4, "", "", "", "", "", 10.0, "WEEK 16", 112, "TREATMENT", "2013-12-13", 113], ["CDISCPILOT01", "QS", "01-701-1148", 5046, "ACITM01", "WORD RECALL TASK", "ADAS-COG", "", "6", "", "6", 6, "", "", "", "", "", 12.0, "WEEK 24", 168, "TREATMENT", "2014-02-08", 170], ["CDISCPILOT01", "QS", "01-701-1148", 5002, "ACITM02", "NAMING OBJECTS AND FINGERS (REFER TO 5 C", "ADAS-COG", "", "0", "", "0", 0, "", "", "", "Y", "", 3.0, "BASELINE", 1, "TREATMENT", "2013-08-23", 1], ["CDISCPILOT01", "QS", "01-701-1148", 5017, "ACITM02", "NAMING OBJECTS AND FINGERS (REFER TO 5 C", "ADAS-COG", "", "0", "", "0", 0, "", "", "", "", "", 8.0, "WEEK 8", 56, "TREATMENT", "2013-10-18", 57], ["CDISCPILOT01", "QS", "01-701-1148", 5032, "ACITM02", "NAMING OBJECTS AND FINGERS (REFER TO 5 C", "ADAS-COG", "", "0", "", "0", 0, "", "", "", "", "", 10.0, "WEEK 16", 112, "TREATMENT", "2013-12-13", 113], ["CDISCPILOT01", "QS", "01-701-1148", 5047, "ACITM02", "NAMING OBJECTS AND FINGERS (REFER TO 5 C", "ADAS-COG", "", "0", "", "0", 0, "", "", "", "", "", 12.0, "WEEK 24", 168, "TREATMENT", "2014-02-08", 170], ["CDISCPILOT01", "QS", "01-701-1148", 5003, "ACITM03", "DELAYED WORD RECALL", "ADAS-COG", "", "3", "", "3", 3, "", "", "", "Y", "", 3.0, "BASELINE", 1, "TREATMENT", "2013-08-23", 1], ["CDISCPILOT01", "QS", "01-701-1148", 5018, "ACITM03", "DELAYED WORD RECALL", "ADAS-COG", "", "3", "", "3", 3, "", "", "", "", "", 8.0, "WEEK 8", 56, "TREATMENT", "2013-10-18", 57], ["CDISCPILOT01", "QS", "01-701-1148", 5033, "ACITM03", "DELAYED WORD RECALL", "ADAS-COG", "", "4", "", "4", 4, "", "", "", "", "", 10.0, "WEEK 16", 112, "TREATMENT", "2013-12-13", 113], ["CDISCPILOT01", "QS", "01-701-1148", 5048, "ACITM03", "DELAYED WORD RECALL", "ADAS-COG", "", "5", "", "5", 5, "", "", "", "", "", 12.0, "WEEK 24", 168, "TREATMENT", "2014-02-08", 170], ["CDISCPILOT01", "QS", "01-701-1148", 5004, "ACITM04", "COMMANDS", "ADAS-COG", "", "0", "", "0", 0, "", "", "", "Y", "", 3.0, "BASELINE", 1, "TREATMENT", "2013-08-23", 1], ["CDISCPILOT01", "QS", "01-701-1148", 5019, "ACITM04", "COMMANDS", "ADAS-COG", "", "0", "", "0", 0, "", "", "", "", "", 8.0, "WEEK 8", 56, "TREATMENT", "2013-10-18", 57], ["CDISCPILOT01", "QS", "01-701-1148", 5034, "ACITM04", "COMMANDS", "ADAS-COG", "", "0", "", "0", 0, "", "", "", "", "", 10.0, "WEEK 16", 112, "TREATMENT", "2013-12-13", 113], ["CDISCPILOT01", "QS", "01-701-1148", 5049, "ACITM04", "COMMANDS", "ADAS-COG", "", "0", "", "0", 0, "", "", "", "", "", 12.0, "WEEK 24", 168, "TREATMENT", "2014-02-08", 170], ["CDISCPILOT01", "QS", "01-701-1148", 5005, "ACITM05", "CONSTRUCTIONAL PRAXIS", "ADAS-COG", "", "0", "", "0", 0, "", "", "", "Y", "", 3.0, "BASELINE", 1, "TREATMENT", "2013-08-23", 1], ["CDISCPILOT01", "QS", "01-701-1148", 5020, "ACITM05", "CONSTRUCTIONAL PRAXIS", "ADAS-COG", "", "1", "", "1", 1, "", "", "", "", "", 8.0, "WEEK 8", 56, "TREATMENT", "2013-10-18", 57], ["CDISCPILOT01", "QS", "01-701-1148", 5035, "ACITM05", "CONSTRUCTIONAL PRAXIS", "ADAS-COG", "", "2", "", "2", 2, "", "", "", "", "", 10.0, "WEEK 16", 112, "TREATMENT", "2013-12-13", 113], ["CDISCPILOT01", "QS", "01-701-1148", 5050, "ACITM05", "CONSTRUCTIONAL PRAXIS", "ADAS-COG", "", "1", "", "1", 1, "", "", "", "", "", 12.0, "WEEK 24", 168, "TREATMENT", "2014-02-08", 170], ["CDISCPILOT01", "QS", "01-701-1148", 5006, "ACITM06", "IDEATIONAL PRAXIS", "ADAS-COG", "", "0", "", "0", 0, "", "", "", "Y", "", 3.0, "BASELINE", 1, "TREATMENT", "2013-08-23", 1], ["CDISCPILOT01", "QS", "01-701-1148", 5021, "ACITM06", "IDEATIONAL PRAXIS", "ADAS-COG", "", "0", "", "0", 0, "", "", "", "", "", 8.0, "WEEK 8", 56, "TREATMENT", "2013-10-18", 57], ["CDISCPILOT01", "QS", "01-701-1148", 5036, "ACITM06", "IDEATIONAL PRAXIS", "ADAS-COG", "", "0", "", "0", 0, "", "", "", "", "", 10.0, "WEEK 16", 112, "TREATMENT", "2013-12-13", 113], ["CDISCPILOT01", "QS", "01-701-1148", 5051, "ACITM06", "IDEATIONAL PRAXIS", "ADAS-COG", "", "0", "", "0", 0, "", "", "", "", "", 12.0, "WEEK 24", 168, "TREATMENT", "2014-02-08", 170], ["CDISCPILOT01", "QS", "01-701-1148", 5007, "ACITM07", "ORIENTATION", "ADAS-COG", "", "0", "", "0", 0, "", "", "", "Y", "", 3.0, "BASELINE", 1, "TREATMENT", "2013-08-23", 1], ["CDISCPILOT01", "QS", "01-701-1148", 5022, "ACITM07", "ORIENTATION", "ADAS-COG", "", "0", "", "0", 0, "", "", "", "", "", 8.0, "WEEK 8", 56, "TREATMENT", "2013-10-18", 57], ["CDISCPILOT01", "QS", "01-701-1148", 5037, "ACITM07", "ORIENTATION", "ADAS-COG", "", "0", "", "0", 0, "", "", "", "", "", 10.0, "WEEK 16", 112, "TREATMENT", "2013-12-13", 113], ["CDISCPILOT01", "QS", "01-701-1148", 5052, "ACITM07", "ORIENTATION", "ADAS-COG", "", "0", "", "0", 0, "", "", "", "", "", 12.0, "WEEK 24", 168, "TREATMENT", "2014-02-08", 170], ["CDISCPILOT01", "QS", "01-701-1148", 5008, "ACITM08", "WORD RECOGNITION", "ADAS-COG", "", "1", "", "1", 1, "", "", "", "Y", "", 3.0, "BASELINE", 1, "TREATMENT", "2013-08-23", 1], ["CDISCPILOT01", "QS", "01-701-1148", 5023, "ACITM08", "WORD RECOGNITION", "ADAS-COG", "", "1", "", "1", 1, "", "", "", "", "", 8.0, "WEEK 8", 56, "TREATMENT", "2013-10-18", 57], ["CDISCPILOT01", "QS", "01-701-1148", 5038, "ACITM08", "WORD RECOGNITION", "ADAS-COG", "", "0", "", "0", 0, "", "", "", "", "", 10.0, "WEEK 16", 112, "TREATMENT", "2013-12-13", 113], ["CDISCPILOT01", "QS", "01-701-1148", 5053, "ACITM08", "WORD RECOGNITION", "ADAS-COG", "", "0", "", "0", 0, "", "", "", "", "", 12.0, "WEEK 24", 168, "TREATMENT", "2014-02-08", 170], ["CDISCPILOT01", "QS", "01-701-1148", 5009, "ACITM09", "ATTENTION/VISUAL SEARCH TASK", "ADAS-COG", "", "29", "", "29", 29, "", "", "", "Y", "", 3.0, "BASELINE", 1, "TREATMENT", "2013-08-23", 1], ["CDISCPILOT01", "QS", "01-701-1148", 5024, "ACITM09", "ATTENTION/VISUAL SEARCH TASK", "ADAS-COG", "", "27", "", "27", 27, "", "", "", "", "", 8.0, "WEEK 8", 56, "TREATMENT", "2013-10-18", 57], ["CDISCPILOT01", "QS", "01-701-1148", 5039, "ACITM09", "ATTENTION/VISUAL SEARCH TASK", "ADAS-COG", "", "34", "", "34", 34, "", "", "", "", "", 10.0, "WEEK 16", 112, "TREATMENT", "2013-12-13", 113], ["CDISCPILOT01", "QS", "01-701-1148", 5054, "ACITM09", "ATTENTION/VISUAL SEARCH TASK", "ADAS-COG", "", "39", "", "39", 39, "", "", "", "", "", 12.0, "WEEK 24", 168, "TREATMENT", "2014-02-08", 170], ["CDISCPILOT01", "QS", "01-701-1148", 5010, "ACITM10", "MAZE SOLUTION", "ADAS-COG", "", "4", "sec", "4", 4, "sec", "", "", "Y", "", 3.0, "BASELINE", 1, "TREATMENT", "2013-08-23", 1], ["CDISCPILOT01", "QS", "01-701-1148", 5025, "ACITM10", "MAZE SOLUTION", "ADAS-COG", "", "2", "sec", "2", 2, "sec", "", "", "", "", 8.0, "WEEK 8", 56, "TREATMENT", "2013-10-18", 57], ["CDISCPILOT01", "QS", "01-701-1148", 5040, "ACITM10", "MAZE SOLUTION", "ADAS-COG", "", "3", "sec", "3", 3, "sec", "", "", "", "", 10.0, "WEEK 16", 112, "TREATMENT", "2013-12-13", 113], ["CDISCPILOT01", "QS", "01-701-1148", 5055, "ACITM10", "MAZE SOLUTION", "ADAS-COG", "", "2", "sec", "2", 2, "sec", "", "", "", "", 12.0, "WEEK 24", 168, "TREATMENT", "2014-02-08", 170], ["CDISCPILOT01", "QS", "01-701-1148", 5011, "ACITM11", "SPOKEN LANGUAGE ABILITY", "ADAS-COG", "", "0", "", "0", 0, "", "", "", "Y", "", 3.0, "BASELINE", 1, "TREATMENT", "2013-08-23", 1], ["CDISCPILOT01", "QS", "01-701-1148", 5026, "ACITM11", "SPOKEN LANGUAGE ABILITY", "ADAS-COG", "", "0", "", "0", 0, "", "", "", "", "", 8.0, "WEEK 8", 56, "TREATMENT", "2013-10-18", 57], ["CDISCPILOT01", "QS", "01-701-1148", 5041, "ACITM11", "SPOKEN LANGUAGE ABILITY", "ADAS-COG", "", "0", "", "0", 0, "", "", "", "", "", 10.0, "WEEK 16", 112, "TREATMENT", "2013-12-13", 113], ["CDISCPILOT01", "QS", "01-701-1148", 5056, "ACITM11", "SPOKEN LANGUAGE ABILITY", "ADAS-COG", "", "0", "", "0", 0, "", "", "", "", "", 12.0, "WEEK 24", 168, "TREATMENT", "2014-02-08", 170], ["CDISCPILOT01", "QS", "01-701-1148", 5012, "ACITM12", "COMPREHENSION OF SPOKEN LANGUAGE", "ADAS-COG", "", "0", "", "0", 0, "", "", "", "Y", "", 3.0, "BASELINE", 1, "TREATMENT", "2013-08-23", 1], ["CDISCPILOT01", "QS", "01-701-1148", 5027, "ACITM12", "COMPREHENSION OF SPOKEN LANGUAGE", "ADAS-COG", "", "0", "", "0", 0, "", "", "", "", "", 8.0, "WEEK 8", 56, "TREATMENT", "2013-10-18", 57], ["CDISCPILOT01", "QS", "01-701-1148", 5042, "ACITM12", "COMPREHENSION OF SPOKEN LANGUAGE", "ADAS-COG", "", "0", "", "0", 0, "", "", "", "", "", 10.0, "WEEK 16", 112, "TREATMENT", "2013-12-13", 113], ["CDISCPILOT01", "QS", "01-701-1148", 5057, "ACITM12", "COMPREHENSION OF SPOKEN LANGUAGE", "ADAS-COG", "", "0", "", "0", 0, "", "", "", "", "", 12.0, "WEEK 24", 168, "TREATMENT", "2014-02-08", 170], ["CDISCPILOT01", "QS", "01-701-1148", 5013, "ACITM13", "WORD FINDING DIFFICULTY IN SPONTANEOUS S", "ADAS-COG", "", "0", "", "0", 0, "", "", "", "Y", "", 3.0, "BASELINE", 1, "TREATMENT", "2013-08-23", 1], ["CDISCPILOT01", "QS", "01-701-1148", 5028, "ACITM13", "WORD FINDING DIFFICULTY IN SPONTANEOUS S", "ADAS-COG", "", "0", "", "0", 0, "", "", "", "", "", 8.0, "WEEK 8", 56, "TREATMENT", "2013-10-18", 57], ["CDISCPILOT01", "QS", "01-701-1148", 5043, "ACITM13", "WORD FINDING DIFFICULTY IN SPONTANEOUS S", "ADAS-COG", "", "0", "", "0", 0, "", "", "", "", "", 10.0, "WEEK 16", 112, "TREATMENT", "2013-12-13", 113], ["CDISCPILOT01", "QS", "01-701-1148", 5058, "ACITM13", "WORD FINDING DIFFICULTY IN SPONTANEOUS S", "ADAS-COG", "", "0", "", "0", 0, "", "", "", "", "", 12.0, "WEEK 24", 168, "TREATMENT", "2014-02-08", 170], ["CDISCPILOT01", "QS", "01-701-1148", 5014, "ACITM14", "RECALL OF TEST INSTRUCTIONS", "ADAS-COG", "", "0", "", "0", 0, "", "", "", "Y", "", 3.0, "BASELINE", 1, "TREATMENT", "2013-08-23", 1], ["CDISCPILOT01", "QS", "01-701-1148", 5029, "ACITM14", "RECALL OF TEST INSTRUCTIONS", "ADAS-COG", "", "0", "", "0", 0, "", "", "", "", "", 8.0, "WEEK 8", 56, "TREATMENT", "2013-10-18", 57], ["CDISCPILOT01", "QS", "01-701-1148", 5044, "ACITM14", "RECALL OF TEST INSTRUCTIONS", "ADAS-COG", "", "0", "", "0", 0, "", "", "", "", "", 10.0, "WEEK 16", 112, "TREATMENT", "2013-12-13", 113], ["CDISCPILOT01", "QS", "01-701-1148", 5059, "ACITM14", "RECALL OF TEST INSTRUCTIONS", "ADAS-COG", "", "0", "", "0", 0, "", "", "", "", "", 12.0, "WEEK 24", 168, "TREATMENT", "2014-02-08", 170], ["CDISCPILOT01", "QS", "01-701-1148", 5015, "ACTOT", "ADAS-COG(11) Subscore", "ADAS-COG", "", "", "", "5", 5, "", "", "", "Y", "Y", 3.0, "BASELINE", 1, "TREATMENT", "2013-08-23", 1], ["CDISCPILOT01", "QS", "01-701-1148", 5030, "ACTOT", "ADAS-COG(11) Subscore", "ADAS-COG", "", "", "", "6", 6, "", "", "", "", "Y", 8.0, "WEEK 8", 56, "TREATMENT", "2013-10-18", 57], ["CDISCPILOT01", "QS", "01-701-1148", 5045, "ACTOT", "ADAS-COG(11) Subscore", "ADAS-COG", "", "", "", "6", 6, "", "", "", "", "Y", 10.0, "WEEK 16", 112, "TREATMENT", "2013-12-13", 113], ["CDISCPILOT01", "QS", "01-701-1148", 5060, "ACTOT", "ADAS-COG(11) Subscore", "ADAS-COG", "", "", "", "7", 7, "", "", "", "", "Y", 12.0, "WEEK 24", 168, "TREATMENT", "2014-02-08", 170], ["CDISCPILOT01", "QS", "01-701-1153", 5001, "ACITM01", "WORD RECALL TASK", "ADAS-COG", "", "10", "", "10", 10, "", "", "", "Y", "", 3.0, "BASELINE", 1, "TREATMENT", "2013-09-23", 1], ["CDISCPILOT01", "QS", "01-701-1153", 5016, "ACITM01", "WORD RECALL TASK", "ADAS-COG", "", "10", "", "10", 10, "", "", "", "", "", 8.0, "WEEK 8", 56, "TREATMENT", "2013-11-18", 57], ["CDISCPILOT01", "QS", "01-701-1153", 5031, "ACITM01", "WORD RECALL TASK", "ADAS-COG", "", "10", "", "10", 10, "", "", "", "", "", 10.0, "WEEK 16", 112, "TREATMENT", "2014-01-08", 108], ["CDISCPILOT01", "QS", "01-701-1153", 5046, "ACITM01", "WORD RECALL TASK", "ADAS-COG", "", "10", "", "10", 10, "", "", "", "", "", 12.0, "WEEK 24", 168, "TREATMENT", "2014-03-11", 170], ["CDISCPILOT01", "QS", "01-701-1153", 5002, "ACITM02", "NAMING OBJECTS AND FINGERS (REFER TO 5 C", "ADAS-COG", "", "4", "", "4", 4, "", "", "", "Y", "", 3.0, "BASELINE", 1, "TREATMENT", "2013-09-23", 1], ["CDISCPILOT01", "QS", "01-701-1153", 5017, "ACITM02", "NAMING OBJECTS AND FINGERS (REFER TO 5 C", "ADAS-COG", "", "4", "", "4", 4, "", "", "", "", "", 8.0, "WEEK 8", 56, "TREATMENT", "2013-11-18", 57], ["CDISCPILOT01", "QS", "01-701-1153", 5032, "ACITM02", "NAMING OBJECTS AND FINGERS (REFER TO 5 C", "ADAS-COG", "", "5", "", "5", 5, "", "", "", "", "", 10.0, "WEEK 16", 112, "TREATMENT", "2014-01-08", 108], ["CDISCPILOT01", "QS", "01-701-1153", 5047, "ACITM02", "NAMING OBJECTS AND FINGERS (REFER TO 5 C", "ADAS-COG", "", "4", "", "4", 4, "", "", "", "", "", 12.0, "WEEK 24", 168, "TREATMENT", "2014-03-11", 170], ["CDISCPILOT01", "QS", "01-701-1153", 5003, "ACITM03", "DELAYED WORD RECALL", "ADAS-COG", "", "10", "", "10", 10, "", "", "", "Y", "", 3.0, "BASELINE", 1, "TREATMENT", "2013-09-23", 1], ["CDISCPILOT01", "QS", "01-701-1153", 5018, "ACITM03", "DELAYED WORD RECALL", "ADAS-COG", "", "10", "", "10", 10, "", "", "", "", "", 8.0, "WEEK 8", 56, "TREATMENT", "2013-11-18", 57], ["CDISCPILOT01", "QS", "01-701-1153", 5033, "ACITM03", "DELAYED WORD RECALL", "ADAS-COG", "", "10", "", "10", 10, "", "", "", "", "", 10.0, "WEEK 16", 112, "TREATMENT", "2014-01-08", 108], ["CDISCPILOT01", "QS", "01-701-1153", 5048, "ACITM03", "DELAYED WORD RECALL", "ADAS-COG", "", "10", "", "10", 10, "", "", "", "", "", 12.0, "WEEK 24", 168, "TREATMENT", "2014-03-11", 170], ["CDISCPILOT01", "QS", "01-701-1153", 5004, "ACITM04", "COMMANDS", "ADAS-COG", "", "3", "", "3", 3, "", "", "", "Y", "", 3.0, "BASELINE", 1, "TREATMENT", "2013-09-23", 1], ["CDISCPILOT01", "QS", "01-701-1153", 5019, "ACITM04", "COMMANDS", "ADAS-COG", "", "2", "", "2", 2, "", "", "", "", "", 8.0, "WEEK 8", 56, "TREATMENT", "2013-11-18", 57], ["CDISCPILOT01", "QS", "01-701-1153", 5034, "ACITM04", "COMMANDS", "ADAS-COG", "", "2", "", "2", 2, "", "", "", "", "", 10.0, "WEEK 16", 112, "TREATMENT", "2014-01-08", 108], ["CDISCPILOT01", "QS", "01-701-1153", 5049, "ACITM04", "COMMANDS", "ADAS-COG", "", "1", "", "1", 1, "", "", "", "", "", 12.0, "WEEK 24", 168, "TREATMENT", "2014-03-11", 170], ["CDISCPILOT01", "QS", "01-701-1153", 5005, "ACITM05", "CONSTRUCTIONAL PRAXIS", "ADAS-COG", "", "2", "", "2", 2, "", "", "", "Y", "", 3.0, "BASELINE", 1, "TREATMENT", "2013-09-23", 1], ["CDISCPILOT01", "QS", "01-701-1153", 5020, "ACITM05", "CONSTRUCTIONAL PRAXIS", "ADAS-COG", "", "1", "", "1", 1, "", "", "", "", "", 8.0, "WEEK 8", 56, "TREATMENT", "2013-11-18", 57], ["CDISCPILOT01", "QS", "01-701-1153", 5035, "ACITM05", "CONSTRUCTIONAL PRAXIS", "ADAS-COG", "", "2", "", "2", 2, "", "", "", "", "", 10.0, "WEEK 16", 112, "TREATMENT", "2014-01-08", 108], ["CDISCPILOT01", "QS", "01-701-1153", 5050, "ACITM05", "CONSTRUCTIONAL PRAXIS", "ADAS-COG", "", "2", "", "2", 2, "", "", "", "", "", 12.0, "WEEK 24", 168, "TREATMENT", "2014-03-11", 170], ["CDISCPILOT01", "QS", "01-701-1153", 5006, "ACITM06", "IDEATIONAL PRAXIS", "ADAS-COG", "", "1", "", "1", 1, "", "", "", "Y", "", 3.0, "BASELINE", 1, "TREATMENT", "2013-09-23", 1], ["CDISCPILOT01", "QS", "01-701-1153", 5021, "ACITM06", "IDEATIONAL PRAXIS", "ADAS-COG", "", "0", "", "0", 0, "", "", "", "", "", 8.0, "WEEK 8", 56, "TREATMENT", "2013-11-18", 57], ["CDISCPILOT01", "QS", "01-701-1153", 5036, "ACITM06", "IDEATIONAL PRAXIS", "ADAS-COG", "", "1", "", "1", 1, "", "", "", "", "", 10.0, "WEEK 16", 112, "TREATMENT", "2014-01-08", 108], ["CDISCPILOT01", "QS", "01-701-1153", 5051, "ACITM06", "IDEATIONAL PRAXIS", "ADAS-COG", "", "1", "", "1", 1, "", "", "", "", "", 12.0, "WEEK 24", 168, "TREATMENT", "2014-03-11", 170], ["CDISCPILOT01", "QS", "01-701-1153", 5007, "ACITM07", "ORIENTATION", "ADAS-COG", "", "6", "", "6", 6, "", "", "", "Y", "", 3.0, "BASELINE", 1, "TREATMENT", "2013-09-23", 1], ["CDISCPILOT01", "QS", "01-701-1153", 5022, "ACITM07", "ORIENTATION", "ADAS-COG", "", "7", "", "7", 7, "", "", "", "", "", 8.0, "WEEK 8", 56, "TREATMENT", "2013-11-18", 57], ["CDISCPILOT01", "QS", "01-701-1153", 5037, "ACITM07", "ORIENTATION", "ADAS-COG", "", "8", "", "8", 8, "", "", "", "", "", 10.0, "WEEK 16", 112, "TREATMENT", "2014-01-08", 108], ["CDISCPILOT01", "QS", "01-701-1153", 5052, "ACITM07", "ORIENTATION", "ADAS-COG", "", "8", "", "8", 8, "", "", "", "", "", 12.0, "WEEK 24", 168, "TREATMENT", "2014-03-11", 170], ["CDISCPILOT01", "QS", "01-701-1153", 5008, "ACITM08", "WORD RECOGNITION", "ADAS-COG", "", "10", "", "10", 10, "", "", "", "Y", "", 3.0, "BASELINE", 1, "TREATMENT", "2013-09-23", 1], ["CDISCPILOT01", "QS", "01-701-1153", 5023, "ACITM08", "WORD RECOGNITION", "ADAS-COG", "", "12", "", "12", 12, "", "", "", "", "", 8.0, "WEEK 8", 56, "TREATMENT", "2013-11-18", 57], ["CDISCPILOT01", "QS", "01-701-1153", 5038, "ACITM08", "WORD RECOGNITION", "ADAS-COG", "", "12", "", "12", 12, "", "", "", "", "", 10.0, "WEEK 16", 112, "TREATMENT", "2014-01-08", 108], ["CDISCPILOT01", "QS", "01-701-1153", 5053, "ACITM08", "WORD RECOGNITION", "ADAS-COG", "", "11", "", "11", 11, "", "", "", "", "", 12.0, "WEEK 24", 168, "TREATMENT", "2014-03-11", 170], ["CDISCPILOT01", "QS", "01-701-1153", 5009, "ACITM09", "ATTENTION/VISUAL SEARCH TASK", "ADAS-COG", "", "1", "", "1", 1, "", "", "", "Y", "", 3.0, "BASELINE", 1, "TREATMENT", "2013-09-23", 1], ["CDISCPILOT01", "QS", "01-701-1153", 5024, "ACITM09", "ATTENTION/VISUAL SEARCH TASK", "ADAS-COG", "", "4", "", "4", 4, "", "", "", "", "", 8.0, "WEEK 8", 56, "TREATMENT", "2013-11-18", 57], ["CDISCPILOT01", "QS", "01-701-1153", 5039, "ACITM09", "ATTENTION/VISUAL SEARCH TASK", "ADAS-COG", "", "3", "", "3", 3, "", "", "", "", "", 10.0, "WEEK 16", 112, "TREATMENT", "2014-01-08", 108], ["CDISCPILOT01", "QS", "01-701-1153", 5054, "ACITM09", "ATTENTION/VISUAL SEARCH TASK", "ADAS-COG", "", "5", "", "5", 5, "", "", "", "", "", 12.0, "WEEK 24", 168, "TREATMENT", "2014-03-11", 170], ["CDISCPILOT01", "QS", "01-701-1153", 5010, "ACITM10", "MAZE SOLUTION", "ADAS-COG", "", "15", "sec", "15", 15, "sec", "", "", "Y", "", 3.0, "BASELINE", 1, "TREATMENT", "2013-09-23", 1], ["CDISCPILOT01", "QS", "01-701-1153", 5025, "ACITM10", "MAZE SOLUTION", "ADAS-COG", "", "17", "sec", "17", 17, "sec", "", "", "", "", 8.0, "WEEK 8", 56, "TREATMENT", "2013-11-18", 57], ["CDISCPILOT01", "QS", "01-701-1153", 5040, "ACITM10", "MAZE SOLUTION", "ADAS-COG", "", "20", "sec", "20", 20, "sec", "", "", "", "", 10.0, "WEEK 16", 112, "TREATMENT", "2014-01-08", 108], ["CDISCPILOT01", "QS", "01-701-1153", 5055, "ACITM10", "MAZE SOLUTION", "ADAS-COG", "", "28", "sec", "28", 28, "sec", "", "", "", "", 12.0, "WEEK 24", 168, "TREATMENT", "2014-03-11", 170], ["CDISCPILOT01", "QS", "01-701-1153", 5011, "ACITM11", "SPOKEN LANGUAGE ABILITY", "ADAS-COG", "", "2", "", "2", 2, "", "", "", "Y", "", 3.0, "BASELINE", 1, "TREATMENT", "2013-09-23", 1], ["CDISCPILOT01", "QS", "01-701-1153", 5026, "ACITM11", "SPOKEN LANGUAGE ABILITY", "ADAS-COG", "", "2", "", "2", 2, "", "", "", "", "", 8.0, "WEEK 8", 56, "TREATMENT", "2013-11-18", 57], ["CDISCPILOT01", "QS", "01-701-1153", 5041, "ACITM11", "SPOKEN LANGUAGE ABILITY", "ADAS-COG", "", "4", "", "4", 4, "", "", "", "", "", 10.0, "WEEK 16", 112, "TREATMENT", "2014-01-08", 108], ["CDISCPILOT01", "QS", "01-701-1153", 5056, "ACITM11", "SPOKEN LANGUAGE ABILITY", "ADAS-COG", "", "4", "", "4", 4, "", "", "", "", "", 12.0, "WEEK 24", 168, "TREATMENT", "2014-03-11", 170], ["CDISCPILOT01", "QS", "01-701-1153", 5012, "ACITM12", "COMPREHENSION OF SPOKEN LANGUAGE", "ADAS-COG", "", "2", "", "2", 2, "", "", "", "Y", "", 3.0, "BASELINE", 1, "TREATMENT", "2013-09-23", 1], ["CDISCPILOT01", "QS", "01-701-1153", 5027, "ACITM12", "COMPREHENSION OF SPOKEN LANGUAGE", "ADAS-COG", "", "2", "", "2", 2, "", "", "", "", "", 8.0, "WEEK 8", 56, "TREATMENT", "2013-11-18", 57], ["CDISCPILOT01", "QS", "01-701-1153", 5042, "ACITM12", "COMPREHENSION OF SPOKEN LANGUAGE", "ADAS-COG", "", "3", "", "3", 3, "", "", "", "", "", 10.0, "WEEK 16", 112, "TREATMENT", "2014-01-08", 108], ["CDISCPILOT01", "QS", "01-701-1153", 5057, "ACITM12", "COMPREHENSION OF SPOKEN LANGUAGE", "ADAS-COG", "", "3", "", "3", 3, "", "", "", "", "", 12.0, "WEEK 24", 168, "TREATMENT", "2014-03-11", 170], ["CDISCPILOT01", "QS", "01-701-1153", 5013, "ACITM13", "WORD FINDING DIFFICULTY IN SPONTANEOUS S", "ADAS-COG", "", "3", "", "3", 3, "", "", "", "Y", "", 3.0, "BASELINE", 1, "TREATMENT", "2013-09-23", 1], ["CDISCPILOT01", "QS", "01-701-1153", 5028, "ACITM13", "WORD FINDING DIFFICULTY IN SPONTANEOUS S", "ADAS-COG", "", "2", "", "2", 2, "", "", "", "", "", 8.0, "WEEK 8", 56, "TREATMENT", "2013-11-18", 57], ["CDISCPILOT01", "QS", "01-701-1153", 5043, "ACITM13", "WORD FINDING DIFFICULTY IN SPONTANEOUS S", "ADAS-COG", "", "3", "", "3", 3, "", "", "", "", "", 10.0, "WEEK 16", 112, "TREATMENT", "2014-01-08", 108], ["CDISCPILOT01", "QS", "01-701-1153", 5058, "ACITM13", "WORD FINDING DIFFICULTY IN SPONTANEOUS S", "ADAS-COG", "", "3", "", "3", 3, "", "", "", "", "", 12.0, "WEEK 24", 168, "TREATMENT", "2014-03-11", 170], ["CDISCPILOT01", "QS", "01-701-1153", 5014, "ACITM14", "RECALL OF TEST INSTRUCTIONS", "ADAS-COG", "", "5", "", "5", 5, "", "", "", "Y", "", 3.0, "BASELINE", 1, "TREATMENT", "2013-09-23", 1], ["CDISCPILOT01", "QS", "01-701-1153", 5029, "ACITM14", "RECALL OF TEST INSTRUCTIONS", "ADAS-COG", "", "5", "", "5", 5, "", "", "", "", "", 8.0, "WEEK 8", 56, "TREATMENT", "2013-11-18", 57], ["CDISCPILOT01", "QS", "01-701-1153", 5044, "ACITM14", "RECALL OF TEST INSTRUCTIONS", "ADAS-COG", "", "5", "", "5", 5, "", "", "", "", "", 10.0, "WEEK 16", 112, "TREATMENT", "2014-01-08", 108], ["CDISCPILOT01", "QS", "01-701-1153", 5059, "ACITM14", "RECALL OF TEST INSTRUCTIONS", "ADAS-COG", "", "5", "", "5", 5, "", "", "", "", "", 12.0, "WEEK 24", 168, "TREATMENT", "2014-03-11", 170], ["CDISCPILOT01", "QS", "01-701-1153", 5015, "ACTOT", "ADAS-COG(11) Subscore", "ADAS-COG", "", "", "", "48", 48, "", "", "", "Y", "Y", 3.0, "BASELINE", 1, "TREATMENT", "2013-09-23", 1], ["CDISCPILOT01", "QS", "01-701-1153", 5030, "ACTOT", "ADAS-COG(11) Subscore", "ADAS-COG", "", "", "", "47", 47, "", "", "", "", "Y", 8.0, "WEEK 8", 56, "TREATMENT", "2013-11-18", 57], ["CDISCPILOT01", "QS", "01-701-1153", 5045, "ACTOT", "ADAS-COG(11) Subscore", "ADAS-COG", "", "", "", "55", 55, "", "", "", "", "Y", 10.0, "WEEK 16", 112, "TREATMENT", "2014-01-08", 108], ["CDISCPILOT01", "QS", "01-701-1153", 5060, "ACTOT", "ADAS-COG(11) Subscore", "ADAS-COG", "", "", "", "52", 52, "", "", "", "", "Y", 12.0, "WEEK 24", 168, "TREATMENT", "2014-03-11", 170], ["CDISCPILOT01", "QS", "01-701-1180", 5001, "ACITM01", "WORD RECALL TASK", "ADAS-COG", "", "7", "", "7", 7, "", "", "", "Y", "", 3.0, "BASELINE", 1, "TREATMENT", "2013-02-12", 1], ["CDISCPILOT01", "QS", "01-701-1180", 5016, "ACITM01", "WORD RECALL TASK", "ADAS-COG", "", "5", "", "5", 5, "", "", "", "", "", 7.0, "WEEK 6", 42, "TREATMENT", "2013-03-23", 40], ["CDISCPILOT01", "QS", "01-701-1180", 5002, "ACITM02", "NAMING OBJECTS AND FINGERS (REFER TO 5 C", "ADAS-COG", "", "2", "", "2", 2, "", "", "", "Y", "", 3.0, "BASELINE", 1, "TREATMENT", "2013-02-12", 1], ["CDISCPILOT01", "QS", "01-701-1180", 5017, "ACITM02", "NAMING OBJECTS AND FINGERS (REFER TO 5 C", "ADAS-COG", "", "5", "", "5", 5, "", "", "", "", "", 7.0, "WEEK 6", 42, "TREATMENT", "2013-03-23", 40], ["CDISCPILOT01", "QS", "01-701-1180", 5003, "ACITM03", "DELAYED WORD RECALL", "ADAS-COG", "", "8", "", "8", 8, "", "", "", "Y", "", 3.0, "BASELINE", 1, "TREATMENT", "2013-02-12", 1], ["CDISCPILOT01", "QS", "01-701-1180", 5018, "ACITM03", "DELAYED WORD RECALL", "ADAS-COG", "", "9", "", "9", 9, "", "", "", "", "", 7.0, "WEEK 6", 42, "TREATMENT", "2013-03-23", 40], ["CDISCPILOT01", "QS", "01-701-1180", 5004, "ACITM04", "COMMANDS", "ADAS-COG", "", "2", "", "2", 2, "", "", "", "Y", "", 3.0, "BASELINE", 1, "TREATMENT", "2013-02-12", 1], ["CDISCPILOT01", "QS", "01-701-1180", 5019, "ACITM04", "COMMANDS", "ADAS-COG", "", "3", "", "3", 3, "", "", "", "", "", 7.0, "WEEK 6", 42, "TREATMENT", "2013-03-23", 40], ["CDISCPILOT01", "QS", "01-701-1180", 5005, "ACITM05", "CONSTRUCTIONAL PRAXIS", "ADAS-COG", "", "4", "", "4", 4, "", "", "", "Y", "", 3.0, "BASELINE", 1, "TREATMENT", "2013-02-12", 1], ["CDISCPILOT01", "QS", "01-701-1180", 5020, "ACITM05", "CONSTRUCTIONAL PRAXIS", "ADAS-COG", "", "4", "", "4", 4, "", "", "", "", "", 7.0, "WEEK 6", 42, "TREATMENT", "2013-03-23", 40], ["CDISCPILOT01", "QS", "01-701-1180", 5006, "ACITM06", "IDEATIONAL PRAXIS", "ADAS-COG", "", "0", "", "0", 0, "", "", "", "Y", "", 3.0, "BASELINE", 1, "TREATMENT", "2013-02-12", 1], ["CDISCPILOT01", "QS", "01-701-1180", 5021, "ACITM06", "IDEATIONAL PRAXIS", "ADAS-COG", "", "0", "", "0", 0, "", "", "", "", "", 7.0, "WEEK 6", 42, "TREATMENT", "2013-03-23", 40], ["CDISCPILOT01", "QS", "01-701-1180", 5007, "ACITM07", "ORIENTATION", "ADAS-COG", "", "2", "", "2", 2, "", "", "", "Y", "", 3.0, "BASELINE", 1, "TREATMENT", "2013-02-12", 1], ["CDISCPILOT01", "QS", "01-701-1180", 5022, "ACITM07", "ORIENTATION", "ADAS-COG", "", "0", "", "0", 0, "", "", "", "", "", 7.0, "WEEK 6", 42, "TREATMENT", "2013-03-23", 40], ["CDISCPILOT01", "QS", "01-701-1180", 5008, "ACITM08", "WORD RECOGNITION", "ADAS-COG", "", "9", "", "9", 9, "", "", "", "Y", "", 3.0, "BASELINE", 1, "TREATMENT", "2013-02-12", 1], ["CDISCPILOT01", "QS", "01-701-1180", 5023, "ACITM08", "WORD RECOGNITION", "ADAS-COG", "", "9", "", "9", 9, "", "", "", "", "", 7.0, "WEEK 6", 42, "TREATMENT", "2013-03-23", 40], ["CDISCPILOT01", "QS", "01-701-1180", 5009, "ACITM09", "ATTENTION/VISUAL SEARCH TASK", "ADAS-COG", "", "16", "", "16", 16, "", "", "", "Y", "", 3.0, "BASELINE", 1, "TREATMENT", "2013-02-12", 1], ["CDISCPILOT01", "QS", "01-701-1180", 5024, "ACITM09", "ATTENTION/VISUAL SEARCH TASK", "ADAS-COG", "", "9", "", "9", 9, "", "", "", "", "", 7.0, "WEEK 6", 42, "TREATMENT", "2013-03-23", 40], ["CDISCPILOT01", "QS", "01-701-1180", 5010, "ACITM10", "MAZE SOLUTION", "ADAS-COG", "", "5", "sec", "5", 5, "sec", "", "", "Y", "", 3.0, "BASELINE", 1, "TREATMENT", "2013-02-12", 1], ["CDISCPILOT01", "QS", "01-701-1180", 5025, "ACITM10", "MAZE SOLUTION", "ADAS-COG", "", "2", "sec", "2", 2, "sec", "", "", "", "", 7.0, "WEEK 6", 42, "TREATMENT", "2013-03-23", 40], ["CDISCPILOT01", "QS", "01-701-1180", 5011, "ACITM11", "SPOKEN LANGUAGE ABILITY", "ADAS-COG", "", "1", "", "1", 1, "", "", "", "Y", "", 3.0, "BASELINE", 1, "TREATMENT", "2013-02-12", 1], ["CDISCPILOT01", "QS", "01-701-1180", 5026, "ACITM11", "SPOKEN LANGUAGE ABILITY", "ADAS-COG", "", "0", "", "0", 0, "", "", "", "", "", 7.0, "WEEK 6", 42, "TREATMENT", "2013-03-23", 40], ["CDISCPILOT01", "QS", "01-701-1180", 5012, "ACITM12", "COMPREHENSION OF SPOKEN LANGUAGE", "ADAS-COG", "", "1", "", "1", 1, "", "", "", "Y", "", 3.0, "BASELINE", 1, "TREATMENT", "2013-02-12", 1], ["CDISCPILOT01", "QS", "01-701-1180", 5027, "ACITM12", "COMPREHENSION OF SPOKEN LANGUAGE", "ADAS-COG", "", "1", "", "1", 1, "", "", "", "", "", 7.0, "WEEK 6", 42, "TREATMENT", "2013-03-23", 40], ["CDISCPILOT01", "QS", "01-701-1180", 5013, "ACITM13", "WORD FINDING DIFFICULTY IN SPONTANEOUS S", "ADAS-COG", "", "1", "", "1", 1, "", "", "", "Y", "", 3.0, "BASELINE", 1, "TREATMENT", "2013-02-12", 1], ["CDISCPILOT01", "QS", "01-701-1180", 5028, "ACITM13", "WORD FINDING DIFFICULTY IN SPONTANEOUS S", "ADAS-COG", "", "1", "", "1", 1, "", "", "", "", "", 7.0, "WEEK 6", 42, "TREATMENT", "2013-03-23", 40], ["CDISCPILOT01", "QS", "01-701-1180", 5014, "ACITM14", "RECALL OF TEST INSTRUCTIONS", "ADAS-COG", "", "1", "", "1", 1, "", "", "", "Y", "", 3.0, "BASELINE", 1, "TREATMENT", "2013-02-12", 1], ["CDISCPILOT01", "QS", "01-701-1180", 5029, "ACITM14", "RECALL OF TEST INSTRUCTIONS", "ADAS-COG", "", "3", "", "3", 3, "", "", "", "", "", 7.0, "WEEK 6", 42, "TREATMENT", "2013-03-23", 40], ["CDISCPILOT01", "QS", "01-701-1180", 5015, "ACTOT", "ADAS-COG(11) Subscore", "ADAS-COG", "", "", "", "30", 30, "", "", "", "Y", "Y", 3.0, "BASELINE", 1, "TREATMENT", "2013-02-12", 1], ["CDISCPILOT01", "QS", "01-701-1180", 5030, "ACTOT", "ADAS-COG(11) Subscore", "ADAS-COG", "", "", "", "31", 31, "", "", "", "", "Y", 7.0, "WEEK 6", 42, "TREATMENT", "2013-03-23", 40], ["CDISCPILOT01", "QS", "01-701-1181", 5001, "ACITM01", "WORD RECALL TASK", "ADAS-COG", "", "7", "", "7", 7, "", "", "", "Y", "", 3.0, "BASELINE", 1, "TREATMENT", "2013-12-05", 1], ["CDISCPILOT01", "QS", "01-701-1181", 5016, "ACITM01", "WORD RECALL TASK", "ADAS-COG", "", "9", "", "9", 9, "", "", "", "", "", 4.0, "WEEK 2", 14, "TREATMENT", "2013-12-12", 8], ["CDISCPILOT01", "QS", "01-701-1181", 5031, "ACITM01", "WORD RECALL TASK", "ADAS-COG", "", "8", "", "8", 8, "", "", "", "", "", 201.0, "RETRIEVAL", 168, "TREATMENT", "2014-05-23", 170], ["CDISCPILOT01", "QS", "01-701-1181", 5002, "ACITM02", "NAMING OBJECTS AND FINGERS (REFER TO 5 C", "ADAS-COG", "", "3", "", "3", 3, "", "", "", "Y", "", 3.0, "BASELINE", 1, "TREATMENT", "2013-12-05", 1], ["CDISCPILOT01", "QS", "01-701-1181", 5017, "ACITM02", "NAMING OBJECTS AND FINGERS (REFER TO 5 C", "ADAS-COG", "", "2", "", "2", 2, "", "", "", "", "", 4.0, "WEEK 2", 14, "TREATMENT", "2013-12-12", 8], ["CDISCPILOT01", "QS", "01-701-1181", 5032, "ACITM02", "NAMING OBJECTS AND FINGERS (REFER TO 5 C", "ADAS-COG", "", "3", "", "3", 3, "", "", "", "", "", 201.0, "RETRIEVAL", 168, "TREATMENT", "2014-05-23", 170], ["CDISCPILOT01", "QS", "01-701-1181", 5003, "ACITM03", "DELAYED WORD RECALL", "ADAS-COG", "", "10", "", "10", 10, "", "", "", "Y", "", 3.0, "BASELINE", 1, "TREATMENT", "2013-12-05", 1], ["CDISCPILOT01", "QS", "01-701-1181", 5018, "ACITM03", "DELAYED WORD RECALL", "ADAS-COG", "", "10", "", "10", 10, "", "", "", "", "", 4.0, "WEEK 2", 14, "TREATMENT", "2013-12-12", 8], ["CDISCPILOT01", "QS", "01-701-1181", 5033, "ACITM03", "DELAYED WORD RECALL", "ADAS-COG", "", "10", "", "10", 10, "", "", "", "", "", 201.0, "RETRIEVAL", 168, "TREATMENT", "2014-05-23", 170], ["CDISCPILOT01", "QS", "01-701-1181", 5004, "ACITM04", "COMMANDS", "ADAS-COG", "", "1", "", "1", 1, "", "", "", "Y", "", 3.0, "BASELINE", 1, "TREATMENT", "2013-12-05", 1], ["CDISCPILOT01", "QS", "01-701-1181", 5019, "ACITM04", "COMMANDS", "ADAS-COG", "", "1", "", "1", 1, "", "", "", "", "", 4.0, "WEEK 2", 14, "TREATMENT", "2013-12-12", 8], ["CDISCPILOT01", "QS", "01-701-1181", 5034, "ACITM04", "COMMANDS", "ADAS-COG", "", "1", "", "1", 1, "", "", "", "", "", 201.0, "RETRIEVAL", 168, "TREATMENT", "2014-05-23", 170], ["CDISCPILOT01", "QS", "01-701-1181", 5005, "ACITM05", "CONSTRUCTIONAL PRAXIS", "ADAS-COG", "", "1", "", "1", 1, "", "", "", "Y", "", 3.0, "BASELINE", 1, "TREATMENT", "2013-12-05", 1], ["CDISCPILOT01", "QS", "01-701-1181", 5020, "ACITM05", "CONSTRUCTIONAL PRAXIS", "ADAS-COG", "", "1", "", "1", 1, "", "", "", "", "", 4.0, "WEEK 2", 14, "TREATMENT", "2013-12-12", 8], ["CDISCPILOT01", "QS", "01-701-1181", 5035, "ACITM05", "CONSTRUCTIONAL PRAXIS", "ADAS-COG", "", "1", "", "1", 1, "", "", "", "", "", 201.0, "RETRIEVAL", 168, "TREATMENT", "2014-05-23", 170], ["CDISCPILOT01", "QS", "01-701-1181", 5006, "ACITM06", "IDEATIONAL PRAXIS", "ADAS-COG", "", "3", "", "3", 3, "", "", "", "Y", "", 3.0, "BASELINE", 1, "TREATMENT", "2013-12-05", 1], ["CDISCPILOT01", "QS", "01-701-1181", 5021, "ACITM06", "IDEATIONAL PRAXIS", "ADAS-COG", "", "2", "", "2", 2, "", "", "", "", "", 4.0, "WEEK 2", 14, "TREATMENT", "2013-12-12", 8], ["CDISCPILOT01", "QS", "01-701-1181", 5036, "ACITM06", "IDEATIONAL PRAXIS", "ADAS-COG", "", "3", "", "3", 3, "", "", "", "", "", 201.0, "RETRIEVAL", 168, "TREATMENT", "2014-05-23", 170], ["CDISCPILOT01", "QS", "01-701-1181", 5007, "ACITM07", "ORIENTATION", "ADAS-COG", "", "5", "", "5", 5, "", "", "", "Y", "", 3.0, "BASELINE", 1, "TREATMENT", "2013-12-05", 1], ["CDISCPILOT01", "QS", "01-701-1181", 5022, "ACITM07", "ORIENTATION", "ADAS-COG", "", "7", "", "7", 7, "", "", "", "", "", 4.0, "WEEK 2", 14, "TREATMENT", "2013-12-12", 8], ["CDISCPILOT01", "QS", "01-701-1181", 5037, "ACITM07", "ORIENTATION", "ADAS-COG", "", "7", "", "7", 7, "", "", "", "", "", 201.0, "RETRIEVAL", 168, "TREATMENT", "2014-05-23", 170], ["CDISCPILOT01", "QS", "01-701-1181", 5008, "ACITM08", "WORD RECOGNITION", "ADAS-COG", "", "7", "", "7", 7, "", "", "", "Y", "", 3.0, "BASELINE", 1, "TREATMENT", "2013-12-05", 1], ["CDISCPILOT01", "QS", "01-701-1181", 5023, "ACITM08", "WORD RECOGNITION", "ADAS-COG", "", "12", "", "12", 12, "", "", "", "", "", 4.0, "WEEK 2", 14, "TREATMENT", "2013-12-12", 8], ["CDISCPILOT01", "QS", "01-701-1181", 5038, "ACITM08", "WORD RECOGNITION", "ADAS-COG", "", "9", "", "9", 9, "", "", "", "", "", 201.0, "RETRIEVAL", 168, "TREATMENT", "2014-05-23", 170], ["CDISCPILOT01", "QS", "01-701-1181", 5009, "ACITM09", "ATTENTION/VISUAL SEARCH TASK", "ADAS-COG", "", "0", "", "0", 0, "", "", "", "Y", "", 3.0, "BASELINE", 1, "TREATMENT", "2013-12-05", 1], ["CDISCPILOT01", "QS", "01-701-1181", 5024, "ACITM09", "ATTENTION/VISUAL SEARCH TASK", "ADAS-COG", "", "25", "", "25", 25, "", "", "", "", "", 4.0, "WEEK 2", 14, "TREATMENT", "2013-12-12", 8], ["CDISCPILOT01", "QS", "01-701-1181", 5039, "ACITM09", "ATTENTION/VISUAL SEARCH TASK", "ADAS-COG", "", "21", "", "21", 21, "", "", "", "", "", 201.0, "RETRIEVAL", 168, "TREATMENT", "2014-05-23", 170], ["CDISCPILOT01", "QS", "01-701-1181", 5010, "ACITM10", "MAZE SOLUTION", "ADAS-COG", "", "10", "sec", "10", 10, "sec", "", "", "Y", "", 3.0, "BASELINE", 1, "TREATMENT", "2013-12-05", 1], ["CDISCPILOT01", "QS", "01-701-1181", 5025, "ACITM10", "MAZE SOLUTION", "ADAS-COG", "", "22", "sec", "22", 22, "sec", "", "", "", "", 4.0, "WEEK 2", 14, "TREATMENT", "2013-12-12", 8], ["CDISCPILOT01", "QS", "01-701-1181", 5040, "ACITM10", "MAZE SOLUTION", "ADAS-COG", "", "8", "sec", "8", 8, "sec", "", "", "", "", 201.0, "RETRIEVAL", 168, "TREATMENT", "2014-05-23", 170], ["CDISCPILOT01", "QS", "01-701-1181", 5011, "ACITM11", "SPOKEN LANGUAGE ABILITY", "ADAS-COG", "", "1", "", "1", 1, "", "", "", "Y", "", 3.0, "BASELINE", 1, "TREATMENT", "2013-12-05", 1], ["CDISCPILOT01", "QS", "01-701-1181", 5026, "ACITM11", "SPOKEN LANGUAGE ABILITY", "ADAS-COG", "", "0", "", "0", 0, "", "", "", "", "", 4.0, "WEEK 2", 14, "TREATMENT", "2013-12-12", 8], ["CDISCPILOT01", "QS", "01-701-1181", 5041, "ACITM11", "SPOKEN LANGUAGE ABILITY", "ADAS-COG", "", "1", "", "1", 1, "", "", "", "", "", 201.0, "RETRIEVAL", 168, "TREATMENT", "2014-05-23", 170], ["CDISCPILOT01", "QS", "01-701-1181", 5012, "ACITM12", "COMPREHENSION OF SPOKEN LANGUAGE", "ADAS-COG", "", "1", "", "1", 1, "", "", "", "Y", "", 3.0, "BASELINE", 1, "TREATMENT", "2013-12-05", 1], ["CDISCPILOT01", "QS", "01-701-1181", 5027, "ACITM12", "COMPREHENSION OF SPOKEN LANGUAGE", "ADAS-COG", "", "1", "", "1", 1, "", "", "", "", "", 4.0, "WEEK 2", 14, "TREATMENT", "2013-12-12", 8], ["CDISCPILOT01", "QS", "01-701-1181", 5042, "ACITM12", "COMPREHENSION OF SPOKEN LANGUAGE", "ADAS-COG", "", "1", "", "1", 1, "", "", "", "", "", 201.0, "RETRIEVAL", 168, "TREATMENT", "2014-05-23", 170], ["CDISCPILOT01", "QS", "01-701-1181", 5013, "ACITM13", "WORD FINDING DIFFICULTY IN SPONTANEOUS S", "ADAS-COG", "", "0", "", "0", 0, "", "", "", "Y", "", 3.0, "BASELINE", 1, "TREATMENT", "2013-12-05", 1], ["CDISCPILOT01", "QS", "01-701-1181", 5028, "ACITM13", "WORD FINDING DIFFICULTY IN SPONTANEOUS S", "ADAS-COG", "", "1", "", "1", 1, "", "", "", "", "", 4.0, "WEEK 2", 14, "TREATMENT", "2013-12-12", 8], ["CDISCPILOT01", "QS", "01-701-1181", 5043, "ACITM13", "WORD FINDING DIFFICULTY IN SPONTANEOUS S", "ADAS-COG", "", "2", "", "2", 2, "", "", "", "", "", 201.0, "RETRIEVAL", 168, "TREATMENT", "2014-05-23", 170], ["CDISCPILOT01", "QS", "01-701-1181", 5014, "ACITM14", "RECALL OF TEST INSTRUCTIONS", "ADAS-COG", "", "3", "", "3", 3, "", "", "", "Y", "", 3.0, "BASELINE", 1, "TREATMENT", "2013-12-05", 1], ["CDISCPILOT01", "QS", "01-701-1181", 5029, "ACITM14", "RECALL OF TEST INSTRUCTIONS", "ADAS-COG", "", "3", "", "3", 3, "", "", "", "", "", 4.0, "WEEK 2", 14, "TREATMENT", "2013-12-12", 8], ["CDISCPILOT01", "QS", "01-701-1181", 5044, "ACITM14", "RECALL OF TEST INSTRUCTIONS", "ADAS-COG", "", "2", "", "2", 2, "", "", "", "", "", 201.0, "RETRIEVAL", 168, "TREATMENT", "2014-05-23", 170], ["CDISCPILOT01", "QS", "01-701-1181", 5015, "ACTOT", "ADAS-COG(11) Subscore", "ADAS-COG", "", "", "", "32", 32, "", "", "", "Y", "Y", 3.0, "BASELINE", 1, "TREATMENT", "2013-12-05", 1], ["CDISCPILOT01", "QS", "01-701-1181", 5030, "ACTOT", "ADAS-COG(11) Subscore", "ADAS-COG", "", "", "", "39", 39, "", "", "", "", "Y", 4.0, "WEEK 2", 14, "TREATMENT", "2013-12-12", 8], ["CDISCPILOT01", "QS", "01-701-1181", 5045, "ACTOT", "ADAS-COG(11) Subscore", "ADAS-COG", "", "", "", "38", 38, "", "", "", "", "Y", 201.0, "RETRIEVAL", 168, "TREATMENT", "2014-05-23", 170], ["CDISCPILOT01", "QS", "01-701-1188", 5001, "ACITM01", "WORD RECALL TASK", "ADAS-COG", "", "5", "", "5", 5, "", "", "", "Y", "", 3.0, "BASELINE", 1, "TREATMENT", "2013-02-15", 1], ["CDISCPILOT01", "QS", "01-701-1188", 5016, "ACITM01", "WORD RECALL TASK", "ADAS-COG", "", "4", "", "4", 4, "", "", "", "", "", 7.0, "WEEK 6", 42, "TREATMENT", "2013-03-25", 39], ["CDISCPILOT01", "QS", "01-701-1188", 5031, "ACITM01", "WORD RECALL TASK", "ADAS-COG", "", "5", "", "5", 5, "", "", "", "", "", 201.0, "RETRIEVAL", 168, "TREATMENT", "2013-08-04", 171], ["CDISCPILOT01", "QS", "01-701-1188", 5002, "ACITM02", "NAMING OBJECTS AND FINGERS (REFER TO 5 C", "ADAS-COG", "", "0", "", "0", 0, "", "", "", "Y", "", 3.0, "BASELINE", 1, "TREATMENT", "2013-02-15", 1], ["CDISCPILOT01", "QS", "01-701-1188", 5017, "ACITM02", "NAMING OBJECTS AND FINGERS (REFER TO 5 C", "ADAS-COG", "", "0", "", "0", 0, "", "", "", "", "", 7.0, "WEEK 6", 42, "TREATMENT", "2013-03-25", 39], ["CDISCPILOT01", "QS", "01-701-1188", 5032, "ACITM02", "NAMING OBJECTS AND FINGERS (REFER TO 5 C", "ADAS-COG", "", "0", "", "0", 0, "", "", "", "", "", 201.0, "RETRIEVAL", 168, "TREATMENT", "2013-08-04", 171], ["CDISCPILOT01", "QS", "01-701-1188", 5003, "ACITM03", "DELAYED WORD RECALL", "ADAS-COG", "", "6", "", "6", 6, "", "", "", "Y", "", 3.0, "BASELINE", 1, "TREATMENT", "2013-02-15", 1], ["CDISCPILOT01", "QS", "01-701-1188", 5018, "ACITM03", "DELAYED WORD RECALL", "ADAS-COG", "", "5", "", "5", 5, "", "", "", "", "", 7.0, "WEEK 6", 42, "TREATMENT", "2013-03-25", 39], ["CDISCPILOT01", "QS", "01-701-1188", 5033, "ACITM03", "DELAYED WORD RECALL", "ADAS-COG", "", "7", "", "7", 7, "", "", "", "", "", 201.0, "RETRIEVAL", 168, "TREATMENT", "2013-08-04", 171], ["CDISCPILOT01", "QS", "01-701-1188", 5004, "ACITM04", "COMMANDS", "ADAS-COG", "", "0", "", "0", 0, "", "", "", "Y", "", 3.0, "BASELINE", 1, "TREATMENT", "2013-02-15", 1], ["CDISCPILOT01", "QS", "01-701-1188", 5019, "ACITM04", "COMMANDS", "ADAS-COG", "", "0", "", "0", 0, "", "", "", "", "", 7.0, "WEEK 6", 42, "TREATMENT", "2013-03-25", 39], ["CDISCPILOT01", "QS", "01-701-1188", 5034, "ACITM04", "COMMANDS", "ADAS-COG", "", "0", "", "0", 0, "", "", "", "", "", 201.0, "RETRIEVAL", 168, "TREATMENT", "2013-08-04", 171], ["CDISCPILOT01", "QS", "01-701-1188", 5005, "ACITM05", "CONSTRUCTIONAL PRAXIS", "ADAS-COG", "", "0", "", "0", 0, "", "", "", "Y", "", 3.0, "BASELINE", 1, "TREATMENT", "2013-02-15", 1], ["CDISCPILOT01", "QS", "01-701-1188", 5020, "ACITM05", "CONSTRUCTIONAL PRAXIS", "ADAS-COG", "", "1", "", "1", 1, "", "", "", "", "", 7.0, "WEEK 6", 42, "TREATMENT", "2013-03-25", 39], ["CDISCPILOT01", "QS", "01-701-1188", 5035, "ACITM05", "CONSTRUCTIONAL PRAXIS", "ADAS-COG", "", "0", "", "0", 0, "", "", "", "", "", 201.0, "RETRIEVAL", 168, "TREATMENT", "2013-08-04", 171], ["CDISCPILOT01", "QS", "01-701-1188", 5006, "ACITM06", "IDEATIONAL PRAXIS", "ADAS-COG", "", "0", "", "0", 0, "", "", "", "Y", "", 3.0, "BASELINE", 1, "TREATMENT", "2013-02-15", 1], ["CDISCPILOT01", "QS", "01-701-1188", 5021, "ACITM06", "IDEATIONAL PRAXIS", "ADAS-COG", "", "0", "", "0", 0, "", "", "", "", "", 7.0, "WEEK 6", 42, "TREATMENT", "2013-03-25", 39], ["CDISCPILOT01", "QS", "01-701-1188", 5036, "ACITM06", "IDEATIONAL PRAXIS", "ADAS-COG", "", "0", "", "0", 0, "", "", "", "", "", 201.0, "RETRIEVAL", 168, "TREATMENT", "2013-08-04", 171], ["CDISCPILOT01", "QS", "01-701-1188", 5007, "ACITM07", "ORIENTATION", "ADAS-COG", "", "0", "", "0", 0, "", "", "", "Y", "", 3.0, "BASELINE", 1, "TREATMENT", "2013-02-15", 1], ["CDISCPILOT01", "QS", "01-701-1188", 5022, "ACITM07", "ORIENTATION", "ADAS-COG", "", "0", "", "0", 0, "", "", "", "", "", 7.0, "WEEK 6", 42, "TREATMENT", "2013-03-25", 39], ["CDISCPILOT01", "QS", "01-701-1188", 5037, "ACITM07", "ORIENTATION", "ADAS-COG", "", "0", "", "0", 0, "", "", "", "", "", 201.0, "RETRIEVAL", 168, "TREATMENT", "2013-08-04", 171], ["CDISCPILOT01", "QS", "01-701-1188", 5008, "ACITM08", "WORD RECOGNITION", "ADAS-COG", "", "3", "", "3", 3, "", "", "", "Y", "", 3.0, "BASELINE", 1, "TREATMENT", "2013-02-15", 1], ["CDISCPILOT01", "QS", "01-701-1188", 5023, "ACITM08", "WORD RECOGNITION", "ADAS-COG", "", "3", "", "3", 3, "", "", "", "", "", 7.0, "WEEK 6", 42, "TREATMENT", "2013-03-25", 39], ["CDISCPILOT01", "QS", "01-701-1188", 5038, "ACITM08", "WORD RECOGNITION", "ADAS-COG", "", "2", "", "2", 2, "", "", "", "", "", 201.0, "RETRIEVAL", 168, "TREATMENT", "2013-08-04", 171], ["CDISCPILOT01", "QS", "01-701-1188", 5009, "ACITM09", "ATTENTION/VISUAL SEARCH TASK", "ADAS-COG", "", "26", "", "26", 26, "", "", "", "Y", "", 3.0, "BASELINE", 1, "TREATMENT", "2013-02-15", 1], ["CDISCPILOT01", "QS", "01-701-1188", 5024, "ACITM09", "ATTENTION/VISUAL SEARCH TASK", "ADAS-COG", "", "36", "", "36", 36, "", "", "", "", "", 7.0, "WEEK 6", 42, "TREATMENT", "2013-03-25", 39], ["CDISCPILOT01", "QS", "01-701-1188", 5039, "ACITM09", "ATTENTION/VISUAL SEARCH TASK", "ADAS-COG", "", "34", "", "34", 34, "", "", "", "", "", 201.0, "RETRIEVAL", 168, "TREATMENT", "2013-08-04", 171], ["CDISCPILOT01", "QS", "01-701-1188", 5010, "ACITM10", "MAZE SOLUTION", "ADAS-COG", "", "4", "sec", "4", 4, "sec", "", "", "Y", "", 3.0, "BASELINE", 1, "TREATMENT", "2013-02-15", 1], ["CDISCPILOT01", "QS", "01-701-1188", 5025, "ACITM10", "MAZE SOLUTION", "ADAS-COG", "", "4", "sec", "4", 4, "sec", "", "", "", "", 7.0, "WEEK 6", 42, "TREATMENT", "2013-03-25", 39], ["CDISCPILOT01", "QS", "01-701-1188", 5040, "ACITM10", "MAZE SOLUTION", "ADAS-COG", "", "6", "sec", "6", 6, "sec", "", "", "", "", 201.0, "RETRIEVAL", 168, "TREATMENT", "2013-08-04", 171], ["CDISCPILOT01", "QS", "01-701-1188", 5011, "ACITM11", "SPOKEN LANGUAGE ABILITY", "ADAS-COG", "", "0", "", "0", 0, "", "", "", "Y", "", 3.0, "BASELINE", 1, "TREATMENT", "2013-02-15", 1], ["CDISCPILOT01", "QS", "01-701-1188", 5026, "ACITM11", "SPOKEN LANGUAGE ABILITY", "ADAS-COG", "", "0", "", "0", 0, "", "", "", "", "", 7.0, "WEEK 6", 42, "TREATMENT", "2013-03-25", 39], ["CDISCPILOT01", "QS", "01-701-1188", 5041, "ACITM11", "SPOKEN LANGUAGE ABILITY", "ADAS-COG", "", "0", "", "0", 0, "", "", "", "", "", 201.0, "RETRIEVAL", 168, "TREATMENT", "2013-08-04", 171], ["CDISCPILOT01", "QS", "01-701-1188", 5012, "ACITM12", "COMPREHENSION OF SPOKEN LANGUAGE", "ADAS-COG", "", "0", "", "0", 0, "", "", "", "Y", "", 3.0, "BASELINE", 1, "TREATMENT", "2013-02-15", 1], ["CDISCPILOT01", "QS", "01-701-1188", 5027, "ACITM12", "COMPREHENSION OF SPOKEN LANGUAGE", "ADAS-COG", "", "0", "", "0", 0, "", "", "", "", "", 7.0, "WEEK 6", 42, "TREATMENT", "2013-03-25", 39], ["CDISCPILOT01", "QS", "01-701-1188", 5042, "ACITM12", "COMPREHENSION OF SPOKEN LANGUAGE", "ADAS-COG", "", "0", "", "0", 0, "", "", "", "", "", 201.0, "RETRIEVAL", 168, "TREATMENT", "2013-08-04", 171], ["CDISCPILOT01", "QS", "01-701-1188", 5013, "ACITM13", "WORD FINDING DIFFICULTY IN SPONTANEOUS S", "ADAS-COG", "", "0", "", "0", 0, "", "", "", "Y", "", 3.0, "BASELINE", 1, "TREATMENT", "2013-02-15", 1], ["CDISCPILOT01", "QS", "01-701-1188", 5028, "ACITM13", "WORD FINDING DIFFICULTY IN SPONTANEOUS S", "ADAS-COG", "", "0", "", "0", 0, "", "", "", "", "", 7.0, "WEEK 6", 42, "TREATMENT", "2013-03-25", 39], ["CDISCPILOT01", "QS", "01-701-1188", 5043, "ACITM13", "WORD FINDING DIFFICULTY IN SPONTANEOUS S", "ADAS-COG", "", "0", "", "0", 0, "", "", "", "", "", 201.0, "RETRIEVAL", 168, "TREATMENT", "2013-08-04", 171], ["CDISCPILOT01", "QS", "01-701-1188", 5014, "ACITM14", "RECALL OF TEST INSTRUCTIONS", "ADAS-COG", "", "0", "", "0", 0, "", "", "", "Y", "", 3.0, "BASELINE", 1, "TREATMENT", "2013-02-15", 1], ["CDISCPILOT01", "QS", "01-701-1188", 5029, "ACITM14", "RECALL OF TEST INSTRUCTIONS", "ADAS-COG", "", "0", "", "0", 0, "", "", "", "", "", 7.0, "WEEK 6", 42, "TREATMENT", "2013-03-25", 39], ["CDISCPILOT01", "QS", "01-701-1188", 5044, "ACITM14", "RECALL OF TEST INSTRUCTIONS", "ADAS-COG", "", "0", "", "0", 0, "", "", "", "", "", 201.0, "RETRIEVAL", 168, "TREATMENT", "2013-08-04", 171], ["CDISCPILOT01", "QS", "01-701-1188", 5015, "ACTOT", "ADAS-COG(11) Subscore", "ADAS-COG", "", "", "", "8", 8, "", "", "", "Y", "Y", 3.0, "BASELINE", 1, "TREATMENT", "2013-02-15", 1], ["CDISCPILOT01", "QS", "01-701-1188", 5030, "ACTOT", "ADAS-COG(11) Subscore", "ADAS-COG", "", "", "", "8", 8, "", "", "", "", "Y", 7.0, "WEEK 6", 42, "TREATMENT", "2013-03-25", 39], ["CDISCPILOT01", "QS", "01-701-1188", 5045, "ACTOT", "ADAS-COG(11) Subscore", "ADAS-COG", "", "", "", "7", 7, "", "", "", "", "Y", 201.0, "RETRIEVAL", 168, "TREATMENT", "2013-08-04", 171], ["CDISCPILOT01", "QS", "01-701-1192", 5001, "ACITM01", "WORD RECALL TASK", "ADAS-COG", "", "3", "", "3", 3, "", "", "", "Y", "", 3.0, "BASELINE", 1, "TREATMENT", "2012-07-22", 1], ["CDISCPILOT01", "QS", "01-701-1192", 5016, "ACITM01", "WORD RECALL TASK", "ADAS-COG", "", "5", "", "5", 5, "", "", "", "", "", 8.0, "WEEK 8", 56, "TREATMENT", "2012-09-23", 64], ["CDISCPILOT01", "QS", "01-701-1192", 5031, "ACITM01", "WORD RECALL TASK", "ADAS-COG", "", "4", "", "4", 4, "", "", "", "", "", 10.0, "WEEK 16", 112, "TREATMENT", "2012-11-15", 117], ["CDISCPILOT01", "QS", "01-701-1192", 5046, "ACITM01", "WORD RECALL TASK", "ADAS-COG", "", "4", "", "4", 4, "", "", "", "", "", 12.0, "WEEK 24", 168, "TREATMENT", "2013-01-11", 174], ["CDISCPILOT01", "QS", "01-701-1192", 5002, "ACITM02", "NAMING OBJECTS AND FINGERS (REFER TO 5 C", "ADAS-COG", "", "0", "", "0", 0, "", "", "", "Y", "", 3.0, "BASELINE", 1, "TREATMENT", "2012-07-22", 1], ["CDISCPILOT01", "QS", "01-701-1192", 5017, "ACITM02", "NAMING OBJECTS AND FINGERS (REFER TO 5 C", "ADAS-COG", "", "2", "", "2", 2, "", "", "", "", "", 8.0, "WEEK 8", 56, "TREATMENT", "2012-09-23", 64], ["CDISCPILOT01", "QS", "01-701-1192", 5032, "ACITM02", "NAMING OBJECTS AND FINGERS (REFER TO 5 C", "ADAS-COG", "", "0", "", "0", 0, "", "", "", "", "", 10.0, "WEEK 16", 112, "TREATMENT", "2012-11-15", 117], ["CDISCPILOT01", "QS", "01-701-1192", 5047, "ACITM02", "NAMING OBJECTS AND FINGERS (REFER TO 5 C", "ADAS-COG", "", "0", "", "0", 0, "", "", "", "", "", 12.0, "WEEK 24", 168, "TREATMENT", "2013-01-11", 174], ["CDISCPILOT01", "QS", "01-701-1192", 5003, "ACITM03", "DELAYED WORD RECALL", "ADAS-COG", "", "4", "", "4", 4, "", "", "", "Y", "", 3.0, "BASELINE", 1, "TREATMENT", "2012-07-22", 1], ["CDISCPILOT01", "QS", "01-701-1192", 5018, "ACITM03", "DELAYED WORD RECALL", "ADAS-COG", "", "6", "", "6", 6, "", "", "", "", "", 8.0, "WEEK 8", 56, "TREATMENT", "2012-09-23", 64], ["CDISCPILOT01", "QS", "01-701-1192", 5033, "ACITM03", "DELAYED WORD RECALL", "ADAS-COG", "", "8", "", "8", 8, "", "", "", "", "", 10.0, "WEEK 16", 112, "TREATMENT", "2012-11-15", 117], ["CDISCPILOT01", "QS", "01-701-1192", 5048, "ACITM03", "DELAYED WORD RECALL", "ADAS-COG", "", "7", "", "7", 7, "", "", "", "", "", 12.0, "WEEK 24", 168, "TREATMENT", "2013-01-11", 174], ["CDISCPILOT01", "QS", "01-701-1192", 5004, "ACITM04", "COMMANDS", "ADAS-COG", "", "0", "", "0", 0, "", "", "", "Y", "", 3.0, "BASELINE", 1, "TREATMENT", "2012-07-22", 1], ["CDISCPILOT01", "QS", "01-701-1192", 5019, "ACITM04", "COMMANDS", "ADAS-COG", "", "0", "", "0", 0, "", "", "", "", "", 8.0, "WEEK 8", 56, "TREATMENT", "2012-09-23", 64], ["CDISCPILOT01", "QS", "01-701-1192", 5034, "ACITM04", "COMMANDS", "ADAS-COG", "", "0", "", "0", 0, "", "", "", "", "", 10.0, "WEEK 16", 112, "TREATMENT", "2012-11-15", 117], ["CDISCPILOT01", "QS", "01-701-1192", 5049, "ACITM04", "COMMANDS", "ADAS-COG", "", "0", "", "0", 0, "", "", "", "", "", 12.0, "WEEK 24", 168, "TREATMENT", "2013-01-11", 174], ["CDISCPILOT01", "QS", "01-701-1192", 5005, "ACITM05", "CONSTRUCTIONAL PRAXIS", "ADAS-COG", "", "2", "", "2", 2, "", "", "", "Y", "", 3.0, "BASELINE", 1, "TREATMENT", "2012-07-22", 1], ["CDISCPILOT01", "QS", "01-701-1192", 5020, "ACITM05", "CONSTRUCTIONAL PRAXIS", "ADAS-COG", "", "1", "", "1", 1, "", "", "", "", "", 8.0, "WEEK 8", 56, "TREATMENT", "2012-09-23", 64], ["CDISCPILOT01", "QS", "01-701-1192", 5035, "ACITM05", "CONSTRUCTIONAL PRAXIS", "ADAS-COG", "", "3", "", "3", 3, "", "", "", "", "", 10.0, "WEEK 16", 112, "TREATMENT", "2012-11-15", 117], ["CDISCPILOT01", "QS", "01-701-1192", 5050, "ACITM05", "CONSTRUCTIONAL PRAXIS", "ADAS-COG", "", "3", "", "3", 3, "", "", "", "", "", 12.0, "WEEK 24", 168, "TREATMENT", "2013-01-11", 174], ["CDISCPILOT01", "QS", "01-701-1192", 5006, "ACITM06", "IDEATIONAL PRAXIS", "ADAS-COG", "", "0", "", "0", 0, "", "", "", "Y", "", 3.0, "BASELINE", 1, "TREATMENT", "2012-07-22", 1], ["CDISCPILOT01", "QS", "01-701-1192", 5021, "ACITM06", "IDEATIONAL PRAXIS", "ADAS-COG", "", "0", "", "0", 0, "", "", "", "", "", 8.0, "WEEK 8", 56, "TREATMENT", "2012-09-23", 64], ["CDISCPILOT01", "QS", "01-701-1192", 5036, "ACITM06", "IDEATIONAL PRAXIS", "ADAS-COG", "", "0", "", "0", 0, "", "", "", "", "", 10.0, "WEEK 16", 112, "TREATMENT", "2012-11-15", 117], ["CDISCPILOT01", "QS", "01-701-1192", 5051, "ACITM06", "IDEATIONAL PRAXIS", "ADAS-COG", "", "0", "", "0", 0, "", "", "", "", "", 12.0, "WEEK 24", 168, "TREATMENT", "2013-01-11", 174], ["CDISCPILOT01", "QS", "01-701-1192", 5007, "ACITM07", "ORIENTATION", "ADAS-COG", "", "3", "", "3", 3, "", "", "", "Y", "", 3.0, "BASELINE", 1, "TREATMENT", "2012-07-22", 1], ["CDISCPILOT01", "QS", "01-701-1192", 5022, "ACITM07", "ORIENTATION", "ADAS-COG", "", "3", "", "3", 3, "", "", "", "", "", 8.0, "WEEK 8", 56, "TREATMENT", "2012-09-23", 64], ["CDISCPILOT01", "QS", "01-701-1192", 5037, "ACITM07", "ORIENTATION", "ADAS-COG", "", "2", "", "2", 2, "", "", "", "", "", 10.0, "WEEK 16", 112, "TREATMENT", "2012-11-15", 117], ["CDISCPILOT01", "QS", "01-701-1192", 5052, "ACITM07", "ORIENTATION", "ADAS-COG", "", "2", "", "2", 2, "", "", "", "", "", 12.0, "WEEK 24", 168, "TREATMENT", "2013-01-11", 174], ["CDISCPILOT01", "QS", "01-701-1192", 5008, "ACITM08", "WORD RECOGNITION", "ADAS-COG", "", "1", "", "1", 1, "", "", "", "Y", "", 3.0, "BASELINE", 1, "TREATMENT", "2012-07-22", 1], ["CDISCPILOT01", "QS", "01-701-1192", 5023, "ACITM08", "WORD RECOGNITION", "ADAS-COG", "", "1", "", "1", 1, "", "", "", "", "", 8.0, "WEEK 8", 56, "TREATMENT", "2012-09-23", 64], ["CDISCPILOT01", "QS", "01-701-1192", 5038, "ACITM08", "WORD RECOGNITION", "ADAS-COG", "", "2", "", "2", 2, "", "", "", "", "", 10.0, "WEEK 16", 112, "TREATMENT", "2012-11-15", 117], ["CDISCPILOT01", "QS", "01-701-1192", 5053, "ACITM08", "WORD RECOGNITION", "ADAS-COG", "", "1", "", "1", 1, "", "", "", "", "", 12.0, "WEEK 24", 168, "TREATMENT", "2013-01-11", 174], ["CDISCPILOT01", "QS", "01-701-1192", 5009, "ACITM09", "ATTENTION/VISUAL SEARCH TASK", "ADAS-COG", "", "35", "", "35", 35, "", "", "", "Y", "", 3.0, "BASELINE", 1, "TREATMENT", "2012-07-22", 1], ["CDISCPILOT01", "QS", "01-701-1192", 5024, "ACITM09", "ATTENTION/VISUAL SEARCH TASK", "ADAS-COG", "", "34", "", "34", 34, "", "", "", "", "", 8.0, "WEEK 8", 56, "TREATMENT", "2012-09-23", 64], ["CDISCPILOT01", "QS", "01-701-1192", 5039, "ACITM09", "ATTENTION/VISUAL SEARCH TASK", "ADAS-COG", "", "33", "", "33", 33, "", "", "", "", "", 10.0, "WEEK 16", 112, "TREATMENT", "2012-11-15", 117], ["CDISCPILOT01", "QS", "01-701-1192", 5054, "ACITM09", "ATTENTION/VISUAL SEARCH TASK", "ADAS-COG", "", "37", "", "37", 37, "", "", "", "", "", 12.0, "WEEK 24", 168, "TREATMENT", "2013-01-11", 174], ["CDISCPILOT01", "QS", "01-701-1192", 5010, "ACITM10", "MAZE SOLUTION", "ADAS-COG", "", "3", "sec", "3", 3, "sec", "", "", "Y", "", 3.0, "BASELINE", 1, "TREATMENT", "2012-07-22", 1], ["CDISCPILOT01", "QS", "01-701-1192", 5025, "ACITM10", "MAZE SOLUTION", "ADAS-COG", "", "4", "sec", "4", 4, "sec", "", "", "", "", 8.0, "WEEK 8", 56, "TREATMENT", "2012-09-23", 64], ["CDISCPILOT01", "QS", "01-701-1192", 5040, "ACITM10", "MAZE SOLUTION", "ADAS-COG", "", "10", "sec", "10", 10, "sec", "", "", "", "", 10.0, "WEEK 16", 112, "TREATMENT", "2012-11-15", 117], ["CDISCPILOT01", "QS", "01-701-1192", 5055, "ACITM10", "MAZE SOLUTION", "ADAS-COG", "", "5", "sec", "5", 5, "sec", "", "", "", "", 12.0, "WEEK 24", 168, "TREATMENT", "2013-01-11", 174], ["CDISCPILOT01", "QS", "01-701-1192", 5011, "ACITM11", "SPOKEN LANGUAGE ABILITY", "ADAS-COG", "", "0", "", "0", 0, "", "", "", "Y", "", 3.0, "BASELINE", 1, "TREATMENT", "2012-07-22", 1], ["CDISCPILOT01", "QS", "01-701-1192", 5026, "ACITM11", "SPOKEN LANGUAGE ABILITY", "ADAS-COG", "", "0", "", "0", 0, "", "", "", "", "", 8.0, "WEEK 8", 56, "TREATMENT", "2012-09-23", 64], ["CDISCPILOT01", "QS", "01-701-1192", 5041, "ACITM11", "SPOKEN LANGUAGE ABILITY", "ADAS-COG", "", "1", "", "1", 1, "", "", "", "", "", 10.0, "WEEK 16", 112, "TREATMENT", "2012-11-15", 117], ["CDISCPILOT01", "QS", "01-701-1192", 5056, "ACITM11", "SPOKEN LANGUAGE ABILITY", "ADAS-COG", "", "1", "", "1", 1, "", "", "", "", "", 12.0, "WEEK 24", 168, "TREATMENT", "2013-01-11", 174], ["CDISCPILOT01", "QS", "01-701-1192", 5012, "ACITM12", "COMPREHENSION OF SPOKEN LANGUAGE", "ADAS-COG", "", "0", "", "0", 0, "", "", "", "Y", "", 3.0, "BASELINE", 1, "TREATMENT", "2012-07-22", 1], ["CDISCPILOT01", "QS", "01-701-1192", 5027, "ACITM12", "COMPREHENSION OF SPOKEN LANGUAGE", "ADAS-COG", "", "0", "", "0", 0, "", "", "", "", "", 8.0, "WEEK 8", 56, "TREATMENT", "2012-09-23", 64], ["CDISCPILOT01", "QS", "01-701-1192", 5042, "ACITM12", "COMPREHENSION OF SPOKEN LANGUAGE", "ADAS-COG", "", "1", "", "1", 1, "", "", "", "", "", 10.0, "WEEK 16", 112, "TREATMENT", "2012-11-15", 117], ["CDISCPILOT01", "QS", "01-701-1192", 5057, "ACITM12", "COMPREHENSION OF SPOKEN LANGUAGE", "ADAS-COG", "", "1", "", "1", 1, "", "", "", "", "", 12.0, "WEEK 24", 168, "TREATMENT", "2013-01-11", 174], ["CDISCPILOT01", "QS", "01-701-1192", 5013, "ACITM13", "WORD FINDING DIFFICULTY IN SPONTANEOUS S", "ADAS-COG", "", "0", "", "0", 0, "", "", "", "Y", "", 3.0, "BASELINE", 1, "TREATMENT", "2012-07-22", 1], ["CDISCPILOT01", "QS", "01-701-1192", 5028, "ACITM13", "WORD FINDING DIFFICULTY IN SPONTANEOUS S", "ADAS-COG", "", "0", "", "0", 0, "", "", "", "", "", 8.0, "WEEK 8", 56, "TREATMENT", "2012-09-23", 64], ["CDISCPILOT01", "QS", "01-701-1192", 5043, "ACITM13", "WORD FINDING DIFFICULTY IN SPONTANEOUS S", "ADAS-COG", "", "1", "", "1", 1, "", "", "", "", "", 10.0, "WEEK 16", 112, "TREATMENT", "2012-11-15", 117], ["CDISCPILOT01", "QS", "01-701-1192", 5058, "ACITM13", "WORD FINDING DIFFICULTY IN SPONTANEOUS S", "ADAS-COG", "", "0", "", "0", 0, "", "", "", "", "", 12.0, "WEEK 24", 168, "TREATMENT", "2013-01-11", 174], ["CDISCPILOT01", "QS", "01-701-1192", 5014, "ACITM14", "RECALL OF TEST INSTRUCTIONS", "ADAS-COG", "", "0", "", "0", 0, "", "", "", "Y", "", 3.0, "BASELINE", 1, "TREATMENT", "2012-07-22", 1], ["CDISCPILOT01", "QS", "01-701-1192", 5029, "ACITM14", "RECALL OF TEST INSTRUCTIONS", "ADAS-COG", "", "0", "", "0", 0, "", "", "", "", "", 8.0, "WEEK 8", 56, "TREATMENT", "2012-09-23", 64], ["CDISCPILOT01", "QS", "01-701-1192", 5044, "ACITM14", "RECALL OF TEST INSTRUCTIONS", "ADAS-COG", "", "1", "", "1", 1, "", "", "", "", "", 10.0, "WEEK 16", 112, "TREATMENT", "2012-11-15", 117], ["CDISCPILOT01", "QS", "01-701-1192", 5059, "ACITM14", "RECALL OF TEST INSTRUCTIONS", "ADAS-COG", "", "0", "", "0", 0, "", "", "", "", "", 12.0, "WEEK 24", 168, "TREATMENT", "2013-01-11", 174], ["CDISCPILOT01", "QS", "01-701-1192", 5015, "ACTOT", "ADAS-COG(11) Subscore", "ADAS-COG", "", "", "", "9", 9, "", "", "", "Y", "Y", 3.0, "BASELINE", 1, "TREATMENT", "2012-07-22", 1], ["CDISCPILOT01", "QS", "01-701-1192", 5030, "ACTOT", "ADAS-COG(11) Subscore", "ADAS-COG", "", "", "", "12", 12, "", "", "", "", "Y", 8.0, "WEEK 8", 56, "TREATMENT", "2012-09-23", 64], ["CDISCPILOT01", "QS", "01-701-1192", 5045, "ACTOT", "ADAS-COG(11) Subscore", "ADAS-COG", "", "", "", "15", 15, "", "", "", "", "Y", 10.0, "WEEK 16", 112, "TREATMENT", "2012-11-15", 117], ["CDISCPILOT01", "QS", "01-701-1192", 5060, "ACTOT", "ADAS-COG(11) Subscore", "ADAS-COG", "", "", "", "12", 12, "", "", "", "", "Y", 12.0, "WEEK 24", 168, "TREATMENT", "2013-01-11", 174], ["CDISCPILOT01", "QS", "01-701-1203", 5001, "ACITM01", "WORD RECALL TASK", "ADAS-COG", "", "5", "", "5", 5, "", "", "", "Y", "", 3.0, "BASELINE", 1, "TREATMENT", "2013-02-02", 1], ["CDISCPILOT01", "QS", "01-701-1203", 5016, "ACITM01", "WORD RECALL TASK", "ADAS-COG", "", "6", "", "6", 6, "", "", "", "", "", 8.0, "WEEK 8", 56, "TREATMENT", "2013-03-30", 57], ["CDISCPILOT01", "QS", "01-701-1203", 5031, "ACITM01", "WORD RECALL TASK", "ADAS-COG", "", "6", "", "6", 6, "", "", "", "", "", 10.0, "WEEK 16", 112, "TREATMENT", "2013-05-25", 113], ["CDISCPILOT01", "QS", "01-701-1203", 5046, "ACITM01", "WORD RECALL TASK", "ADAS-COG", "", "6", "", "6", 6, "", "", "", "", "", 12.0, "WEEK 24", 168, "TREATMENT", "2013-07-22", 171], ["CDISCPILOT01", "QS", "01-701-1203", 5002, "ACITM02", "NAMING OBJECTS AND FINGERS (REFER TO 5 C", "ADAS-COG", "", "1", "", "1", 1, "", "", "", "Y", "", 3.0, "BASELINE", 1, "TREATMENT", "2013-02-02", 1], ["CDISCPILOT01", "QS", "01-701-1203", 5017, "ACITM02", "NAMING OBJECTS AND FINGERS (REFER TO 5 C", "ADAS-COG", "", "1", "", "1", 1, "", "", "", "", "", 8.0, "WEEK 8", 56, "TREATMENT", "2013-03-30", 57], ["CDISCPILOT01", "QS", "01-701-1203", 5032, "ACITM02", "NAMING OBJECTS AND FINGERS (REFER TO 5 C", "ADAS-COG", "", "1", "", "1", 1, "", "", "", "", "", 10.0, "WEEK 16", 112, "TREATMENT", "2013-05-25", 113], ["CDISCPILOT01", "QS", "01-701-1203", 5047, "ACITM02", "NAMING OBJECTS AND FINGERS (REFER TO 5 C", "ADAS-COG", "", "1", "", "1", 1, "", "", "", "", "", 12.0, "WEEK 24", 168, "TREATMENT", "2013-07-22", 171], ["CDISCPILOT01", "QS", "01-701-1203", 5003, "ACITM03", "DELAYED WORD RECALL", "ADAS-COG", "", "10", "", "10", 10, "", "", "", "Y", "", 3.0, "BASELINE", 1, "TREATMENT", "2013-02-02", 1], ["CDISCPILOT01", "QS", "01-701-1203", 5018, "ACITM03", "DELAYED WORD RECALL", "ADAS-COG", "", "10", "", "10", 10, "", "", "", "", "", 8.0, "WEEK 8", 56, "TREATMENT", "2013-03-30", 57], ["CDISCPILOT01", "QS", "01-701-1203", 5033, "ACITM03", "DELAYED WORD RECALL", "ADAS-COG", "", "10", "", "10", 10, "", "", "", "", "", 10.0, "WEEK 16", 112, "TREATMENT", "2013-05-25", 113], ["CDISCPILOT01", "QS", "01-701-1203", 5048, "ACITM03", "DELAYED WORD RECALL", "ADAS-COG", "", "10", "", "10", 10, "", "", "", "", "", 12.0, "WEEK 24", 168, "TREATMENT", "2013-07-22", 171], ["CDISCPILOT01", "QS", "01-701-1203", 5004, "ACITM04", "COMMANDS", "ADAS-COG", "", "1", "", "1", 1, "", "", "", "Y", "", 3.0, "BASELINE", 1, "TREATMENT", "2013-02-02", 1], ["CDISCPILOT01", "QS", "01-701-1203", 5019, "ACITM04", "COMMANDS", "ADAS-COG", "", "0", "", "0", 0, "", "", "", "", "", 8.0, "WEEK 8", 56, "TREATMENT", "2013-03-30", 57], ["CDISCPILOT01", "QS", "01-701-1203", 5034, "ACITM04", "COMMANDS", "ADAS-COG", "", "0", "", "0", 0, "", "", "", "", "", 10.0, "WEEK 16", 112, "TREATMENT", "2013-05-25", 113], ["CDISCPILOT01", "QS", "01-701-1203", 5049, "ACITM04", "COMMANDS", "ADAS-COG", "", "0", "", "0", 0, "", "", "", "", "", 12.0, "WEEK 24", 168, "TREATMENT", "2013-07-22", 171], ["CDISCPILOT01", "QS", "01-701-1203", 5005, "ACITM05", "CONSTRUCTIONAL PRAXIS", "ADAS-COG", "", "2", "", "2", 2, "", "", "", "Y", "", 3.0, "BASELINE", 1, "TREATMENT", "2013-02-02", 1], ["CDISCPILOT01", "QS", "01-701-1203", 5020, "ACITM05", "CONSTRUCTIONAL PRAXIS", "ADAS-COG", "", "2", "", "2", 2, "", "", "", "", "", 8.0, "WEEK 8", 56, "TREATMENT", "2013-03-30", 57], ["CDISCPILOT01", "QS", "01-701-1203", 5035, "ACITM05", "CONSTRUCTIONAL PRAXIS", "ADAS-COG", "", "2", "", "2", 2, "", "", "", "", "", 10.0, "WEEK 16", 112, "TREATMENT", "2013-05-25", 113], ["CDISCPILOT01", "QS", "01-701-1203", 5050, "ACITM05", "CONSTRUCTIONAL PRAXIS", "ADAS-COG", "", "1", "", "1", 1, "", "", "", "", "", 12.0, "WEEK 24", 168, "TREATMENT", "2013-07-22", 171], ["CDISCPILOT01", "QS", "01-701-1203", 5006, "ACITM06", "IDEATIONAL PRAXIS", "ADAS-COG", "", "0", "", "0", 0, "", "", "", "Y", "", 3.0, "BASELINE", 1, "TREATMENT", "2013-02-02", 1], ["CDISCPILOT01", "QS", "01-701-1203", 5021, "ACITM06", "IDEATIONAL PRAXIS", "ADAS-COG", "", "1", "", "1", 1, "", "", "", "", "", 8.0, "WEEK 8", 56, "TREATMENT", "2013-03-30", 57], ["CDISCPILOT01", "QS", "01-701-1203", 5036, "ACITM06", "IDEATIONAL PRAXIS", "ADAS-COG", "", "0", "", "0", 0, "", "", "", "", "", 10.0, "WEEK 16", 112, "TREATMENT", "2013-05-25", 113], ["CDISCPILOT01", "QS", "01-701-1203", 5051, "ACITM06", "IDEATIONAL PRAXIS", "ADAS-COG", "", "0", "", "0", 0, "", "", "", "", "", 12.0, "WEEK 24", 168, "TREATMENT", "2013-07-22", 171], ["CDISCPILOT01", "QS", "01-701-1203", 5007, "ACITM07", "ORIENTATION", "ADAS-COG", "", "2", "", "2", 2, "", "", "", "Y", "", 3.0, "BASELINE", 1, "TREATMENT", "2013-02-02", 1], ["CDISCPILOT01", "QS", "01-701-1203", 5022, "ACITM07", "ORIENTATION", "ADAS-COG", "", "2", "", "2", 2, "", "", "", "", "", 8.0, "WEEK 8", 56, "TREATMENT", "2013-03-30", 57], ["CDISCPILOT01", "QS", "01-701-1203", 5037, "ACITM07", "ORIENTATION", "ADAS-COG", "", "3", "", "3", 3, "", "", "", "", "", 10.0, "WEEK 16", 112, "TREATMENT", "2013-05-25", 113], ["CDISCPILOT01", "QS", "01-701-1203", 5052, "ACITM07", "ORIENTATION", "ADAS-COG", "", "1", "", "1", 1, "", "", "", "", "", 12.0, "WEEK 24", 168, "TREATMENT", "2013-07-22", 171], ["CDISCPILOT01", "QS", "01-701-1203", 5008, "ACITM08", "WORD RECOGNITION", "ADAS-COG", "", "8", "", "8", 8, "", "", "", "Y", "", 3.0, "BASELINE", 1, "TREATMENT", "2013-02-02", 1], ["CDISCPILOT01", "QS", "01-701-1203", 5023, "ACITM08", "WORD RECOGNITION", "ADAS-COG", "", "4", "", "4", 4, "", "", "", "", "", 8.0, "WEEK 8", 56, "TREATMENT", "2013-03-30", 57], ["CDISCPILOT01", "QS", "01-701-1203", 5038, "ACITM08", "WORD RECOGNITION", "ADAS-COG", "", "8", "", "8", 8, "", "", "", "", "", 10.0, "WEEK 16", 112, "TREATMENT", "2013-05-25", 113], ["CDISCPILOT01", "QS", "01-701-1203", 5053, "ACITM08", "WORD RECOGNITION", "ADAS-COG", "", "6", "", "6", 6, "", "", "", "", "", 12.0, "WEEK 24", 168, "TREATMENT", "2013-07-22", 171], ["CDISCPILOT01", "QS", "01-701-1203", 5009, "ACITM09", "ATTENTION/VISUAL SEARCH TASK", "ADAS-COG", "", "30", "", "30", 30, "", "", "", "Y", "", 3.0, "BASELINE", 1, "TREATMENT", "2013-02-02", 1], ["CDISCPILOT01", "QS", "01-701-1203", 5024, "ACITM09", "ATTENTION/VISUAL SEARCH TASK", "ADAS-COG", "", "24", "", "24", 24, "", "", "", "", "", 8.0, "WEEK 8", 56, "TREATMENT", "2013-03-30", 57], ["CDISCPILOT01", "QS", "01-701-1203", 5039, "ACITM09", "ATTENTION/VISUAL SEARCH TASK", "ADAS-COG", "", "27", "", "27", 27, "", "", "", "", "", 10.0, "WEEK 16", 112, "TREATMENT", "2013-05-25", 113], ["CDISCPILOT01", "QS", "01-701-1203", 5054, "ACITM09", "ATTENTION/VISUAL SEARCH TASK", "ADAS-COG", "", "21", "", "21", 21, "", "", "", "", "", 12.0, "WEEK 24", 168, "TREATMENT", "2013-07-22", 171], ["CDISCPILOT01", "QS", "01-701-1203", 5010, "ACITM10", "MAZE SOLUTION", "ADAS-COG", "", "10", "sec", "10", 10, "sec", "", "", "Y", "", 3.0, "BASELINE", 1, "TREATMENT", "2013-02-02", 1], ["CDISCPILOT01", "QS", "01-701-1203", 5025, "ACITM10", "MAZE SOLUTION", "ADAS-COG", "", "6", "sec", "6", 6, "sec", "", "", "", "", 8.0, "WEEK 8", 56, "TREATMENT", "2013-03-30", 57], ["CDISCPILOT01", "QS", "01-701-1203", 5040, "ACITM10", "MAZE SOLUTION", "ADAS-COG", "", "7", "sec", "7", 7, "sec", "", "", "", "", 10.0, "WEEK 16", 112, "TREATMENT", "2013-05-25", 113], ["CDISCPILOT01", "QS", "01-701-1203", 5055, "ACITM10", "MAZE SOLUTION", "ADAS-COG", "", "4", "sec", "4", 4, "sec", "", "", "", "", 12.0, "WEEK 24", 168, "TREATMENT", "2013-07-22", 171], ["CDISCPILOT01", "QS", "01-701-1203", 5011, "ACITM11", "SPOKEN LANGUAGE ABILITY", "ADAS-COG", "", "0", "", "0", 0, "", "", "", "Y", "", 3.0, "BASELINE", 1, "TREATMENT", "2013-02-02", 1], ["CDISCPILOT01", "QS", "01-701-1203", 5026, "ACITM11", "SPOKEN LANGUAGE ABILITY", "ADAS-COG", "", "1", "", "1", 1, "", "", "", "", "", 8.0, "WEEK 8", 56, "TREATMENT", "2013-03-30", 57], ["CDISCPILOT01", "QS", "01-701-1203", 5041, "ACITM11", "SPOKEN LANGUAGE ABILITY", "ADAS-COG", "", "0", "", "0", 0, "", "", "", "", "", 10.0, "WEEK 16", 112, "TREATMENT", "2013-05-25", 113], ["CDISCPILOT01", "QS", "01-701-1203", 5056, "ACITM11", "SPOKEN LANGUAGE ABILITY", "ADAS-COG", "", "0", "", "0", 0, "", "", "", "", "", 12.0, "WEEK 24", 168, "TREATMENT", "2013-07-22", 171], ["CDISCPILOT01", "QS", "01-701-1203", 5012, "ACITM12", "COMPREHENSION OF SPOKEN LANGUAGE", "ADAS-COG", "", "1", "", "1", 1, "", "", "", "Y", "", 3.0, "BASELINE", 1, "TREATMENT", "2013-02-02", 1], ["CDISCPILOT01", "QS", "01-701-1203", 5027, "ACITM12", "COMPREHENSION OF SPOKEN LANGUAGE", "ADAS-COG", "", "1", "", "1", 1, "", "", "", "", "", 8.0, "WEEK 8", 56, "TREATMENT", "2013-03-30", 57], ["CDISCPILOT01", "QS", "01-701-1203", 5042, "ACITM12", "COMPREHENSION OF SPOKEN LANGUAGE", "ADAS-COG", "", "0", "", "0", 0, "", "", "", "", "", 10.0, "WEEK 16", 112, "TREATMENT", "2013-05-25", 113], ["CDISCPILOT01", "QS", "01-701-1203", 5057, "ACITM12", "COMPREHENSION OF SPOKEN LANGUAGE", "ADAS-COG", "", "1", "", "1", 1, "", "", "", "", "", 12.0, "WEEK 24", 168, "TREATMENT", "2013-07-22", 171], ["CDISCPILOT01", "QS", "01-701-1203", 5013, "ACITM13", "WORD FINDING DIFFICULTY IN SPONTANEOUS S", "ADAS-COG", "", "1", "", "1", 1, "", "", "", "Y", "", 3.0, "BASELINE", 1, "TREATMENT", "2013-02-02", 1], ["CDISCPILOT01", "QS", "01-701-1203", 5028, "ACITM13", "WORD FINDING DIFFICULTY IN SPONTANEOUS S", "ADAS-COG", "", "1", "", "1", 1, "", "", "", "", "", 8.0, "WEEK 8", 56, "TREATMENT", "2013-03-30", 57], ["CDISCPILOT01", "QS", "01-701-1203", 5043, "ACITM13", "WORD FINDING DIFFICULTY IN SPONTANEOUS S", "ADAS-COG", "", "0", "", "0", 0, "", "", "", "", "", 10.0, "WEEK 16", 112, "TREATMENT", "2013-05-25", 113], ["CDISCPILOT01", "QS", "01-701-1203", 5058, "ACITM13", "WORD FINDING DIFFICULTY IN SPONTANEOUS S", "ADAS-COG", "", "0", "", "0", 0, "", "", "", "", "", 12.0, "WEEK 24", 168, "TREATMENT", "2013-07-22", 171], ["CDISCPILOT01", "QS", "01-701-1203", 5014, "ACITM14", "RECALL OF TEST INSTRUCTIONS", "ADAS-COG", "", "1", "", "1", 1, "", "", "", "Y", "", 3.0, "BASELINE", 1, "TREATMENT", "2013-02-02", 1], ["CDISCPILOT01", "QS", "01-701-1203", 5029, "ACITM14", "RECALL OF TEST INSTRUCTIONS", "ADAS-COG", "", "1", "", "1", 1, "", "", "", "", "", 8.0, "WEEK 8", 56, "TREATMENT", "2013-03-30", 57], ["CDISCPILOT01", "QS", "01-701-1203", 5044, "ACITM14", "RECALL OF TEST INSTRUCTIONS", "ADAS-COG", "", "0", "", "0", 0, "", "", "", "", "", 10.0, "WEEK 16", 112, "TREATMENT", "2013-05-25", 113], ["CDISCPILOT01", "QS", "01-701-1203", 5059, "ACITM14", "RECALL OF TEST INSTRUCTIONS", "ADAS-COG", "", "0", "", "0", 0, "", "", "", "", "", 12.0, "WEEK 24", 168, "TREATMENT", "2013-07-22", 171], ["CDISCPILOT01", "QS", "01-701-1203", 5015, "ACTOT", "ADAS-COG(11) Subscore", "ADAS-COG", "", "", "", "22", 22, "", "", "", "Y", "Y", 3.0, "BASELINE", 1, "TREATMENT", "2013-02-02", 1], ["CDISCPILOT01", "QS", "01-701-1203", 5030, "ACTOT", "ADAS-COG(11) Subscore", "ADAS-COG", "", "", "", "20", 20, "", "", "", "", "Y", 8.0, "WEEK 8", 56, "TREATMENT", "2013-03-30", 57], ["CDISCPILOT01", "QS", "01-701-1203", 5045, "ACTOT", "ADAS-COG(11) Subscore", "ADAS-COG", "", "", "", "20", 20, "", "", "", "", "Y", 10.0, "WEEK 16", 112, "TREATMENT", "2013-05-25", 113], ["CDISCPILOT01", "QS", "01-701-1203", 5060, "ACTOT", "ADAS-COG(11) Subscore", "ADAS-COG", "", "", "", "16", 16, "", "", "", "", "Y", 12.0, "WEEK 24", 168, "TREATMENT", "2013-07-22", 171], ["CDISCPILOT01", "QS", "01-701-1211", 5001, "ACITM01", "WORD RECALL TASK", "ADAS-COG", "", "10", "", "10", 10, "", "", "", "Y", "", 3.0, "BASELINE", 1, "TREATMENT", "2012-11-15", 1], ["CDISCPILOT01", "QS", "01-701-1211", 5016, "ACITM01", "WORD RECALL TASK", "ADAS-COG", "", "9", "", "9", 9, "", "", "", "", "", 8.0, "WEEK 8", 56, "TREATMENT", "2013-01-08", 55], ["CDISCPILOT01", "QS", "01-701-1211", 5002, "ACITM02", "NAMING OBJECTS AND FINGERS (REFER TO 5 C", "ADAS-COG", "", "3", "", "3", 3, "", "", "", "Y", "", 3.0, "BASELINE", 1, "TREATMENT", "2012-11-15", 1], ["CDISCPILOT01", "QS", "01-701-1211", 5017, "ACITM02", "NAMING OBJECTS AND FINGERS (REFER TO 5 C", "ADAS-COG", "", "4", "", "4", 4, "", "", "", "", "", 8.0, "WEEK 8", 56, "TREATMENT", "2013-01-08", 55], ["CDISCPILOT01", "QS", "01-701-1211", 5003, "ACITM03", "DELAYED WORD RECALL", "ADAS-COG", "", "10", "", "10", 10, "", "", "", "Y", "", 3.0, "BASELINE", 1, "TREATMENT", "2012-11-15", 1], ["CDISCPILOT01", "QS", "01-701-1211", 5018, "ACITM03", "DELAYED WORD RECALL", "ADAS-COG", "", "10", "", "10", 10, "", "", "", "", "", 8.0, "WEEK 8", 56, "TREATMENT", "2013-01-08", 55], ["CDISCPILOT01", "QS", "01-701-1211", 5004, "ACITM04", "COMMANDS", "ADAS-COG", "", "4", "", "4", 4, "", "", "", "Y", "", 3.0, "BASELINE", 1, "TREATMENT", "2012-11-15", 1], ["CDISCPILOT01", "QS", "01-701-1211", 5019, "ACITM04", "COMMANDS", "ADAS-COG", "", "5", "", "5", 5, "", "", "", "", "", 8.0, "WEEK 8", 56, "TREATMENT", "2013-01-08", 55], ["CDISCPILOT01", "QS", "01-701-1211", 5005, "ACITM05", "CONSTRUCTIONAL PRAXIS", "ADAS-COG", "", "3", "", "3", 3, "", "", "", "Y", "", 3.0, "BASELINE", 1, "TREATMENT", "2012-11-15", 1], ["CDISCPILOT01", "QS", "01-701-1211", 5020, "ACITM05", "CONSTRUCTIONAL PRAXIS", "ADAS-COG", "", "4", "", "4", 4, "", "", "", "", "", 8.0, "WEEK 8", 56, "TREATMENT", "2013-01-08", 55], ["CDISCPILOT01", "QS", "01-701-1211", 5006, "ACITM06", "IDEATIONAL PRAXIS", "ADAS-COG", "", "3", "", "3", 3, "", "", "", "Y", "", 3.0, "BASELINE