{"datasetJSONCreationDateTime": "2025-10-13T17:10:31", "datasetJSONVersion": "1.1.0", "fileOID": "UpdatedCDISCPILOT.CDISC SDTM.3.2.QSHI", "studyOID": "UpdatedCDISCPILOT.CDISC SDTM.3.2", "metaDataVersionOID": "MDV.UpdatedCDISCPILOT.CDISC SDTM.3.2", "itemGroupOID": "{QSHI", "records": 3302, "name": "QSHI", "label": "Questionnaires", "columns": [{"itemOID": "IT.QSHI.STUDYID", "name": "STUDYID", "label": "Study Identifier", "dataType": "string", "length": 12, "keySequence": 1}, {"itemOID": "IT.QSHI.DOMAIN", "name": "DOMAIN", "label": "Domain Abbreviation", "dataType": "string", "length": 2}, {"itemOID": "IT.QSHI.USUBJID", "name": "USUBJID", "label": "Unique Subject Identifier", "dataType": "string", "length": 11, "keySequence": 2}, {"itemOID": "IT.QSHI.QSSEQ", "name": "QSSEQ", "label": "Sequence Number", "dataType": "integer", "length": 8}, {"itemOID": "IT.QSHI.QSTESTCD", "name": "QSTESTCD", "label": "Question Short Name", "dataType": "string", "length": 8, "keySequence": 3}, {"itemOID": "IT.QSHI.QSTEST", "name": "QSTEST", "label": "Question Name", "dataType": "string", "length": 40}, {"itemOID": "IT.QSHI.QSCAT", "name": "QSCAT", "label": "Category of Question", "dataType": "string", "length": 70}, {"itemOID": "IT.QSHI.QSSCAT", "name": "QSSCAT", "label": "Subcategory for Question", "dataType": "string", "length": 26}, {"itemOID": "IT.QSHI.QSORRES", "name": "QSORRES", "label": "Finding in Original Units", "dataType": "string", "length": 20}, {"itemOID": "IT.QSHI.QSORRESU", "name": "QSORRESU", "label": "Original Units", "dataType": "string", "length": 7}, {"itemOID": "IT.QSHI.QSSTRESC", "name": "QSSTRESC", "label": "Character Result/Finding in Std Format", "dataType": "string", "length": 4}, {"itemOID": "IT.QSHI.QSSTRESN", "name": "QSSTRESN", "label": "Numeric Finding in Standard Units", "dataType": "integer", "length": 8}, {"itemOID": "IT.QSHI.QSSTRESU", "name": "QSSTRESU", "label": "Standard Units", "dataType": "string", "length": 7}, {"itemOID": "IT.QSHI.QSSTAT", "name": "QSSTAT", "label": "Completion Status", "dataType": "string", "length": 8}, {"itemOID": "IT.QSHI.QSREASND", "name": "QSREASND", "label": "Reason Not Performed", "dataType": "string", "length": 17}, {"itemOID": "IT.QSHI.QSBLFL", "name": "QSBLFL", "label": "Baseline Flag", "dataType": "string", "length": 1}, {"itemOID": "IT.QSHI.QSDRVFL", "name": "QSDRVFL", "label": "Derived Flag", "dataType": "string", "length": 1}, {"itemOID": "IT.QSHI.VISITNUM", "name": "VISITNUM", "label": "Visit Number", "dataType": "double", "length": 8, "keySequence": 4}, {"itemOID": "IT.QSHI.VISIT", "name": "VISIT", "label": "Visit Name", "dataType": "string", "length": 19}, {"itemOID": "IT.QSHI.VISITDY", "name": "VISITDY", "label": "Planned Study Day of Visit", "dataType": "integer", "length": 8}, {"itemOID": "IT.QSHI.EPOCH", "name": "EPOCH", "label": "Epoch", "dataType": "string", "length": 9}, {"itemOID": "IT.QSHI.QSDTC", "name": "QSDTC", "label": "Date/Time of Finding", "dataType": "string", "length": 10}, {"itemOID": "IT.QSHI.QSDY", "name": "QSDY", "label": "Study Day of Finding", "dataType": "integer", "length": 8}]}
["CDISCPILOT01", "QS", "01-701-1015", 1001, "MHITM01", "ABRUPT ONSET", "MHIS-NACC", "", "ABSENT", "", "0", 0, "", "", "", "", "", 1.0, "SCREENING 1", -7, "TREATMENT", "2013-12-26", -7]
["CDISCPILOT01", "QS", "01-701-1015", 1002, "MHITM02", "STEPWISE DETERIORATION", "MHIS-NACC", "", "ABSENT", "", "0", 0, "", "", "", "", "", 1.0, "SCREENING 1", -7, "TREATMENT", "2013-12-26", -7]
["CDISCPILOT01", "QS", "01-701-1015", 1003, "MHITM03", "FLUCTUATING COURSE", "MHIS-NACC", "", "ABSENT", "", "0", 0, "", "", "", "", "", 1.0, "SCREENING 1", -7, "TREATMENT", "2013-12-26", -7]
["CDISCPILOT01", "QS", "01-701-1015", 1004, "MHITM04", "NOCTURNAL CONFUSION", "MHIS-NACC", "", "ABSENT", "", "0", 0, "", "", "", "", "", 1.0, "SCREENING 1", -7, "TREATMENT", "2013-12-26", -7]
["CDISCPILOT01", "QS", "01-701-1015", 1005, "MHITM05", "RELATIVE PRESERVATION OF PERSONALITY", "MHIS-NACC", "", "ABSENT", "", "0", 0, "", "", "", "", "", 1.0, "SCREENING 1", -7, "TREATMENT", "2013-12-26", -7]
["CDISCPILOT01", "QS", "01-701-1015", 1006, "MHITM06", "DEPRESSION", "MHIS-NACC", "", "ABSENT", "", "0", 0, "", "", "", "", "", 1.0, "SCREENING 1", -7, "TREATMENT", "2013-12-26", -7]
["CDISCPILOT01", "QS", "01-701-1015", 1007, "MHITM07", "SOMATIC COMPLAINTS", "MHIS-NACC", "", "PRESENT", "", "1", 1, "", "", "", "", "", 1.0, "SCREENING 1", -7, "TREATMENT", "2013-12-26", -7]
["CDISCPILOT01", "QS", "01-701-1015", 1008, "MHITM08", "EMOTIONAL INCONTINENCE", "MHIS-NACC", "", "ABSENT", "", "0", 0, "", "", "", "", "", 1.0, "SCREENING 1", -7, "TREATMENT", "2013-12-26", -7]
["CDISCPILOT01", "QS", "01-701-1015", 1009, "MHITM09", "HISTORY OF HYPERTENSION", "MHIS-NACC", "", "ABSENT", "", "0", 0, "", "", "", "", "", 1.0, "SCREENING 1", -7, "TREATMENT", "2013-12-26", -7]
["CDISCPILOT01", "QS", "01-701-1015", 1010, "MHITM10", "HISTORY OF STROKES", "MHIS-NACC", "", "ABSENT", "", "0", 0, "", "", "", "", "", 1.0, "SCREENING 1", -7, "TREATMENT", "2013-12-26", -7]
["CDISCPILOT01", "QS", "01-701-1015", 1011, "MHITM11", "EVIDENCE OF ASSOCIATED ATHEROSCLEROSIS", "MHIS-NACC", "", "ABSENT", "", "0", 0, "", "", "", "", "", 1.0, "SCREENING 1", -7, "TREATMENT", "2013-12-26", -7]
["CDISCPILOT01", "QS", "01-701-1015", 1012, "MHITM12", "FOCAL NEUROLOGICAL SYMPTOMS", "MHIS-NACC", "", "ABSENT", "", "0", 0, "", "", "", "", "", 1.0, "SCREENING 1", -7, "TREATMENT", "2013-12-26", -7]
["CDISCPILOT01", "QS", "01-701-1015", 1013, "MHITM13", "FOCAL NEUROLOGICAL SIGNS", "MHIS-NACC", "", "ABSENT", "", "0", 0, "", "", "", "", "", 1.0, "SCREENING 1", -7, "TREATMENT", "2013-12-26", -7]
["CDISCPILOT01", "QS", "01-701-1023", 1001, "MHITM01", "ABRUPT ONSET", "MHIS-NACC", "", "ABSENT", "", "0", 0, "", "", "", "", "", 1.0, "SCREENING 1", -7, "TREATMENT", "2012-07-22", -14]
["CDISCPILOT01", "QS", "01-701-1023", 1002, "MHITM02", "STEPWISE DETERIORATION", "MHIS-NACC", "", "ABSENT", "", "0", 0, "", "", "", "", "", 1.0, "SCREENING 1", -7, "TREATMENT", "2012-07-22", -14]
["CDISCPILOT01", "QS", "01-701-1023", 1003, "MHITM03", "FLUCTUATING COURSE", "MHIS-NACC", "", "ABSENT", "", "0", 0, "", "", "", "", "", 1.0, "SCREENING 1", -7, "TREATMENT", "2012-07-22", -14]
["CDISCPILOT01", "QS", "01-701-1023", 1004, "MHITM04", "NOCTURNAL CONFUSION", "MHIS-NACC", "", "ABSENT", "", "0", 0, "", "", "", "", "", 1.0, "SCREENING 1", -7, "TREATMENT", "2012-07-22", -14]
["CDISCPILOT01", "QS", "01-701-1023", 1005, "MHITM05", "RELATIVE PRESERVATION OF PERSONALITY", "MHIS-NACC", "", "ABSENT", "", "0", 0, "", "", "", "", "", 1.0, "SCREENING 1", -7, "TREATMENT", "2012-07-22", -14]
["CDISCPILOT01", "QS", "01-701-1023", 1006, "MHITM06", "DEPRESSION", "MHIS-NACC", "", "ABSENT", "", "0", 0, "", "", "", "", "", 1.0, "SCREENING 1", -7, "TREATMENT", "2012-07-22", -14]
["CDISCPILOT01", "QS", "01-701-1023", 1007, "MHITM07", "SOMATIC COMPLAINTS", "MHIS-NACC", "", "PRESENT", "", "1", 1, "", "", "", "", "", 1.0, "SCREENING 1", -7, "TREATMENT", "2012-07-22", -14]
["CDISCPILOT01", "QS", "01-701-1023", 1008, "MHITM08", "EMOTIONAL INCONTINENCE", "MHIS-NACC", "", "ABSENT", "", "0", 0, "", "", "", "", "", 1.0, "SCREENING 1", -7, "TREATMENT", "2012-07-22", -14]
["CDISCPILOT01", "QS", "01-701-1023", 1009, "MHITM09", "HISTORY OF HYPERTENSION", "MHIS-NACC", "", "ABSENT", "", "0", 0, "", "", "", "", "", 1.0, "SCREENING 1", -7, "TREATMENT", "2012-07-22", -14]
["CDISCPILOT01", "QS", "01-701-1023", 1010, "MHITM10", "HISTORY OF STROKES", "MHIS-NACC", "", "ABSENT", "", "0", 0, "", "", "", "", "", 1.0, "SCREENING 1", -7, "TREATMENT", "2012-07-22", -14]
["CDISCPILOT01", "QS", "01-701-1023", 1011, "MHITM11", "EVIDENCE OF ASSOCIATED ATHEROSCLEROSIS", "MHIS-NACC", "", "ABSENT", "", "0", 0, "", "", "", "", "", 1.0, "SCREENING 1", -7, "TREATMENT", "2012-07-22", -14]
["CDISCPILOT01", "QS", "01-701-1023", 1012, "MHITM12", "FOCAL NEUROLOGICAL SYMPTOMS", "MHIS-NACC", "", "ABSENT", "", "0", 0, "", "", "", "", "", 1.0, "SCREENING 1", -7, "TREATMENT", "2012-07-22", -14]
["CDISCPILOT01", "QS", "01-701-1023", 1013, "MHITM13", "FOCAL NEUROLOGICAL SIGNS", "MHIS-NACC", "", "ABSENT", "", "0", 0, "", "", "", "", "", 1.0, "SCREENING 1", -7, "TREATMENT", "2012-07-22", -14]
["CDISCPILOT01", "QS", "01-701-1028", 1001, "MHITM01", "ABRUPT ONSET", "MHIS-NACC", "", "ABSENT", "", "0", 0, "", "", "", "", "", 1.0, "SCREENING 1", -7, "TREATMENT", "2013-07-11", -8]
["CDISCPILOT01", "QS", "01-701-1028", 1002, "MHITM02", "STEPWISE DETERIORATION", "MHIS-NACC", "", "ABSENT", "", "0", 0, "", "", "", "", "", 1.0, "SCREENING 1", -7, "TREATMENT", "2013-07-11", -8]
["CDISCPILOT01", "QS", "01-701-1028", 1003, "MHITM03", "FLUCTUATING COURSE", "MHIS-NACC", "", "ABSENT", "", "0", 0, "", "", "", "", "", 1.0, "SCREENING 1", -7, "TREATMENT", "2013-07-11", -8]
["CDISCPILOT01", "QS", "01-701-1028", 1004, "MHITM04", "NOCTURNAL CONFUSION", "MHIS-NACC", "", "ABSENT", "", "0", 0, "", "", "", "", "", 1.0, "SCREENING 1", -7, "TREATMENT", "2013-07-11", -8]
["CDISCPILOT01", "QS", "01-701-1028", 1005, "MHITM05", "RELATIVE PRESERVATION OF PERSONALITY", "MHIS-NACC", "", "ABSENT", "", "0", 0, "", "", "", "", "", 1.0, "SCREENING 1", -7, "TREATMENT", "2013-07-11", -8]
["CDISCPILOT01", "QS", "01-701-1028", 1006, "MHITM06", "DEPRESSION", "MHIS-NACC", "", "ABSENT", "", "0", 0, "", "", "", "", "", 1.0, "SCREENING 1", -7, "TREATMENT", "2013-07-11", -8]
["CDISCPILOT01", "QS", "01-701-1028", 1007, "MHITM07", "SOMATIC COMPLAINTS", "MHIS-NACC", "", "ABSENT", "", "0", 0, "", "", "", "", "", 1.0, "SCREENING 1", -7, "TREATMENT", "2013-07-11", -8]
["CDISCPILOT01", "QS", "01-701-1028", 1008, "MHITM08", "EMOTIONAL INCONTINENCE", "MHIS-NACC", "", "ABSENT", "", "0", 0, "", "", "", "", "", 1.0, "SCREENING 1", -7, "TREATMENT", "2013-07-11", -8]
["CDISCPILOT01", "QS", "01-701-1028", 1009, "MHITM09", "HISTORY OF HYPERTENSION", "MHIS-NACC", "", "ABSENT", "", "0", 0, "", "", "", "", "", 1.0, "SCREENING 1", -7, "TREATMENT", "2013-07-11", -8]
["CDISCPILOT01", "QS", "01-701-1028", 1010, "MHITM10", "HISTORY OF STROKES", "MHIS-NACC", "", "ABSENT", "", "0", 0, "", "", "", "", "", 1.0, "SCREENING 1", -7, "TREATMENT", "2013-07-11", -8]
["CDISCPILOT01", "QS", "01-701-1028", 1011, "MHITM11", "EVIDENCE OF ASSOCIATED ATHEROSCLEROSIS", "MHIS-NACC", "", "ABSENT", "", "0", 0, "", "", "", "", "", 1.0, "SCREENING 1", -7, "TREATMENT", "2013-07-11", -8]
["CDISCPILOT01", "QS", "01-701-1028", 1012, "MHITM12", "FOCAL NEUROLOGICAL SYMPTOMS", "MHIS-NACC", "", "ABSENT", "", "0", 0, "", "", "", "", "", 1.0, "SCREENING 1", -7, "TREATMENT", "2013-07-11", -8]
["CDISCPILOT01", "QS", "01-701-1028", 1013, "MHITM13", "FOCAL NEUROLOGICAL SIGNS", "MHIS-NACC", "", "ABSENT", "", "0", 0, "", "", "", "", "", 1.0, "SCREENING 1", -7, "TREATMENT", "2013-07-11", -8]
["CDISCPILOT01", "QS", "01-701-1033", 1001, "MHITM01", "ABRUPT ONSET", "MHIS-NACC", "", "ABSENT", "", "0", 0, "", "", "", "", "", 1.0, "SCREENING 1", -7, "TREATMENT", "2014-03-10", -8]
["CDISCPILOT01", "QS", "01-701-1033", 1002, "MHITM02", "STEPWISE DETERIORATION", "MHIS-NACC", "", "ABSENT", "", "0", 0, "", "", "", "", "", 1.0, "SCREENING 1", -7, "TREATMENT", "2014-03-10", -8]
["CDISCPILOT01", "QS", "01-701-1033", 1003, "MHITM03", "FLUCTUATING COURSE", "MHIS-NACC", "", "ABSENT", "", "0", 0, "", "", "", "", "", 1.0, "SCREENING 1", -7, "TREATMENT", "2014-03-10", -8]
["CDISCPILOT01", "QS", "01-701-1033", 1004, "MHITM04", "NOCTURNAL CONFUSION", "MHIS-NACC", "", "ABSENT", "", "0", 0, "", "", "", "", "", 1.0, "SCREENING 1", -7, "TREATMENT", "2014-03-10", -8]
["CDISCPILOT01", "QS", "01-701-1033", 1005, "MHITM05", "RELATIVE PRESERVATION OF PERSONALITY", "MHIS-NACC", "", "ABSENT", "", "0", 0, "", "", "", "", "", 1.0, "SCREENING 1", -7, "TREATMENT", "2014-03-10", -8]
["CDISCPILOT01", "QS", "01-701-1033", 1006, "MHITM06", "DEPRESSION", "MHIS-NACC", "", "ABSENT", "", "0", 0, "", "", "", "", "", 1.0, "SCREENING 1", -7, "TREATMENT", "2014-03-10", -8]
["CDISCPILOT01", "QS", "01-701-1033", 1007, "MHITM07", "SOMATIC COMPLAINTS", "MHIS-NACC", "", "ABSENT", "", "0", 0, "", "", "", "", "", 1.0, "SCREENING 1", -7, "TREATMENT", "2014-03-10", -8]
["CDISCPILOT01", "QS", "01-701-1033", 1008, "MHITM08", "EMOTIONAL INCONTINENCE", "MHIS-NACC", "", "ABSENT", "", "0", 0, "", "", "", "", "", 1.0, "SCREENING 1", -7, "TREATMENT", "2014-03-10", -8]
["CDISCPILOT01", "QS", "01-701-1033", 1009, "MHITM09", "HISTORY OF HYPERTENSION", "MHIS-NACC", "", "ABSENT", "", "0", 0, "", "", "", "", "", 1.0, "SCREENING 1", -7, "TREATMENT", "2014-03-10", -8]
["CDISCPILOT01", "QS", "01-701-1033", 1010, "MHITM10", "HISTORY OF STROKES", "MHIS-NACC", "", "ABSENT", "", "0", 0, "", "", "", "", "", 1.0, "SCREENING 1", -7, "TREATMENT", "2014-03-10", -8]
["CDISCPILOT01", "QS", "01-701-1033", 1011, "MHITM11", "EVIDENCE OF ASSOCIATED ATHEROSCLEROSIS", "MHIS-NACC", "", "ABSENT", "", "0", 0, "", "", "", "", "", 1.0, "SCREENING 1", -7, "TREATMENT", "2014-03-10", -8]
["CDISCPILOT01", "QS", "01-701-1033", 1012, "MHITM12", "FOCAL NEUROLOGICAL SYMPTOMS", "MHIS-NACC", "", "ABSENT", "", "0", 0, "", "", "", "", "", 1.0, "SCREENING 1", -7, "TREATMENT", "2014-03-10", -8]
["CDISCPILOT01", "QS", "01-701-1033", 1013, "MHITM13", "FOCAL NEUROLOGICAL SIGNS", "MHIS-NACC", "", "ABSENT", "", "0", 0, "", "", "", "", "", 1.0, "SCREENING 1", -7, "TREATMENT", "2014-03-10", -8]
["CDISCPILOT01", "QS", "01-701-1034", 1001, "MHITM01", "ABRUPT ONSET", "MHIS-NACC", "", "ABSENT", "", "0", 0, "", "", "", "", "", 1.0, "SCREENING 1", -7, "TREATMENT", "2014-06-24", -7]
["CDISCPILOT01", "QS", "01-701-1034", 1002, "MHITM02", "STEPWISE DETERIORATION", "MHIS-NACC", "", "ABSENT", "", "0", 0, "", "", "", "", "", 1.0, "SCREENING 1", -7, "TREATMENT", "2014-06-24", -7]
["CDISCPILOT01", "QS", "01-701-1034", 1003, "MHITM03", "FLUCTUATING COURSE", "MHIS-NACC", "", "ABSENT", "", "0", 0, "", "", "", "", "", 1.0, "SCREENING 1", -7, "TREATMENT", "2014-06-24", -7]
["CDISCPILOT01", "QS", "01-701-1034", 1004, "MHITM04", "NOCTURNAL CONFUSION", "MHIS-NACC", "", "ABSENT", "", "0", 0, "", "", "", "", "", 1.0, "SCREENING 1", -7, "TREATMENT", "2014-06-24", -7]
["CDISCPILOT01", "QS", "01-701-1034", 1005, "MHITM05", "RELATIVE PRESERVATION OF PERSONALITY", "MHIS-NACC", "", "ABSENT", "", "0", 0, "", "", "", "", "", 1.0, "SCREENING 1", -7, "TREATMENT", "2014-06-24", -7]
["CDISCPILOT01", "QS", "01-701-1034", 1006, "MHITM06", "DEPRESSION", "MHIS-NACC", "", "ABSENT", "", "0", 0, "", "", "", "", "", 1.0, "SCREENING 1", -7, "TREATMENT", "2014-06-24", -7]
["CDISCPILOT01", "QS", "01-701-1034", 1007, "MHITM07", "SOMATIC COMPLAINTS", "MHIS-NACC", "", "ABSENT", "", "0", 0, "", "", "", "", "", 1.0, "SCREENING 1", -7, "TREATMENT", "2014-06-24", -7]
["CDISCPILOT01", "QS", "01-701-1034", 1008, "MHITM08", "EMOTIONAL INCONTINENCE", "MHIS-NACC", "", "ABSENT", "", "0", 0, "", "", "", "", "", 1.0, "SCREENING 1", -7, "TREATMENT", "2014-06-24", -7]
["CDISCPILOT01", "QS", "01-701-1034", 1009, "MHITM09", "HISTORY OF HYPERTENSION", "MHIS-NACC", "", "ABSENT", "", "0", 0, "", "", "", "", "", 1.0, "SCREENING 1", -7, "TREATMENT", "2014-06-24", -7]
["CDISCPILOT01", "QS", "01-701-1034", 1010, "MHITM10", "HISTORY OF STROKES", "MHIS-NACC", "", "ABSENT", "", "0", 0, "", "", "", "", "", 1.0, "SCREENING 1", -7, "TREATMENT", "2014-06-24", -7]
["CDISCPILOT01", "QS", "01-701-1034", 1011, "MHITM11", "EVIDENCE OF ASSOCIATED ATHEROSCLEROSIS", "MHIS-NACC", "", "ABSENT", "", "0", 0, "", "", "", "", "", 1.0, "SCREENING 1", -7, "TREATMENT", "2014-06-24", -7]
["CDISCPILOT01", "QS", "01-701-1034", 1012, "MHITM12", "FOCAL NEUROLOGICAL SYMPTOMS", "MHIS-NACC", "", "ABSENT", "", "0", 0, "", "", "", "", "", 1.0, "SCREENING 1", -7, "TREATMENT", "2014-06-24", -7]
["CDISCPILOT01", "QS", "01-701-1034", 1013, "MHITM13", "FOCAL NEUROLOGICAL SIGNS", "MHIS-NACC", "", "ABSENT", "", "0", 0, "", "", "", "", "", 1.0, "SCREENING 1", -7, "TREATMENT", "2014-06-24", -7]
["CDISCPILOT01", "QS", "01-701-1047", 1001, "MHITM01", "ABRUPT ONSET", "MHIS-NACC", "", "ABSENT", "", "0", 0, "", "", "", "", "", 1.0, "SCREENING 1", -7, "TREATMENT", "2013-01-22", -21]
["CDISCPILOT01", "QS", "01-701-1047", 1002, "MHITM02", "STEPWISE DETERIORATION", "MHIS-NACC", "", "ABSENT", "", "0", 0, "", "", "", "", "", 1.0, "SCREENING 1", -7, "TREATMENT", "2013-01-22", -21]
["CDISCPILOT01", "QS", "01-701-1047", 1003, "MHITM03", "FLUCTUATING COURSE", "MHIS-NACC", "", "ABSENT", "", "0", 0, "", "", "", "", "", 1.0, "SCREENING 1", -7, "TREATMENT", "2013-01-22", -21]
["CDISCPILOT01", "QS", "01-701-1047", 1004, "MHITM04", "NOCTURNAL CONFUSION", "MHIS-NACC", "", "ABSENT", "", "0", 0, "", "", "", "", "", 1.0, "SCREENING 1", -7, "TREATMENT", "2013-01-22", -21]
["CDISCPILOT01", "QS", "01-701-1047", 1005, "MHITM05", "RELATIVE PRESERVATION OF PERSONALITY", "MHIS-NACC", "", "ABSENT", "", "0", 0, "", "", "", "", "", 1.0, "SCREENING 1", -7, "TREATMENT", "2013-01-22", -21]
["CDISCPILOT01", "QS", "01-701-1047", 1006, "MHITM06", "DEPRESSION", "MHIS-NACC", "", "ABSENT", "", "0", 0, "", "", "", "", "", 1.0, "SCREENING 1", -7, "TREATMENT", "2013-01-22", -21]
["CDISCPILOT01", "QS", "01-701-1047", 1007, "MHITM07", "SOMATIC COMPLAINTS", "MHIS-NACC", "", "ABSENT", "", "0", 0, "", "", "", "", "", 1.0, "SCREENING 1", -7, "TREATMENT", "2013-01-22", -21]
["CDISCPILOT01", "QS", "01-701-1047", 1008, "MHITM08", "EMOTIONAL INCONTINENCE", "MHIS-NACC", "", "ABSENT", "", "0", 0, "", "", "", "", "", 1.0, "SCREENING 1", -7, "TREATMENT", "2013-01-22", -21]
["CDISCPILOT01", "QS", "01-701-1047", 1009, "MHITM09", "HISTORY OF HYPERTENSION", "MHIS-NACC", "", "ABSENT", "", "0", 0, "", "", "", "", "", 1.0, "SCREENING 1", -7, "TREATMENT", "2013-01-22", -21]
["CDISCPILOT01", "QS", "01-701-1047", 1010, "MHITM10", "HISTORY OF STROKES", "MHIS-NACC", "", "ABSENT", "", "0", 0, "", "", "", "", "", 1.0, "SCREENING 1", -7, "TREATMENT", "2013-01-22", -21]
["CDISCPILOT01", "QS", "01-701-1047", 1011, "MHITM11", "EVIDENCE OF ASSOCIATED ATHEROSCLEROSIS", "MHIS-NACC", "", "ABSENT", "", "0", 0, "", "", "", "", "", 1.0, "SCREENING 1", -7, "TREATMENT", "2013-01-22", -21]
["CDISCPILOT01", "QS", "01-701-1047", 1012, "MHITM12", "FOCAL NEUROLOGICAL SYMPTOMS", "MHIS-NACC", "", "ABSENT", "", "0", 0, "", "", "", "", "", 1.0, "SCREENING 1", -7, "TREATMENT", "2013-01-22", -21]
["CDISCPILOT01", "QS", "01-701-1047", 1013, "MHITM13", "FOCAL NEUROLOGICAL SIGNS", "MHIS-NACC", "", "ABSENT", "", "0", 0, "", "", "", "", "", 1.0, "SCREENING 1", -7, "TREATMENT", "2013-01-22", -21]
["CDISCPILOT01", "QS", "01-701-1097", 1001, "MHITM01", "ABRUPT ONSET", "MHIS-NACC", "", "ABSENT", "", "0", 0, "", "", "", "", "", 1.0, "SCREENING 1", -7, "TREATMENT", "2013-12-23", -9]
["CDISCPILOT01", "QS", "01-701-1097", 1002, "MHITM02", "STEPWISE DETERIORATION", "MHIS-NACC", "", "ABSENT", "", "0", 0, "", "", "", "", "", 1.0, "SCREENING 1", -7, "TREATMENT", "2013-12-23", -9]
["CDISCPILOT01", "QS", "01-701-1097", 1003, "MHITM03", "FLUCTUATING COURSE", "MHIS-NACC", "", "ABSENT", "", "0", 0, "", "", "", "", "", 1.0, "SCREENING 1", -7, "TREATMENT", "2013-12-23", -9]
["CDISCPILOT01", "QS", "01-701-1097", 1004, "MHITM04", "NOCTURNAL CONFUSION", "MHIS-NACC", "", "ABSENT", "", "0", 0, "", "", "", "", "", 1.0, "SCREENING 1", -7, "TREATMENT", "2013-12-23", -9]
["CDISCPILOT01", "QS", "01-701-1097", 1005, "MHITM05", "RELATIVE PRESERVATION OF PERSONALITY", "MHIS-NACC", "", "PRESENT", "", "1", 1, "", "", "", "", "", 1.0, "SCREENING 1", -7, "TREATMENT", "2013-12-23", -9]
["CDISCPILOT01", "QS", "01-701-1097", 1006, "MHITM06", "DEPRESSION", "MHIS-NACC", "", "ABSENT", "", "0", 0, "", "", "", "", "", 1.0, "SCREENING 1", -7, "TREATMENT", "2013-12-23", -9]
["CDISCPILOT01", "QS", "01-701-1097", 1007, "MHITM07", "SOMATIC COMPLAINTS", "MHIS-NACC", "", "ABSENT", "", "0", 0, "", "", "", "", "", 1.0, "SCREENING 1", -7, "TREATMENT", "2013-12-23", -9]
["CDISCPILOT01", "QS", "01-701-1097", 1008, "MHITM08", "EMOTIONAL INCONTINENCE", "MHIS-NACC", "", "ABSENT", "", "0", 0, "", "", "", "", "", 1.0, "SCREENING 1", -7, "TREATMENT", "2013-12-23", -9]
["CDISCPILOT01", "QS", "01-701-1097", 1009, "MHITM09", "HISTORY OF HYPERTENSION", "MHIS-NACC", "", "ABSENT", "", "0", 0, "", "", "", "", "", 1.0, "SCREENING 1", -7, "TREATMENT", "2013-12-23", -9]
["CDISCPILOT01", "QS", "01-701-1097", 1010, "MHITM10", "HISTORY OF STROKES", "MHIS-NACC", "", "ABSENT", "", "0", 0, "", "", "", "", "", 1.0, "SCREENING 1", -7, "TREATMENT", "2013-12-23", -9]
["CDISCPILOT01", "QS", "01-701-1097", 1011, "MHITM11", "EVIDENCE OF ASSOCIATED ATHEROSCLEROSIS", "MHIS-NACC", "", "ABSENT", "", "0", 0, "", "", "", "", "", 1.0, "SCREENING 1", -7, "TREATMENT", "2013-12-23", -9]
["CDISCPILOT01", "QS", "01-701-1097", 1012, "MHITM12", "FOCAL NEUROLOGICAL SYMPTOMS", "MHIS-NACC", "", "ABSENT", "", "0", 0, "", "", "", "", "", 1.0, "SCREENING 1", -7, "TREATMENT", "2013-12-23", -9]
["CDISCPILOT01", "QS", "01-701-1097", 1013, "MHITM13", "FOCAL NEUROLOGICAL SIGNS", "MHIS-NACC", "", "ABSENT", "", "0", 0, "", "", "", "", "", 1.0, "SCREENING 1", -7, "TREATMENT", "2013-12-23", -9]
["CDISCPILOT01", "QS", "01-701-1111", 1001, "MHITM01", "ABRUPT ONSET", "MHIS-NACC", "", "ABSENT", "", "0", 0, "", "", "", "", "", 1.0, "SCREENING 1", -7, "TREATMENT", "2012-08-25", -13]
["CDISCPILOT01", "QS", "01-701-1111", 1002, "MHITM02", "STEPWISE DETERIORATION", "MHIS-NACC", "", "ABSENT", "", "0", 0, "", "", "", "", "", 1.0, "SCREENING 1", -7, "TREATMENT", "2012-08-25", -13]
["CDISCPILOT01", "QS", "01-701-1111", 1003, "MHITM03", "FLUCTUATING COURSE", "MHIS-NACC", "", "ABSENT", "", "0", 0, "", "", "", "", "", 1.0, "SCREENING 1", -7, "TREATMENT", "2012-08-25", -13]
["CDISCPILOT01", "QS", "01-701-1111", 1004, "MHITM04", "NOCTURNAL CONFUSION", "MHIS-NACC", "", "ABSENT", "", "0", 0, "", "", "", "", "", 1.0, "SCREENING 1", -7, "TREATMENT", "2012-08-25", -13]
["CDISCPILOT01", "QS", "01-701-1111", 1005, "MHITM05", "RELATIVE PRESERVATION OF PERSONALITY", "MHIS-NACC", "", "ABSENT", "", "0", 0, "", "", "", "", "", 1.0, "SCREENING 1", -7, "TREATMENT", "2012-08-25", -13]
["CDISCPILOT01", "QS", "01-701-1111", 1006, "MHITM06", "DEPRESSION", "MHIS-NACC", "", "ABSENT", "", "0", 0, "", "", "", "", "", 1.0, "SCREENING 1", -7, "TREATMENT", "2012-08-25", -13]
["CDISCPILOT01", "QS", "01-701-1111", 1007, "MHITM07", "SOMATIC COMPLAINTS", "MHIS-NACC", "", "ABSENT", "", "0", 0, "", "", "", "", "", 1.0, "SCREENING 1", -7, "TREATMENT", "2012-08-25", -13]
["CDISCPILOT01", "QS", "01-701-1111", 1008, "MHITM08", "EMOTIONAL INCONTINENCE", "MHIS-NACC", "", "ABSENT", "", "0", 0, "", "", "", "", "", 1.0, "SCREENING 1", -7, "TREATMENT", "2012-08-25", -13]
["CDISCPILOT01", "QS", "01-701-1111", 1009, "MHITM09", "HISTORY OF HYPERTENSION", "MHIS-NACC", "", "PRESENT", "", "1", 1, "", "", "", "", "", 1.0, "SCREENING 1", -7, "TREATMENT", "2012-08-25", -13]
["CDISCPILOT01", "QS", "01-701-1111", 1010, "MHITM10", "HISTORY OF STROKES", "MHIS-NACC", "", "ABSENT", "", "0", 0, "", "", "", "", "", 1.0, "SCREENING 1", -7, "TREATMENT", "2012-08-25", -13]
["CDISCPILOT01", "QS", "01-701-1111", 1011, "MHITM11", "EVIDENCE OF ASSOCIATED ATHEROSCLEROSIS", "MHIS-NACC", "", "ABSENT", "", "0", 0, "", "", "", "", "", 1.0, "SCREENING 1", -7, "TREATMENT", "2012-08-25", -13]
["CDISCPILOT01", "QS", "01-701-1111", 1012, "MHITM12", "FOCAL NEUROLOGICAL SYMPTOMS", "MHIS-NACC", "", "ABSENT", "", "0", 0, "", "", "", "", "", 1.0, "SCREENING 1", -7, "TREATMENT", "2012-08-25", -13]
["CDISCPILOT01", "QS", "01-701-1111", 1013, "MHITM13", "FOCAL NEUROLOGICAL SIGNS", "MHIS-NACC", "", "ABSENT", "", "0", 0, "", "", "", "", "", 1.0, "SCREENING 1", -7, "TREATMENT", "2012-08-25", -13]
["CDISCPILOT01", "QS", "01-701-1115", 1001, "MHITM01", "ABRUPT ONSET", "MHIS-NACC", "", "ABSENT", "", "0", 0, "", "", "", "", "", 1.0, "SCREENING 1", -7, "TREATMENT", "2012-11-23", -7]
["CDISCPILOT01", "QS", "01-701-1115", 1002, "MHITM02", "STEPWISE DETERIORATION", "MHIS-NACC", "", "ABSENT", "", "0", 0, "", "", "", "", "", 1.0, "SCREENING 1", -7, "TREATMENT", "2012-11-23", -7]
["CDISCPILOT01", "QS", "01-701-1115", 1003, "MHITM03", "FLUCTUATING COURSE", "MHIS-NACC", "", "ABSENT", "", "0", 0, "", "", "", "", "", 1.0, "SCREENING 1", -7, "TREATMENT", "2012-11-23", -7]
["CDISCPILOT01", "QS", "01-701-1115", 1004, "MHITM04", "NOCTURNAL CONFUSION", "MHIS-NACC", "", "ABSENT", "", "0", 0, "", "", "", "", "", 1.0, "SCREENING 1", -7, "TREATMENT", "2012-11-23", -7]
["CDISCPILOT01", "QS", "01-701-1115", 1005, "MHITM05", "RELATIVE PRESERVATION OF PERSONALITY", "MHIS-NACC", "", "ABSENT", "", "0", 0, "", "", "", "", "", 1.0, "SCREENING 1", -7, "TREATMENT", "2012-11-23", -7]
["CDISCPILOT01", "QS", "01-701-1115", 1006, "MHITM06", "DEPRESSION", "MHIS-NACC", "", "ABSENT", "", "0", 0, "", "", "", "", "", 1.0, "SCREENING 1", -7, "TREATMENT", "2012-11-23", -7]
["CDISCPILOT01", "QS", "01-701-1115", 1007, "MHITM07", "SOMATIC COMPLAINTS", "MHIS-NACC", "", "ABSENT", "", "0", 0, "", "", "", "", "", 1.0, "SCREENING 1", -7, "TREATMENT", "2012-11-23", -7]
["CDISCPILOT01", "QS", "01-701-1115", 1008, "MHITM08", "EMOTIONAL INCONTINENCE", "MHIS-NACC", "", "ABSENT", "", "0", 0, "", "", "", "", "", 1.0, "SCREENING 1", -7, "TREATMENT", "2012-11-23", -7]
["CDISCPILOT01", "QS", "01-701-1115", 1009, "MHITM09", "HISTORY OF HYPERTENSION", "MHIS-NACC", "", "ABSENT", "", "0", 0, "", "", "", "", "", 1.0, "SCREENING 1", -7, "TREATMENT", "2012-11-23", -7]
["CDISCPILOT01", "QS", "01-701-1115", 1010, "MHITM10", "HISTORY OF STROKES", "MHIS-NACC", "", "ABSENT", "", "0", 0, "", "", "", "", "", 1.0, "SCREENING 1", -7, "TREATMENT", "2012-11-23", -7]
["CDISCPILOT01", "QS", "01-701-1115", 1011, "MHITM11", "EVIDENCE OF ASSOCIATED ATHEROSCLEROSIS", "MHIS-NACC", "", "ABSENT", "", "0", 0, "", "", "", "", "", 1.0, "SCREENING 1", -7, "TREATMENT", "2012-11-23", -7]
["CDISCPILOT01", "QS", "01-701-1115", 1012, "MHITM12", "FOCAL NEUROLOGICAL SYMPTOMS", "MHIS-NACC", "", "ABSENT", "", "0", 0, "", "", "", "", "", 1.0, "SCREENING 1", -7, "TREATMENT", "2012-11-23", -7]
["CDISCPILOT01", "QS", "01-701-1115", 1013, "MHITM13", "FOCAL NEUROLOGICAL SIGNS", "MHIS-NACC", "", "ABSENT", "", "0", 0, "", "", "", "", "", 1.0, "SCREENING 1", -7, "TREATMENT", "2012-11-23", -7]
["CDISCPILOT01", "QS", "01-701-1118", 1001, "MHITM01", "ABRUPT ONSET", "MHIS-NACC", "", "ABSENT", "", "0", 0, "", "", "", "", "", 1.0, "SCREENING 1", -7, "TREATMENT", "2014-02-27", -13]
["CDISCPILOT01", "QS", "01-701-1118", 1002, "MHITM02", "STEPWISE DETERIORATION", "MHIS-NACC", "", "ABSENT", "", "0", 0, "", "", "", "", "", 1.0, "SCREENING 1", -7, "TREATMENT", "2014-02-27", -13]
["CDISCPILOT01", "QS", "01-701-1118", 1003, "MHITM03", "FLUCTUATING COURSE", "MHIS-NACC", "", "ABSENT", "", "0", 0, "", "", "", "", "", 1.0, "SCREENING 1", -7, "TREATMENT", "2014-02-27", -13]
["CDISCPILOT01", "QS", "01-701-1118", 1004, "MHITM04", "NOCTURNAL CONFUSION", "MHIS-NACC", "", "ABSENT", "", "0", 0, "", "", "", "", "", 1.0, "SCREENING 1", -7, "TREATMENT", "2014-02-27", -13]
["CDISCPILOT01", "QS", "01-701-1118", 1005, "MHITM05", "RELATIVE PRESERVATION OF PERSONALITY", "MHIS-NACC", "", "ABSENT", "", "0", 0, "", "", "", "", "", 1.0, "SCREENING 1", -7, "TREATMENT", "2014-02-27", -13]
["CDISCPILOT01", "QS", "01-701-1118", 1006, "MHITM06", "DEPRESSION", "MHIS-NACC", "", "ABSENT", "", "0", 0, "", "", "", "", "", 1.0, "SCREENING 1", -7, "TREATMENT", "2014-02-27", -13]
["CDISCPILOT01", "QS", "01-701-1118", 1007, "MHITM07", "SOMATIC COMPLAINTS", "MHIS-NACC", "", "PRESENT", "", "1", 1, "", "", "", "", "", 1.0, "SCREENING 1", -7, "TREATMENT", "2014-02-27", -13]
["CDISCPILOT01", "QS", "01-701-1118", 1008, "MHITM08", "EMOTIONAL INCONTINENCE", "MHIS-NACC", "", "ABSENT", "", "0", 0, "", "", "", "", "", 1.0, "SCREENING 1", -7, "TREATMENT", "2014-02-27", -13]
["CDISCPILOT01", "QS", "01-701-1118", 1009, "MHITM09", "HISTORY OF HYPERTENSION", "MHIS-NACC", "", "ABSENT", "", "0", 0, "", "", "", "", "", 1.0, "SCREENING 1", -7, "TREATMENT", "2014-02-27", -13]
["CDISCPILOT01", "QS", "01-701-1118", 1010, "MHITM10", "HISTORY OF STROKES", "MHIS-NACC", "", "ABSENT", "", "0", 0, "", "", "", "", "", 1.0, "SCREENING 1", -7, "TREATMENT", "2014-02-27", -13]
["CDISCPILOT01", "QS", "01-701-1118", 1011, "MHITM11", "EVIDENCE OF ASSOCIATED ATHEROSCLEROSIS", "MHIS-NACC", "", "ABSENT", "", "0", 0, "", "", "", "", "", 1.0, "SCREENING 1", -7, "TREATMENT", "2014-02-27", -13]
["CDISCPILOT01", "QS", "01-701-1118", 1012, "MHITM12", "FOCAL NEUROLOGICAL SYMPTOMS", "MHIS-NACC", "", "ABSENT", "", "0", 0, "", "", "", "", "", 1.0, "SCREENING 1", -7, "TREATMENT", "2014-02-27", -13]
["CDISCPILOT01", "QS", "01-701-1118", 1013, "MHITM13", "FOCAL NEUROLOGICAL SIGNS", "MHIS-NACC", "", "ABSENT", "", "0", 0, "", "", "", "", "", 1.0, "SCREENING 1", -7, "TREATMENT", "2014-02-27", -13]
["CDISCPILOT01", "QS", "01-701-1130", 1001, "MHITM01", "ABRUPT ONSET", "MHIS-NACC", "", "ABSENT", "", "0", 0, "", "", "", "", "", 1.0, "SCREENING 1", -7, "TREATMENT", "2014-02-09", -6]
["CDISCPILOT01", "QS", "01-701-1130", 1002, "MHITM02", "STEPWISE DETERIORATION", "MHIS-NACC", "", "ABSENT", "", "0", 0, "", "", "", "", "", 1.0, "SCREENING 1", -7, "TREATMENT", "2014-02-09", -6]
["CDISCPILOT01", "QS", "01-701-1130", 1003, "MHITM03", "FLUCTUATING COURSE", "MHIS-NACC", "", "ABSENT", "", "0", 0, "", "", "", "", "", 1.0, "SCREENING 1", -7, "TREATMENT", "2014-02-09", -6]
["CDISCPILOT01", "QS", "01-701-1130", 1004, "MHITM04", "NOCTURNAL CONFUSION", "MHIS-NACC", "", "ABSENT", "", "0", 0, "", "", "", "", "", 1.0, "SCREENING 1", -7, "TREATMENT", "2014-02-09", -6]
["CDISCPILOT01", "QS", "01-701-1130", 1005, "MHITM05", "RELATIVE PRESERVATION OF PERSONALITY", "MHIS-NACC", "", "ABSENT", "", "0", 0, "", "", "", "", "", 1.0, "SCREENING 1", -7, "TREATMENT", "2014-02-09", -6]
["CDISCPILOT01", "QS", "01-701-1130", 1006, "MHITM06", "DEPRESSION", "MHIS-NACC", "", "ABSENT", "", "0", 0, "", "", "", "", "", 1.0, "SCREENING 1", -7, "TREATMENT", "2014-02-09", -6]
["CDISCPILOT01", "QS", "01-701-1130", 1007, "MHITM07", "SOMATIC COMPLAINTS", "MHIS-NACC", "", "ABSENT", "", "0", 0, "", "", "", "", "", 1.0, "SCREENING 1", -7, "TREATMENT", "2014-02-09", -6]
["CDISCPILOT01", "QS", "01-701-1130", 1008, "MHITM08", "EMOTIONAL INCONTINENCE", "MHIS-NACC", "", "ABSENT", "", "0", 0, "", "", "", "", "", 1.0, "SCREENING 1", -7, "TREATMENT", "2014-02-09", -6]
["CDISCPILOT01", "QS", "01-701-1130", 1009, "MHITM09", "HISTORY OF HYPERTENSION", "MHIS-NACC", "", "ABSENT", "", "0", 0, "", "", "", "", "", 1.0, "SCREENING 1", -7, "TREATMENT", "2014-02-09", -6]
["CDISCPILOT01", "QS", "01-701-1130", 1010, "MHITM10", "HISTORY OF STROKES", "MHIS-NACC", "", "ABSENT", "", "0", 0, "", "", "", "", "", 1.0, "SCREENING 1", -7, "TREATMENT", "2014-02-09", -6]
["CDISCPILOT01", "QS", "01-701-1130", 1011, "MHITM11", "EVIDENCE OF ASSOCIATED ATHEROSCLEROSIS", "MHIS-NACC", "", "ABSENT", "", "0", 0, "", "", "", "", "", 1.0, "SCREENING 1", -7, "TREATMENT", "2014-02-09", -6]
["CDISCPILOT01", "QS", "01-701-1130", 1012, "MHITM12", "FOCAL NEUROLOGICAL SYMPTOMS", "MHIS-NACC", "", "ABSENT", "", "0", 0, "", "", "", "", "", 1.0, "SCREENING 1", -7, "TREATMENT", "2014-02-09", -6]
["CDISCPILOT01", "QS", "01-701-1130", 1013, "MHITM13", "FOCAL NEUROLOGICAL SIGNS", "MHIS-NACC", "", "ABSENT", "", "0", 0, "", "", "", "", "", 1.0, "SCREENING 1", -7, "TREATMENT", "2014-02-09", -6]
["CDISCPILOT01", "QS", "01-701-1133", 1001, "MHITM01", "ABRUPT ONSET", "MHIS-NACC", "", "ABSENT", "", "0", 0, "", "", "", "", "", 1.0, "SCREENING 1", -7, "TREATMENT", "2012-10-23", -5]
["CDISCPILOT01", "QS", "01-701-1133", 1002, "MHITM02", "STEPWISE DETERIORATION", "MHIS-NACC", "", "ABSENT", "", "0", 0, "", "", "", "", "", 1.0, "SCREENING 1", -7, "TREATMENT", "2012-10-23", -5]
["CDISCPILOT01", "QS", "01-701-1133", 1003, "MHITM03", "FLUCTUATING COURSE", "MHIS-NACC", "", "ABSENT", "", "0", 0, "", "", "", "", "", 1.0, "SCREENING 1", -7, "TREATMENT", "2012-10-23", -5]
["CDISCPILOT01", "QS", "01-701-1133", 1004, "MHITM04", "NOCTURNAL CONFUSION", "MHIS-NACC", "", "ABSENT", "", "0", 0, "", "", "", "", "", 1.0, "SCREENING 1", -7, "TREATMENT", "2012-10-23", -5]
["CDISCPILOT01", "QS", "01-701-1133", 1005, "MHITM05", "RELATIVE PRESERVATION OF PERSONALITY", "MHIS-NACC", "", "ABSENT", "", "0", 0, "", "", "", "", "", 1.0, "SCREENING 1", -7, "TREATMENT", "2012-10-23", -5]
["CDISCPILOT01", "QS", "01-701-1133", 1006, "MHITM06", "DEPRESSION", "MHIS-NACC", "", "ABSENT", "", "0", 0, "", "", "", "", "", 1.0, "SCREENING 1", -7, "TREATMENT", "2012-10-23", -5]
["CDISCPILOT01", "QS", "01-701-1133", 1007, "MHITM07", "SOMATIC COMPLAINTS", "MHIS-NACC", "", "ABSENT", "", "0", 0, "", "", "", "", "", 1.0, "SCREENING 1", -7, "TREATMENT", "2012-10-23", -5]
["CDISCPILOT01", "QS", "01-701-1133", 1008, "MHITM08", "EMOTIONAL INCONTINENCE", "MHIS-NACC", "", "ABSENT", "", "0", 0, "", "", "", "", "", 1.0, "SCREENING 1", -7, "TREATMENT", "2012-10-23", -5]
["CDISCPILOT01", "QS", "01-701-1133", 1009, "MHITM09", "HISTORY OF HYPERTENSION", "MHIS-NACC", "", "ABSENT", "", "0", 0, "", "", "", "", "", 1.0, "SCREENING 1", -7, "TREATMENT", "2012-10-23", -5]
["CDISCPILOT01", "QS", "01-701-1133", 1010, "MHITM10", "HISTORY OF STROKES", "MHIS-NACC", "", "ABSENT", "", "0", 0, "", "", "", "", "", 1.0, "SCREENING 1", -7, "TREATMENT", "2012-10-23", -5]
["CDISCPILOT01", "QS", "01-701-1133", 1011, "MHITM11", "EVIDENCE OF ASSOCIATED ATHEROSCLEROSIS", "MHIS-NACC", "", "ABSENT", "", "0", 0, "", "", "", "", "", 1.0, "SCREENING 1", -7, "TREATMENT", "2012-10-23", -5]
["CDISCPILOT01", "QS", "01-701-1133", 1012, "MHITM12", "FOCAL NEUROLOGICAL SYMPTOMS", "MHIS-NACC", "", "ABSENT", "", "0", 0, "", "", "", "", "", 1.0, "SCREENING 1", -7, "TREATMENT", "2012-10-23", -5]
["CDISCPILOT01", "QS", "01-701-1133", 1013, "MHITM13", "FOCAL NEUROLOGICAL SIGNS", "MHIS-NACC", "", "ABSENT", "", "0", 0, "", "", "", "", "", 1.0, "SCREENING 1", -7, "TREATMENT", "2012-10-23", -5]
["CDISCPILOT01", "QS", "01-701-1146", 1001, "MHITM01", "ABRUPT ONSET", "MHIS-NACC", "", "ABSENT", "", "0", 0, "", "", "", "", "", 1.0, "SCREENING 1", -7, "TREATMENT", "2013-05-07", -13]
["CDISCPILOT01", "QS", "01-701-1146", 1002, "MHITM02", "STEPWISE DETERIORATION", "MHIS-NACC", "", "ABSENT", "", "0", 0, "", "", "", "", "", 1.0, "SCREENING 1", -7, "TREATMENT", "2013-05-07", -13]
["CDISCPILOT01", "QS", "01-701-1146", 1003, "MHITM03", "FLUCTUATING COURSE", "MHIS-NACC", "", "ABSENT", "", "0", 0, "", "", "", "", "", 1.0, "SCREENING 1", -7, "TREATMENT", "2013-05-07", -13]
["CDISCPILOT01", "QS", "01-701-1146", 1004, "MHITM04", "NOCTURNAL CONFUSION", "MHIS-NACC", "", "ABSENT", "", "0", 0, "", "", "", "", "", 1.0, "SCREENING 1", -7, "TREATMENT", "2013-05-07", -13]
["CDISCPILOT01", "QS", "01-701-1146", 1005, "MHITM05", "RELATIVE PRESERVATION OF PERSONALITY", "MHIS-NACC", "", "ABSENT", "", "0", 0, "", "", "", "", "", 1.0, "SCREENING 1", -7, "TREATMENT", "2013-05-07", -13]
["CDISCPILOT01", "QS", "01-701-1146", 1006, "MHITM06", "DEPRESSION", "MHIS-NACC", "", "PRESENT", "", "1", 1, "", "", "", "", "", 1.0, "SCREENING 1", -7, "TREATMENT", "2013-05-07", -13]
["CDISCPILOT01", "QS", "01-701-1146", 1007, "MHITM07", "SOMATIC COMPLAINTS", "MHIS-NACC", "", "ABSENT", "", "0", 0, "", "", "", "", "", 1.0, "SCREENING 1", -7, "TREATMENT", "2013-05-07", -13]
["CDISCPILOT01", "QS", "01-701-1146", 1008, "MHITM08", "EMOTIONAL INCONTINENCE", "MHIS-NACC", "", "ABSENT", "", "0", 0, "", "", "", "", "", 1.0, "SCREENING 1", -7, "TREATMENT", "2013-05-07", -13]
["CDISCPILOT01", "QS", "01-701-1146", 1009, "MHITM09", "HISTORY OF HYPERTENSION", "MHIS-NACC", "", "ABSENT", "", "0", 0, "", "", "", "", "", 1.0, "SCREENING 1", -7, "TREATMENT", "2013-05-07", -13]
["CDISCPILOT01", "QS", "01-701-1146", 1010, "MHITM10", "HISTORY OF STROKES", "MHIS-NACC", "", "ABSENT", "", "0", 0, "", "", "", "", "", 1.0, "SCREENING 1", -7, "TREATMENT", "2013-05-07", -13]
["CDISCPILOT01", "QS", "01-701-1146", 1011, "MHITM11", "EVIDENCE OF ASSOCIATED ATHEROSCLEROSIS", "MHIS-NACC", "", "ABSENT", "", "0", 0, "", "", "", "", "", 1.0, "SCREENING 1", -7, "TREATMENT", "2013-05-07", -13]
["CDISCPILOT01", "QS", "01-701-1146", 1012, "MHITM12", "FOCAL NEUROLOGICAL SYMPTOMS", "MHIS-NACC", "", "ABSENT", "", "0", 0, "", "", "", "", "", 1.0, "SCREENING 1", -7, "TREATMENT", "2013-05-07", -13]
["CDISCPILOT01", "QS", "01-701-1146", 1013, "MHITM13", "FOCAL NEUROLOGICAL SIGNS", "MHIS-NACC", "", "ABSENT", "", "0", 0, "", "", "", "", "", 1.0, "SCREENING 1", -7, "TREATMENT", "2013-05-07", -13]
["CDISCPILOT01", "QS", "01-701-1148", 1001, "MHITM01", "ABRUPT ONSET", "MHIS-NACC", "", "ABSENT", "", "0", 0, "", "", "", "", "", 1.0, "SCREENING 1", -7, "TREATMENT", "2013-08-14", -9]
["CDISCPILOT01", "QS", "01-701-1148", 1002, "MHITM02", "STEPWISE DETERIORATION", "MHIS-NACC", "", "ABSENT", "", "0", 0, "", "", "", "", "", 1.0, "SCREENING 1", -7, "TREATMENT", "2013-08-14", -9]
["CDISCPILOT01", "QS", "01-701-1148", 1003, "MHITM03", "FLUCTUATING COURSE", "MHIS-NACC", "", "ABSENT", "", "0", 0, "", "", "", "", "", 1.0, "SCREENING 1", -7, "TREATMENT", "2013-08-14", -9]
["CDISCPILOT01", "QS", "01-701-1148", 1004, "MHITM04", "NOCTURNAL CONFUSION", "MHIS-NACC", "", "ABSENT", "", "0", 0, "", "", "", "", "", 1.0, "SCREENING 1", -7, "TREATMENT", "2013-08-14", -9]
["CDISCPILOT01", "QS", "01-701-1148", 1005, "MHITM05", "RELATIVE PRESERVATION OF PERSONALITY", "MHIS-NACC", "", "ABSENT", "", "0", 0, "", "", "", "", "", 1.0, "SCREENING 1", -7, "TREATMENT", "2013-08-14", -9]
["CDISCPILOT01", "QS", "01-701-1148", 1006, "MHITM06", "DEPRESSION", "MHIS-NACC", "", "ABSENT", "", "0", 0, "", "", "", "", "", 1.0, "SCREENING 1", -7, "TREATMENT", "2013-08-14", -9]
["CDISCPILOT01", "QS", "01-701-1148", 1007, "MHITM07", "SOMATIC COMPLAINTS", "MHIS-NACC", "", "PRESENT", "", "1", 1, "", "", "", "", "", 1.0, "SCREENING 1", -7, "TREATMENT", "2013-08-14", -9]
["CDISCPILOT01", "QS", "01-701-1148", 1008, "MHITM08", "EMOTIONAL INCONTINENCE", "MHIS-NACC", "", "ABSENT", "", "0", 0, "", "", "", "", "", 1.0, "SCREENING 1", -7, "TREATMENT", "2013-08-14", -9]
["CDISCPILOT01", "QS", "01-701-1148", 1009, "MHITM09", "HISTORY OF HYPERTENSION", "MHIS-NACC", "", "ABSENT", "", "0", 0, "", "", "", "", "", 1.0, "SCREENING 1", -7, "TREATMENT", "2013-08-14", -9]
["CDISCPILOT01", "QS", "01-701-1148", 1010, "MHITM10", "HISTORY OF STROKES", "MHIS-NACC", "", "ABSENT", "", "0", 0, "", "", "", "", "", 1.0, "SCREENING 1", -7, "TREATMENT", "2013-08-14", -9]
["CDISCPILOT01", "QS", "01-701-1148", 1011, "MHITM11", "EVIDENCE OF ASSOCIATED ATHEROSCLEROSIS", "MHIS-NACC", "", "ABSENT", "", "0", 0, "", "", "", "", "", 1.0, "SCREENING 1", -7, "TREATMENT", "2013-08-14", -9]
["CDISCPILOT01", "QS", "01-701-1148", 1012, "MHITM12", "FOCAL NEUROLOGICAL SYMPTOMS", "MHIS-NACC", "", "ABSENT", "", "0", 0, "", "", "", "", "", 1.0, "SCREENING 1", -7, "TREATMENT", "2013-08-14", -9]
["CDISCPILOT01", "QS", "01-701-1148", 1013, "MHITM13", "FOCAL NEUROLOGICAL SIGNS", "MHIS-NACC", "", "ABSENT", "", "0", 0, "", "", "", "", "", 1.0, "SCREENING 1", -7, "TREATMENT", "2013-08-14", -9]
["CDISCPILOT01", "QS", "01-701-1153", 1001, "MHITM01", "ABRUPT ONSET", "MHIS-NACC", "", "ABSENT", "", "0", 0, "", "", "", "", "", 1.0, "SCREENING 1", -7, "TREATMENT", "2013-09-06", -17]
["CDISCPILOT01", "QS", "01-701-1153", 1002, "MHITM02", "STEPWISE DETERIORATION", "MHIS-NACC", "", "ABSENT", "", "0", 0, "", "", "", "", "", 1.0, "SCREENING 1", -7, "TREATMENT", "2013-09-06", -17]
["CDISCPILOT01", "QS", "01-701-1153", 1003, "MHITM03", "FLUCTUATING COURSE", "MHIS-NACC", "", "ABSENT", "", "0", 0, "", "", "", "", "", 1.0, "SCREENING 1", -7, "TREATMENT", "2013-09-06", -17]
["CDISCPILOT01", "QS", "01-701-1153", 1004, "MHITM04", "NOCTURNAL CONFUSION", "MHIS-NACC", "", "ABSENT", "", "0", 0, "", "", "", "", "", 1.0, "SCREENING 1", -7, "TREATMENT", "2013-09-06", -17]
["CDISCPILOT01", "QS", "01-701-1153", 1005, "MHITM05", "RELATIVE PRESERVATION OF PERSONALITY", "MHIS-NACC", "", "ABSENT", "", "0", 0, "", "", "", "", "", 1.0, "SCREENING 1", -7, "TREATMENT", "2013-09-06", -17]
["CDISCPILOT01", "QS", "01-701-1153", 1006, "MHITM06", "DEPRESSION", "MHIS-NACC", "", "ABSENT", "", "0", 0, "", "", "", "", "", 1.0, "SCREENING 1", -7, "TREATMENT", "2013-09-06", -17]
["CDISCPILOT01", "QS", "01-701-1153", 1007, "MHITM07", "SOMATIC COMPLAINTS", "MHIS-NACC", "", "PRESENT", "", "1", 1, "", "", "", "", "", 1.0, "SCREENING 1", -7, "TREATMENT", "2013-09-06", -17]
["CDISCPILOT01", "QS", "01-701-1153", 1008, "MHITM08", "EMOTIONAL INCONTINENCE", "MHIS-NACC", "", "ABSENT", "", "0", 0, "", "", "", "", "", 1.0, "SCREENING 1", -7, "TREATMENT", "2013-09-06", -17]
["CDISCPILOT01", "QS", "01-701-1153", 1009, "MHITM09", "HISTORY OF HYPERTENSION", "MHIS-NACC", "", "ABSENT", "", "0", 0, "", "", "", "", "", 1.0, "SCREENING 1", -7, "TREATMENT", "2013-09-06", -17]
["CDISCPILOT01", "QS", "01-701-1153", 1010, "MHITM10", "HISTORY OF STROKES", "MHIS-NACC", "", "ABSENT", "", "0", 0, "", "", "", "", "", 1.0, "SCREENING 1", -7, "TREATMENT", "2013-09-06", -17]
["CDISCPILOT01", "QS", "01-701-1153", 1011, "MHITM11", "EVIDENCE OF ASSOCIATED ATHEROSCLEROSIS", "MHIS-NACC", "", "ABSENT", "", "0", 0, "", "", "", "", "", 1.0, "SCREENING 1", -7, "TREATMENT", "2013-09-06", -17]
["CDISCPILOT01", "QS", "01-701-1153", 1012, "MHITM12", "FOCAL NEUROLOGICAL SYMPTOMS", "MHIS-NACC", "", "ABSENT", "", "0", 0, "", "", "", "", "", 1.0, "SCREENING 1", -7, "TREATMENT", "2013-09-06", -17]
["CDISCPILOT01", "QS", "01-701-1153", 1013, "MHITM13", "FOCAL NEUROLOGICAL SIGNS", "MHIS-NACC", "", "ABSENT", "", "0", 0, "", "", "", "", "", 1.0, "SCREENING 1", -7, "TREATMENT", "2013-09-06", -17]
["CDISCPILOT01", "QS", "01-701-1180", 1001, "MHITM01", "ABRUPT ONSET", "MHIS-NACC", "", "ABSENT", "", "0", 0, "", "", "", "", "", 1.0, "SCREENING 1", -7, "TREATMENT", "2013-01-28", -15]
["CDISCPILOT01", "QS", "01-701-1180", 1002, "MHITM02", "STEPWISE DETERIORATION", "MHIS-NACC", "", "ABSENT", "", "0", 0, "", "", "", "", "", 1.0, "SCREENING 1", -7, "TREATMENT", "2013-01-28", -15]
["CDISCPILOT01", "QS", "01-701-1180", 1003, "MHITM03", "FLUCTUATING COURSE", "MHIS-NACC", "", "ABSENT", "", "0", 0, "", "", "", "", "", 1.0, "SCREENING 1", -7, "TREATMENT", "2013-01-28", -15]
["CDISCPILOT01", "QS", "01-701-1180", 1004, "MHITM04", "NOCTURNAL CONFUSION", "MHIS-NACC", "", "ABSENT", "", "0", 0, "", "", "", "", "", 1.0, "SCREENING 1", -7, "TREATMENT", "2013-01-28", -15]
["CDISCPILOT01", "QS", "01-701-1180", 1005, "MHITM05", "RELATIVE PRESERVATION OF PERSONALITY", "MHIS-NACC", "", "ABSENT", "", "0", 0, "", "", "", "", "", 1.0, "SCREENING 1", -7, "TREATMENT", "2013-01-28", -15]
["CDISCPILOT01", "QS", "01-701-1180", 1006, "MHITM06", "DEPRESSION", "MHIS-NACC", "", "ABSENT", "", "0", 0, "", "", "", "", "", 1.0, "SCREENING 1", -7, "TREATMENT", "2013-01-28", -15]
["CDISCPILOT01", "QS", "01-701-1180", 1007, "MHITM07", "SOMATIC COMPLAINTS", "MHIS-NACC", "", "PRESENT", "", "1", 1, "", "", "", "", "", 1.0, "SCREENING 1", -7, "TREATMENT", "2013-01-28", -15]
["CDISCPILOT01", "QS", "01-701-1180", 1008, "MHITM08", "EMOTIONAL INCONTINENCE", "MHIS-NACC", "", "ABSENT", "", "0", 0, "", "", "", "", "", 1.0, "SCREENING 1", -7, "TREATMENT", "2013-01-28", -15]
["CDISCPILOT01", "QS", "01-701-1180", 1009, "MHITM09", "HISTORY OF HYPERTENSION", "MHIS-NACC", "", "ABSENT", "", "0", 0, "", "", "", "", "", 1.0, "SCREENING 1", -7, "TREATMENT", "2013-01-28", -15]
["CDISCPILOT01", "QS", "01-701-1180", 1010, "MHITM10", "HISTORY OF STROKES", "MHIS-NACC", "", "ABSENT", "", "0", 0, "", "", "", "", "", 1.0, "SCREENING 1", -7, "TREATMENT", "2013-01-28", -15]
["CDISCPILOT01", "QS", "01-701-1180", 1011, "MHITM11", "EVIDENCE OF ASSOCIATED ATHEROSCLEROSIS", "MHIS-NACC", "", "ABSENT", "", "0", 0, "", "", "", "", "", 1.0, "SCREENING 1", -7, "TREATMENT", "2013-01-28", -15]
["CDISCPILOT01", "QS", "01-701-1180", 1012, "MHITM12", "FOCAL NEUROLOGICAL SYMPTOMS", "MHIS-NACC", "", "ABSENT", "", "0", 0, "", "", "", "", "", 1.0, "SCREENING 1", -7, "TREATMENT", "2013-01-28", -15]
["CDISCPILOT01", "QS", "01-701-1180", 1013, "MHITM13", "FOCAL NEUROLOGICAL SIGNS", "MHIS-NACC", "", "ABSENT", "", "0", 0, "", "", "", "", "", 1.0, "SCREENING 1", -7, "TREATMENT", "2013-01-28", -15]
["CDISCPILOT01", "QS", "01-701-1181", 1001, "MHITM01", "ABRUPT ONSET", "MHIS-NACC", "", "ABSENT", "", "0", 0, "", "", "", "", "", 1.0, "SCREENING 1", -7, "TREATMENT", "2013-11-26", -9]
["CDISCPILOT01", "QS", "01-701-1181", 1002, "MHITM02", "STEPWISE DETERIORATION", "MHIS-NACC", "", "ABSENT", "", "0", 0, "", "", "", "", "", 1.0, "SCREENING 1", -7, "TREATMENT", "2013-11-26", -9]
["CDISCPILOT01", "QS", "01-701-1181", 1003, "MHITM03", "FLUCTUATING COURSE", "MHIS-NACC", "", "ABSENT", "", "0", 0, "", "", "", "", "", 1.0, "SCREENING 1", -7, "TREATMENT", "2013-11-26", -9]
["CDISCPILOT01", "QS", "01-701-1181", 1004, "MHITM04", "NOCTURNAL CONFUSION", "MHIS-NACC", "", "PRESENT", "", "1", 1, "", "", "", "", "", 1.0, "SCREENING 1", -7, "TREATMENT", "2013-11-26", -9]
["CDISCPILOT01", "QS", "01-701-1181", 1005, "MHITM05", "RELATIVE PRESERVATION OF PERSONALITY", "MHIS-NACC", "", "ABSENT", "", "0", 0, "", "", "", "", "", 1.0, "SCREENING 1", -7, "TREATMENT", "2013-11-26", -9]
["CDISCPILOT01", "QS", "01-701-1181", 1006, "MHITM06", "DEPRESSION", "MHIS-NACC", "", "ABSENT", "", "0", 0, "", "", "", "", "", 1.0, "SCREENING 1", -7, "TREATMENT", "2013-11-26", -9]
["CDISCPILOT01", "QS", "01-701-1181", 1007, "MHITM07", "SOMATIC COMPLAINTS", "MHIS-NACC", "", "PRESENT", "", "1", 1, "", "", "", "", "", 1.0, "SCREENING 1", -7, "TREATMENT", "2013-11-26", -9]
["CDISCPILOT01", "QS", "01-701-1181", 1008, "MHITM08", "EMOTIONAL INCONTINENCE", "MHIS-NACC", "", "ABSENT", "", "0", 0, "", "", "", "", "", 1.0, "SCREENING 1", -7, "TREATMENT", "2013-11-26", -9]
["CDISCPILOT01", "QS", "01-701-1181", 1009, "MHITM09", "HISTORY OF HYPERTENSION", "MHIS-NACC", "", "ABSENT", "", "0", 0, "", "", "", "", "", 1.0, "SCREENING 1", -7, "TREATMENT", "2013-11-26", -9]
["CDISCPILOT01", "QS", "01-701-1181", 1010, "MHITM10", "HISTORY OF STROKES", "MHIS-NACC", "", "ABSENT", "", "0", 0, "", "", "", "", "", 1.0, "SCREENING 1", -7, "TREATMENT", "2013-11-26", -9]
["CDISCPILOT01", "QS", "01-701-1181", 1011, "MHITM11", "EVIDENCE OF ASSOCIATED ATHEROSCLEROSIS", "MHIS-NACC", "", "ABSENT", "", "0", 0, "", "", "", "", "", 1.0, "SCREENING 1", -7, "TREATMENT", "2013-11-26", -9]
["CDISCPILOT01", "QS", "01-701-1181", 1012, "MHITM12", "FOCAL NEUROLOGICAL SYMPTOMS", "MHIS-NACC", "", "ABSENT", "", "0", 0, "", "", "", "", "", 1.0, "SCREENING 1", -7, "TREATMENT", "2013-11-26", -9]
["CDISCPILOT01", "QS", "01-701-1181", 1013, "MHITM13", "FOCAL NEUROLOGICAL SIGNS", "MHIS-NACC", "", "ABSENT", "", "0", 0, "", "", "", "", "", 1.0, "SCREENING 1", -7, "TREATMENT", "2013-11-26", -9]
["CDISCPILOT01", "QS", "01-701-1188", 1001, "MHITM01", "ABRUPT ONSET", "MHIS-NACC", "", "ABSENT", "", "0", 0, "", "", "", "", "", 1.0, "SCREENING 1", -7, "TREATMENT", "2013-02-03", -12]
["CDISCPILOT01", "QS", "01-701-1188", 1002, "MHITM02", "STEPWISE DETERIORATION", "MHIS-NACC", "", "ABSENT", "", "0", 0, "", "", "", "", "", 1.0, "SCREENING 1", -7, "TREATMENT", "2013-02-03", -12]
["CDISCPILOT01", "QS", "01-701-1188", 1003, "MHITM03", "FLUCTUATING COURSE", "MHIS-NACC", "", "ABSENT", "", "0", 0, "", "", "", "", "", 1.0, "SCREENING 1", -7, "TREATMENT", "2013-02-03", -12]
["CDISCPILOT01", "QS", "01-701-1188", 1004, "MHITM04", "NOCTURNAL CONFUSION", "MHIS-NACC", "", "ABSENT", "", "0", 0, "", "", "", "", "", 1.0, "SCREENING 1", -7, "TREATMENT", "2013-02-03", -12]
["CDISCPILOT01", "QS", "01-701-1188", 1005, "MHITM05", "RELATIVE PRESERVATION OF PERSONALITY", "MHIS-NACC", "", "ABSENT", "", "0", 0, "", "", "", "", "", 1.0, "SCREENING 1", -7, "TREATMENT", "2013-02-03", -12]
["CDISCPILOT01", "QS", "01-701-1188", 1006, "MHITM06", "DEPRESSION", "MHIS-NACC", "", "ABSENT", "", "0", 0, "", "", "", "", "", 1.0, "SCREENING 1", -7, "TREATMENT", "2013-02-03", -12]
["CDISCPILOT01", "QS", "01-701-1188", 1007, "MHITM07", "SOMATIC COMPLAINTS", "MHIS-NACC", "", "ABSENT", "", "0", 0, "", "", "", "", "", 1.0, "SCREENING 1", -7, "TREATMENT", "2013-02-03", -12]
["CDISCPILOT01", "QS", "01-701-1188", 1008, "MHITM08", "EMOTIONAL INCONTINENCE", "MHIS-NACC", "", "ABSENT", "", "0", 0, "", "", "", "", "", 1.0, "SCREENING 1", -7, "TREATMENT", "2013-02-03", -12]
["CDISCPILOT01", "QS", "01-701-1188", 1009, "MHITM09", "HISTORY OF HYPERTENSION", "MHIS-NACC", "", "ABSENT", "", "0", 0, "", "", "", "", "", 1.0, "SCREENING 1", -7, "TREATMENT", "2013-02-03", -12]
["CDISCPILOT01", "QS", "01-701-1188", 1010, "MHITM10", "HISTORY OF STROKES", "MHIS-NACC", "", "ABSENT", "", "0", 0, "", "", "", "", "", 1.0, "SCREENING 1", -7, "TREATMENT", "2013-02-03", -12]
["CDISCPILOT01", "QS", "01-701-1188", 1011, "MHITM11", "EVIDENCE OF ASSOCIATED ATHEROSCLEROSIS", "MHIS-NACC", "", "ABSENT", "", "0", 0, "", "", "", "", "", 1.0, "SCREENING 1", -7, "TREATMENT", "2013-02-03", -12]
["CDISCPILOT01", "QS", "01-701-1188", 1012, "MHITM12", "FOCAL NEUROLOGICAL SYMPTOMS", "MHIS-NACC", "", "ABSENT", "", "0", 0, "", "", "", "", "", 1.0, "SCREENING 1", -7, "TREATMENT", "2013-02-03", -12]
["CDISCPILOT01", "QS", "01-701-1188", 1013, "MHITM13", "FOCAL NEUROLOGICAL SIGNS", "MHIS-NACC", "", "ABSENT", "", "0", 0, "", "", "", "", "", 1.0, "SCREENING 1", -7, "TREATMENT", "2013-02-03", -12]
["CDISCPILOT01", "QS", "01-701-1192", 1001, "MHITM01", "ABRUPT ONSET", "MHIS-NACC", "", "ABSENT", "", "0", 0, "", "", "", "", "", 1.0, "SCREENING 1", -7, "TREATMENT", "2012-07-08", -14]
["CDISCPILOT01", "QS", "01-701-1192", 1002, "MHITM02", "STEPWISE DETERIORATION", "MHIS-NACC", "", "ABSENT", "", "0", 0, "", "", "", "", "", 1.0, "SCREENING 1", -7, "TREATMENT", "2012-07-08", -14]
["CDISCPILOT01", "QS", "01-701-1192", 1003, "MHITM03", "FLUCTUATING COURSE", "MHIS-NACC", "", "ABSENT", "", "0", 0, "", "", "", "", "", 1.0, "SCREENING 1", -7, "TREATMENT", "2012-07-08", -14]
["CDISCPILOT01", "QS", "01-701-1192", 1004, "MHITM04", "NOCTURNAL CONFUSION", "MHIS-NACC", "", "ABSENT", "", "0", 0, "", "", "", "", "", 1.0, "SCREENING 1", -7, "TREATMENT", "2012-07-08", -14]
["CDISCPILOT01", "QS", "01-701-1192", 1005, "MHITM05", "RELATIVE PRESERVATION OF PERSONALITY", "MHIS-NACC", "", "ABSENT", "", "0", 0, "", "", "", "", "", 1.0, "SCREENING 1", -7, "TREATMENT", "2012-07-08", -14]
["CDISCPILOT01", "QS", "01-701-1192", 1006, "MHITM06", "DEPRESSION", "MHIS-NACC", "", "ABSENT", "", "0", 0, "", "", "", "", "", 1.0, "SCREENING 1", -7, "TREATMENT", "2012-07-08", -14]
["CDISCPILOT01", "QS", "01-701-1192", 1007, "MHITM07", "SOMATIC COMPLAINTS", "MHIS-NACC", "", "ABSENT", "", "0", 0, "", "", "", "", "", 1.0, "SCREENING 1", -7, "TREATMENT", "2012-07-08", -14]
["CDISCPILOT01", "QS", "01-701-1192", 1008, "MHITM08", "EMOTIONAL INCONTINENCE", "MHIS-NACC", "", "ABSENT", "", "0", 0, "", "", "", "", "", 1.0, "SCREENING 1", -7, "TREATMENT", "2012-07-08", -14]
["CDISCPILOT01", "QS", "01-701-1192", 1009, "MHITM09", "HISTORY OF HYPERTENSION", "MHIS-NACC", "", "ABSENT", "", "0", 0, "", "", "", "", "", 1.0, "SCREENING 1", -7, "TREATMENT", "2012-07-08", -14]
["CDISCPILOT01", "QS", "01-701-1192", 1010, "MHITM10", "HISTORY OF STROKES", "MHIS-NACC", "", "ABSENT", "", "0", 0, "", "", "", "", "", 1.0, "SCREENING 1", -7, "TREATMENT", "2012-07-08", -14]
["CDISCPILOT01", "QS", "01-701-1192", 1011, "MHITM11", "EVIDENCE OF ASSOCIATED ATHEROSCLEROSIS", "MHIS-NACC", "", "ABSENT", "", "0", 0, "", "", "", "", "", 1.0, "SCREENING 1", -7, "TREATMENT", "2012-07-08", -14]
["CDISCPILOT01", "QS", "01-701-1192", 1012, "MHITM12", "FOCAL NEUROLOGICAL SYMPTOMS", "MHIS-NACC", "", "ABSENT", "", "0", 0, "", "", "", "", "", 1.0, "SCREENING 1", -7, "TREATMENT", "2012-07-08", -14]
["CDISCPILOT01", "QS", "01-701-1192", 1013, "MHITM13", "FOCAL NEUROLOGICAL SIGNS", "MHIS-NACC", "", "ABSENT", "", "0", 0, "", "", "", "", "", 1.0, "SCREENING 1", -7, "TREATMENT", "2012-07-08", -14]
["CDISCPILOT01", "QS", "01-701-1203", 1001, "MHITM01", "ABRUPT ONSET", "MHIS-NACC", "", "ABSENT", "", "0", 0, "", "", "", "", "", 1.0, "SCREENING 1", -7, "TREATMENT", "2013-01-25", -8]
["CDISCPILOT01", "QS", "01-701-1203", 1002, "MHITM02", "STEPWISE DETERIORATION", "MHIS-NACC", "", "ABSENT", "", "0", 0, "", "", "", "", "", 1.0, "SCREENING 1", -7, "TREATMENT", "2013-01-25", -8]
["CDISCPILOT01", "QS", "01-701-1203", 1003, "MHITM03", "FLUCTUATING COURSE", "MHIS-NACC", "", "ABSENT", "", "0", 0, "", "", "", "", "", 1.0, "SCREENING 1", -7, "TREATMENT", "2013-01-25", -8]
["CDISCPILOT01", "QS", "01-701-1203", 1004, "MHITM04", "NOCTURNAL CONFUSION", "MHIS-NACC", "", "ABSENT", "", "0", 0, "", "", "", "", "", 1.0, "SCREENING 1", -7, "TREATMENT", "2013-01-25", -8]
["CDISCPILOT01", "QS", "01-701-1203", 1005, "MHITM05", "RELATIVE PRESERVATION OF PERSONALITY", "MHIS-NACC", "", "ABSENT", "", "0", 0, "", "", "", "", "", 1.0, "SCREENING 1", -7, "TREATMENT", "2013-01-25", -8]
["CDISCPILOT01", "QS", "01-701-1203", 1006, "MHITM06", "DEPRESSION", "MHIS-NACC", "", "ABSENT", "", "0", 0, "", "", "", "", "", 1.0, "SCREENING 1", -7, "TREATMENT", "2013-01-25", -8]
["CDISCPILOT01", "QS", "01-701-1203", 1007, "MHITM07", "SOMATIC COMPLAINTS", "MHIS-NACC", "", "ABSENT", "", "0", 0, "", "", "", "", "", 1.0, "SCREENING 1", -7, "TREATMENT", "2013-01-25", -8]
["CDISCPILOT01", "QS", "01-701-1203", 1008, "MHITM08", "EMOTIONAL INCONTINENCE", "MHIS-NACC", "", "ABSENT", "", "0", 0, "", "", "", "", "", 1.0, "SCREENING 1", -7, "TREATMENT", "2013-01-25", -8]
["CDISCPILOT01", "QS", "01-701-1203", 1009, "MHITM09", "HISTORY OF HYPERTENSION", "MHIS-NACC", "", "ABSENT", "", "0", 0, "", "", "", "", "", 1.0, "SCREENING 1", -7, "TREATMENT", "2013-01-25", -8]
["CDISCPILOT01", "QS", "01-701-1203", 1010, "MHITM10", "HISTORY OF STROKES", "MHIS-NACC", "", "ABSENT", "", "0", 0, "", "", "", "", "", 1.0, "SCREENING 1", -7, "TREATMENT", "2013-01-25", -8]
["CDISCPILOT01", "QS", "01-701-1203", 1011, "MHITM11", "EVIDENCE OF ASSOCIATED ATHEROSCLEROSIS", "MHIS-NACC", "", "ABSENT", "", "0", 0, "", "", "", "", "", 1.0, "SCREENING 1", -7, "TREATMENT", "2013-01-25", -8]
["CDISCPILOT01", "QS", "01-701-1203", 1012, "MHITM12", "FOCAL NEUROLOGICAL SYMPTOMS", "MHIS-NACC", "", "ABSENT", "", "0", 0, "", "", "", "", "", 1.0, "SCREENING 1", -7, "TREATMENT", "2013-01-25", -8]
["CDISCPILOT01", "QS", "01-701-1203", 1013, "MHITM13", "FOCAL NEUROLOGICAL SIGNS", "MHIS-NACC", "", "ABSENT", "", "0", 0, "", "", "", "", "", 1.0, "SCREENING 1", -7, "TREATMENT", "2013-01-25", -8]
["CDISCPILOT01", "QS", "01-701-1211", 1001, "MHITM01", "ABRUPT ONSET", "MHIS-NACC", "", "ABSENT", "", "0", 0, "", "", "", "", "", 1.0, "SCREENING 1", -7, "TREATMENT", "2012-10-30", -16]
["CDISCPILOT01", "QS", "01-701-1211", 1002, "MHITM02", "STEPWISE DETERIORATION", "MHIS-NACC", "", "ABSENT", "", "0", 0, "", "", "", "", "", 1.0, "SCREENING 1", -7, "TREATMENT", "2012-10-30", -16]
["CDISCPILOT01", "QS", "01-701-1211", 1003, "MHITM03", "FLUCTUATING COURSE", "MHIS-NACC", "", "ABSENT", "", "0", 0, "", "", "", "", "", 1.0, "SCREENING 1", -7, "TREATMENT", "2012-10-30", -16]
["CDISCPILOT01", "QS", "01-701-1211", 1004, "MHITM04", "NOCTURNAL CONFUSION", "MHIS-NACC", "", "ABSENT", "", "0", 0, "", "", "", "", "", 1.0, "SCREENING 1", -7, "TREATMENT", "2012-10-30", -16]
["CDISCPILOT01", "QS", "01-701-1211", 1005, "MHITM05", "RELATIVE PRESERVATION OF PERSONALITY", "MHIS-NACC", "", "ABSENT", "", "0", 0, "", "", "", "", "", 1.0, "SCREENING 1", -7, "TREATMENT", "2012-10-30", -16]
["CDISCPILOT01", "QS", "01-701-1211", 1006, "MHITM06", "DEPRESSION", "MHIS-NACC", "", "ABSENT", "", "0", 0, "", "", "", "", "", 1.0, "SCREENING 1", -7, "TREATMENT", "2012-10-30", -16]
["CDISCPILOT01", "QS", "01-701-1211", 1007, "MHITM07", "SOMATIC COMPLAINTS", "MHIS-NACC", "", "ABSENT", "", "0", 0, "", "", "", "", "", 1.0, "SCREENING 1", -7, "TREATMENT", "2012-10-30", -16]
["CDISCPILOT01", "QS", "01-701-1211", 1008, "MHITM08", "EMOTIONAL INCONTINENCE", "MHIS-NACC", "", "ABSENT", "", "0", 0, "", "", "", "", "", 1.0, "SCREENING 1", -7, "TREATMENT", "2012-10-30", -16]
["CDISCPILOT01", "QS", "01-701-1211", 1009, "MHITM09", "HISTORY OF HYPERTENSION", "MHIS-NACC", "", "ABSENT", "", "0", 0, "", "", "", "", "", 1.0, "SCREENING 1", -7, "TREATMENT", "2012-10-30", -16]
["CDISCPILOT01", "QS", "01-701-1211", 1010, "MHITM10", "HISTORY OF STROKES", "MHIS-NACC", "", "ABSENT", "", "0", 0, "", "", "", "", "", 1.0, "SCREENING 1", -7, "TREATMENT", "2012-10-30", -16]
["CDISCPILOT01", "QS", "01-701-1211", 1011, "MHITM11", "EVIDENCE OF ASSOCIATED ATHEROSCLEROSIS", "MHIS-NACC", "", "ABSENT", "", "0", 0, "", "", "", "", "", 1.0, "SCREENING 1", -7, "TREATMENT", "2012-10-30", -16]
["CDISCPILOT01", "QS", "01-701-1211", 1012, "MHITM12", "FOCAL NEUROLOGICAL SYMPTOMS", "MHIS-NACC", "", "ABSENT", "", "0", 0, "", "", "", "", "", 1.0, "SCREENING 1", -7, "TREATMENT", "2012-10-30", -16]
["CDISCPILOT01", "QS", "01-701-1211", 1013, "MHITM13", "FOCAL NEUROLOGICAL SIGNS", "MHIS-NACC", "", "ABSENT", "", "0", 0, "", "", "", "", "", 1.0, "SCREENING 1", -7, "TREATMENT", "2012-10-30", -16]
["CDISCPILOT01", "QS", "01-701-1234", 1001, "MHITM01", "ABRUPT ONSET", "MHIS-NACC", "", "ABSENT", "", "0", 0, "", "", "", "", "", 1.0, "SCREENING 1", -7, "TREATMENT", "2013-03-20", -10]
["CDISCPILOT01", "QS", "01-701-1234", 1002, "MHITM02", "STEPWISE DETERIORATION", "MHIS-NACC", "", "ABSENT", "", "0", 0, "", "", "", "", "", 1.0, "SCREENING 1", -7, "TREATMENT", "2013-03-20", -10]
["CDISCPILOT01", "QS", "01-701-1234", 1003, "MHITM03", "FLUCTUATING COURSE", "MHIS-NACC", "", "ABSENT", "", "0", 0, "", "", "", "", "", 1.0, "SCREENING 1", -7, "TREATMENT", "2013-03-20", -10]
["CDISCPILOT01", "QS", "01-701-1234", 1004, "MHITM04", "NOCTURNAL CONFUSION", "MHIS-NACC", "", "ABSENT", "", "0", 0, "", "", "", "", "", 1.0, "SCREENING 1", -7, "TREATMENT", "2013-03-20", -10]
["CDISCPILOT01", "QS", "01-701-1234", 1005, "MHITM05", "RELATIVE PRESERVATION OF PERSONALITY", "MHIS-NACC", "", "ABSENT", "", "0", 0, "", "", "", "", "", 1.0, "SCREENING 1", -7, "TREATMENT", "2013-03-20", -10]
["CDISCPILOT01", "QS", "01-701-1234", 1006, "MHITM06", "DEPRESSION", "MHIS-NACC", "", "ABSENT", "", "0", 0, "", "", "", "", "", 1.0, "SCREENING 1", -7, "TREATMENT", "2013-03-20", -10]
["CDISCPILOT01", "QS", "01-701-1234", 1007, "MHITM07", "SOMATIC COMPLAINTS", "MHIS-NACC", "", "ABSENT", "", "0", 0, "", "", "", "", "", 1.0, "SCREENING 1", -7, "TREATMENT", "2013-03-20", -10]
["CDISCPILOT01", "QS", "01-701-1234", 1008, "MHITM08", "EMOTIONAL INCONTINENCE", "MHIS-NACC", "", "ABSENT", "", "0", 0, "", "", "", "", "", 1.0, "SCREENING 1", -7, "TREATMENT", "2013-03-20", -10]
["CDISCPILOT01", "QS", "01-701-1234", 1009, "MHITM09", "HISTORY OF HYPERTENSION", "MHIS-NACC", "", "ABSENT", "", "0", 0, "", "", "", "", "", 1.0, "SCREENING 1", -7, "TREATMENT", "2013-03-20", -10]
["CDISCPILOT01", "QS", "01-701-1234", 1010, "MHITM10", "HISTORY OF STROKES", "MHIS-NACC", "", "ABSENT", "", "0", 0, "", "", "", "", "", 1.0, "SCREENING 1", -7, "TREATMENT", "2013-03-20", -10]
["CDISCPILOT01", "QS", "01-701-1234", 1011, "MHITM11", "EVIDENCE OF ASSOCIATED ATHEROSCLEROSIS", "MHIS-NACC", "", "ABSENT", "", "0", 0, "", "", "", "", "", 1.0, "SCREENING 1", -7, "TREATMENT", "2013-03-20", -10]
["CDISCPILOT01", "QS", "01-701-1234", 1012, "MHITM12", "FOCAL NEUROLOGICAL SYMPTOMS", "MHIS-NACC", "", "ABSENT", "", "0", 0, "", "", "", "", "", 1.0, "SCREENING 1", -7, "TREATMENT", "2013-03-20", -10]
["CDISCPILOT01", "QS", "01-701-1234", 1013, "MHITM13", "FOCAL NEUROLOGICAL SIGNS", "MHIS-NACC", "", "ABSENT", "", "0", 0, "", "", "", "", "", 1.0, "SCREENING 1", -7, "TREATMENT", "2013-03-20", -10]
["CDISCPILOT01", "QS", "01-701-1239", 1001, "MHITM01", "ABRUPT ONSET", "MHIS-NACC", "", "ABSENT", "", "0", 0, "", "", "", "", "", 1.0, "SCREENING 1", -7, "TREATMENT", "2013-12-28", -14]
["CDISCPILOT01", "QS", "01-701-1239", 1002, "MHITM02", "STEPWISE DETERIORATION", "MHIS-NACC", "", "ABSENT", "", "0", 0, "", "", "", "", "", 1.0, "SCREENING 1", -7, "TREATMENT", "2013-12-28", -14]
["CDISCPILOT01", "QS", "01-701-1239", 1003, "MHITM03", "FLUCTUATING COURSE", "MHIS-NACC", "", "ABSENT", "", "0", 0, "", "", "", "", "", 1.0, "SCREENING 1", -7, "TREATMENT", "2013-12-28", -14]
["CDISCPILOT01", "QS", "01-701-1239", 1004, "MHITM04", "NOCTURNAL CONFUSION", "MHIS-NACC", "", "ABSENT", "", "0", 0, "", "", "", "", "", 1.0, "SCREENING 1", -7, "TREATMENT", "2013-12-28", -14]
["CDISCPILOT01", "QS", "01-701-1239", 1005, "MHITM05", "RELATIVE PRESERVATION OF PERSONALITY", "MHIS-NACC", "", "ABSENT", "", "0", 0, "", "", "", "", "", 1.0, "SCREENING 1", -7, "TREATMENT", "2013-12-28", -14]
["CDISCPILOT01", "QS", "01-701-1239", 1006, "MHITM06", "DEPRESSION", "MHIS-NACC", "", "ABSENT", "", "0", 0, "", "", "", "", "", 1.0, "SCREENING 1", -7, "TREATMENT", "2013-12-28", -14]
["CDISCPILOT01", "QS", "01-701-1239", 1007, "MHITM07", "SOMATIC COMPLAINTS", "MHIS-NACC", "", "ABSENT", "", "0", 0, "", "", "", "", "", 1.0, "SCREENING 1", -7, "TREATMENT", "2013-12-28", -14]
["CDISCPILOT01", "QS", "01-701-1239", 1008, "MHITM08", "EMOTIONAL INCONTINENCE", "MHIS-NACC", "", "ABSENT", "", "0", 0, "", "", "", "", "", 1.0, "SCREENING 1", -7, "TREATMENT", "2013-12-28", -14]
["CDISCPILOT01", "QS", "01-701-1239", 1009, "MHITM09", "HISTORY OF HYPERTENSION", "MHIS-NACC", "", "ABSENT", "", "0", 0, "", "", "", "", "", 1.0, "SCREENING 1", -7, "TREATMENT", "2013-12-28", -14]
["CDISCPILOT01", "QS", "01-701-1239", 1010, "MHITM10", "HISTORY OF STROKES", "MHIS-NACC", "", "ABSENT", "", "0", 0, "", "", "", "", "", 1.0, "SCREENING 1", -7, "TREATMENT", "2013-12-28", -14]
["CDISCPILOT01", "QS", "01-701-1239", 1011, "MHITM11", "EVIDENCE OF ASSOCIATED ATHEROSCLEROSIS", "MHIS-NACC", "", "ABSENT", "", "0", 0, "", "", "", "", "", 1.0, "SCREENING 1", -7, "TREATMENT", "2013-12-28", -14]
["CDISCPILOT01", "QS", "01-701-1239", 1012, "MHITM12", "FOCAL NEUROLOGICAL SYMPTOMS", "MHIS-NACC", "", "ABSENT", "", "0", 0, "", "", "", "", "", 1.0, "SCREENING 1", -7, "TREATMENT", "2013-12-28", -14]
["CDISCPILOT01", "QS", "01-701-1239", 1013, "MHITM13", "FOCAL NEUROLOGICAL SIGNS", "MHIS-NACC", "", "ABSENT", "", "0", 0, "", "", "", "", "", 1.0, "SCREENING 1", -7, "TREATMENT", "2013-12-28", -14]
["CDISCPILOT01", "QS", "01-701-1275", 1001, "MHITM01", "ABRUPT ONSET", "MHIS-NACC", "", "ABSENT", "", "0", 0, "", "", "", "", "", 1.0, "SCREENING 1", -7, "TREATMENT", "2014-01-25", -13]
["CDISCPILOT01", "QS", "01-701-1275", 1002, "MHITM02", "STEPWISE DETERIORATION", "MHIS-NACC", "", "ABSENT", "", "0", 0, "", "", "", "", "", 1.0, "SCREENING 1", -7, "TREATMENT", "2014-01-25", -13]
["CDISCPILOT01", "QS", "01-701-1275", 1003, "MHITM03", "FLUCTUATING COURSE", "MHIS-NACC", "", "ABSENT", "", "0", 0, "", "", "", "", "", 1.0, "SCREENING 1", -7, "TREATMENT", "2014-01-25", -13]
["CDISCPILOT01", "QS", "01-701-1275", 1004, "MHITM04", "NOCTURNAL CONFUSION", "MHIS-NACC", "", "ABSENT", "", "0", 0, "", "", "", "", "", 1.0, "SCREENING 1", -7, "TREATMENT", "2014-01-25", -13]
["CDISCPILOT01", "QS", "01-701-1275", 1005, "MHITM05", "RELATIVE PRESERVATION OF PERSONALITY", "MHIS-NACC", "", "ABSENT", "", "0", 0, "", "", "", "", "", 1.0, "SCREENING 1", -7, "TREATMENT", "2014-01-25", -13]
["CDISCPILOT01", "QS", "01-701-1275", 1006, "MHITM06", "DEPRESSION", "MHIS-NACC", "", "ABSENT", "", "0", 0, "", "", "", "", "", 1.0, "SCREENING 1", -7, "TREATMENT", "2014-01-25", -13]
["CDISCPILOT01", "QS", "01-701-1275", 1007, "MHITM07", "SOMATIC COMPLAINTS", "MHIS-NACC", "", "PRESENT", "", "1", 1, "", "", "", "", "", 1.0, "SCREENING 1", -7, "TREATMENT", "2014-01-25", -13]
["CDISCPILOT01", "QS", "01-701-1275", 1008, "MHITM08", "EMOTIONAL INCONTINENCE", "MHIS-NACC", "", "ABSENT", "", "0", 0, "", "", "", "", "", 1.0, "SCREENING 1", -7, "TREATMENT", "2014-01-25", -13]
["CDISCPILOT01", "QS", "01-701-1275", 1009, "MHITM09", "HISTORY OF HYPERTENSION", "MHIS-NACC", "", "ABSENT", "", "0", 0, "", "", "", "", "", 1.0, "SCREENING 1", -7, "TREATMENT", "2014-01-25", -13]
["CDISCPILOT01", "QS", "01-701-1275", 1010, "MHITM10", "HISTORY OF STROKES", "MHIS-NACC", "", "ABSENT", "", "0", 0, "", "", "", "", "", 1.0, "SCREENING 1", -7, "TREATMENT", "2014-01-25", -13]
["CDISCPILOT01", "QS", "01-701-1275", 1011, "MHITM11", "EVIDENCE OF ASSOCIATED ATHEROSCLEROSIS", "MHIS-NACC", "", "ABSENT", "", "0", 0, "", "", "", "", "", 1.0, "SCREENING 1", -7, "TREATMENT", "2014-01-25", -13]
["CDISCPILOT01", "QS", "01-701-1275", 1012, "MHITM12", "FOCAL NEUROLOGICAL SYMPTOMS", "MHIS-NACC", "", "ABSENT", "", "0", 0, "", "", "", "", "", 1.0, "SCREENING 1", -7, "TREATMENT", "2014-01-25", -13]
["CDISCPILOT01", "QS", "01-701-1275", 1013, "MHITM13", "FOCAL NEUROLOGICAL SIGNS", "MHIS-NACC", "", "ABSENT", "", "0", 0, "", "", "", "", "", 1.0, "SCREENING 1", -7, "TREATMENT", "2014-01-25", -13]
["CDISCPILOT01", "QS", "01-701-1287", 1001, "MHITM01", "ABRUPT ONSET", "MHIS-NACC", "", "ABSENT", "", "0", 0, "", "", "", "", "", 1.0, "SCREENING 1", -7, "TREATMENT", "2014-01-17", -8]
["CDISCPILOT01", "QS", "01-701-1287", 1002, "MHITM02", "STEPWISE DETERIORATION", "MHIS-NACC", "", "ABSENT", "", "0", 0, "", "", "", "", "", 1.0, "SCREENING 1", -7, "TREATMENT", "2014-01-17", -8]
["CDISCPILOT01", "QS", "01-701-1287", 1003, "MHITM03", "FLUCTUATING COURSE", "MHIS-NACC", "", "ABSENT", "", "0", 0, "", "", "", "", "", 1.0, "SCREENING 1", -7, "TREATMENT", "2014-01-17", -8]
["CDISCPILOT01", "QS", "01-701-1287", 1004, "MHITM04", "NOCTURNAL CONFUSION", "MHIS-NACC", "", "ABSENT", "", "0", 0, "", "", "", "", "", 1.0, "SCREENING 1", -7, "TREATMENT", "2014-01-17", -8]
["CDISCPILOT01", "QS", "01-701-1287", 1005, "MHITM05", "RELATIVE PRESERVATION OF PERSONALITY", "MHIS-NACC", "", "ABSENT", "", "0", 0, "", "", "", "", "", 1.0, "SCREENING 1", -7, "TREATMENT", "2014-01-17", -8]
["CDISCPILOT01", "QS", "01-701-1287", 1006, "MHITM06", "DEPRESSION", "MHIS-NACC", "", "ABSENT", "", "0", 0, "", "", "", "", "", 1.0, "SCREENING 1", -7, "TREATMENT", "2014-01-17", -8]
["CDISCPILOT01", "QS", "01-701-1287", 1007, "MHITM07", "SOMATIC COMPLAINTS", "MHIS-NACC", "", "ABSENT", "", "0", 0, "", "", "", "", "", 1.0, "SCREENING 1", -7, "TREATMENT", "2014-01-17", -8]
["CDISCPILOT01", "QS", "01-701-1287", 1008, "MHITM08", "EMOTIONAL INCONTINENCE", "MHIS-NACC", "", "ABSENT", "", "0", 0, "", "", "", "", "", 1.0, "SCREENING 1", -7, "TREATMENT", "2014-01-17", -8]
["CDISCPILOT01", "QS", "01-701-1287", 1009, "MHITM09", "HISTORY OF HYPERTENSION", "MHIS-NACC", "", "ABSENT", "", "0", 0, "", "", "", "", "", 1.0, "SCREENING 1", -7, "TREATMENT", "2014-01-17", -8]
["CDISCPILOT01", "QS", "01-701-1287", 1010, "MHITM10", "HISTORY OF STROKES", "MHIS-NACC", "", "ABSENT", "", "0", 0, "", "", "", "", "", 1.0, "SCREENING 1", -7, "TREATMENT", "2014-01-17", -8]
["CDISCPILOT01", "QS", "01-701-1287", 1011, "MHITM11", "EVIDENCE OF ASSOCIATED ATHEROSCLEROSIS", "MHIS-NACC", "", "ABSENT", "", "0", 0, "", "", "", "", "", 1.0, "SCREENING 1", -7, "TREATMENT", "2014-01-17", -8]
["CDISCPILOT01", "QS", "01-701-1287", 1012, "MHITM12", "FOCAL NEUROLOGICAL SYMPTOMS", "MHIS-NACC", "", "ABSENT", "", "0", 0, "", "", "", "", "", 1.0, "SCREENING 1", -7, "TREATMENT", "2014-01-17", -8]
["CDISCPILOT01", "QS", "01-701-1287", 1013, "MHITM13", "FOCAL NEUROLOGICAL SIGNS", "MHIS-NACC", "", "ABSENT", "", "0", 0, "", "", "", "", "", 1.0, "SCREENING 1", -7, "TREATMENT", "2014-01-17", -8]
["CDISCPILOT01", "QS", "01-701-1294", 1001, "MHITM01", "ABRUPT ONSET", "MHIS-NACC", "", "ABSENT", "", "0", 0, "", "", "", "", "", 1.0, "SCREENING 1", -7, "TREATMENT", "2013-03-17", -7]
["CDISCPILOT01", "QS", "01-701-1294", 1002, "MHITM02", "STEPWISE DETERIORATION", "MHIS-NACC", "", "ABSENT", "", "0", 0, "", "", "", "", "", 1.0, "SCREENING 1", -7, "TREATMENT", "2013-03-17", -7]
["CDISCPILOT01", "QS", "01-701-1294", 1003, "MHITM03", "FLUCTUATING COURSE", "MHIS-NACC", "", "ABSENT", "", "0", 0, "", "", "", "", "", 1.0, "SCREENING 1", -7, "TREATMENT", "2013-03-17", -7]
["CDISCPILOT01", "QS", "01-701-1294", 1004, "MHITM04", "NOCTURNAL CONFUSION", "MHIS-NACC", "", "ABSENT", "", "0", 0, "", "", "", "", "", 1.0, "SCREENING 1", -7, "TREATMENT", "2013-03-17", -7]
["CDISCPILOT01", "QS", "01-701-1294", 1005, "MHITM05", "RELATIVE PRESERVATION OF PERSONALITY", "MHIS-NACC", "", "ABSENT", "", "0", 0, "", "", "", "", "", 1.0, "SCREENING 1", -7, "TREATMENT", "2013-03-17", -7]
["CDISCPILOT01", "QS", "01-701-1294", 1006, "MHITM06", "DEPRESSION", "MHIS-NACC", "", "ABSENT", "", "0", 0, "", "", "", "", "", 1.0, "SCREENING 1", -7, "TREATMENT", "2013-03-17", -7]
["CDISCPILOT01", "QS", "01-701-1294", 1007, "MHITM07", "SOMATIC COMPLAINTS", "MHIS-NACC", "", "ABSENT", "", "0", 0, "", "", "", "", "", 1.0, "SCREENING 1", -7, "TREATMENT", "2013-03-17", -7]
["CDISCPILOT01", "QS", "01-701-1294", 1008, "MHITM08", "EMOTIONAL INCONTINENCE", "MHIS-NACC", "", "ABSENT", "", "0", 0, "", "", "", "", "", 1.0, "SCREENING 1", -7, "TREATMENT", "2013-03-17", -7]
["CDISCPILOT01", "QS", "01-701-1294", 1009, "MHITM09", "HISTORY OF HYPERTENSION", "MHIS-NACC", "", "ABSENT", "", "0", 0, "", "", "", "", "", 1.0, "SCREENING 1", -7, "TREATMENT", "2013-03-17", -7]
["CDISCPILOT01", "QS", "01-701-1294", 1010, "MHITM10", "HISTORY OF STROKES", "MHIS-NACC", "", "ABSENT", "", "0", 0, "", "", "", "", "", 1.0, "SCREENING 1", -7, "TREATMENT", "2013-03-17", -7]
["CDISCPILOT01", "QS", "01-701-1294", 1011, "MHITM11", "EVIDENCE OF ASSOCIATED ATHEROSCLEROSIS", "MHIS-NACC", "", "ABSENT", "", "0", 0, "", "", "", "", "", 1.0, "SCREENING 1", -7, "TREATMENT", "2013-03-17", -7]
["CDISCPILOT01", "QS", "01-701-1294", 1012, "MHITM12", "FOCAL NEUROLOGICAL SYMPTOMS", "MHIS-NACC", "", "ABSENT", "", "0", 0, "", "", "", "", "", 1.0, "SCREENING 1", -7, "TREATMENT", "2013-03-17", -7]
["CDISCPILOT01", "QS", "01-701-1294", 1013, "MHITM13", "FOCAL NEUROLOGICAL SIGNS", "MHIS-NACC", "", "ABSENT", "", "0", 0, "", "", "", "", "", 1.0, "SCREENING 1", -7, "TREATMENT", "2013-03-17", -7]
["CDISCPILOT01", "QS", "01-701-1302", 1001, "MHITM01", "ABRUPT ONSET", "MHIS-NACC", "", "ABSENT", "", "0", 0, "", "", "", "", "", 1.0, "SCREENING 1", -7, "TREATMENT", "2013-08-20", -9]
["CDISCPILOT01", "QS", "01-701-1302", 1002, "MHITM02", "STEPWISE DETERIORATION", "MHIS-NACC", "", "ABSENT", "", "0", 0, "", "", "", "", "", 1.0, "SCREENING 1", -7, "TREATMENT", "2013-08-20", -9]
["CDISCPILOT01", "QS", "01-701-1302", 1003, "MHITM03", "FLUCTUATING COURSE", "MHIS-NACC", "", "ABSENT", "", "0", 0, "", "", "", "", "", 1.0, "SCREENING 1", -7, "TREATMENT", "2013-08-20", -9]
["CDISCPILOT01", "QS", "01-701-1302", 1004, "MHITM04", "NOCTURNAL CONFUSION", "MHIS-NACC", "", "ABSENT", "", "0", 0, "", "", "", "", "", 1.0, "SCREENING 1", -7, "TREATMENT", "2013-08-20", -9]
["CDISCPILOT01", "QS", "01-701-1302", 1005, "MHITM05", "RELATIVE PRESERVATION OF PERSONALITY", "MHIS-NACC", "", "ABSENT", "", "0", 0, "", "", "", "", "", 1.0, "SCREENING 1", -7, "TREATMENT", "2013-08-20", -9]
["CDISCPILOT01", "QS", "01-701-1302", 1006, "MHITM06", "DEPRESSION", "MHIS-NACC", "", "ABSENT", "", "0", 0, "", "", "", "", "", 1.0, "SCREENING 1", -7, "TREATMENT", "2013-08-20", -9]
["CDISCPILOT01", "QS", "01-701-1302", 1007, "MHITM07", "SOMATIC COMPLAINTS", "MHIS-NACC", "", "PRESENT", "", "1", 1, "", "", "", "", "", 1.0, "SCREENING 1", -7, "TREATMENT", "2013-08-20", -9]
["CDISCPILOT01", "QS", "01-701-1302", 1008, "MHITM08", "EMOTIONAL INCONTINENCE", "MHIS-NACC", "", "ABSENT", "", "0", 0, "", "", "", "", "", 1.0, "SCREENING 1", -7, "TREATMENT", "2013-08-20", -9]
["CDISCPILOT01", "QS", "01-701-1302", 1009, "MHITM09", "HISTORY OF HYPERTENSION", "MHIS-NACC", "", "ABSENT", "", "0", 0, "", "", "", "", "", 1.0, "SCREENING 1", -7, "TREATMENT", "2013-08-20", -9]
["CDISCPILOT01", "QS", "01-701-1302", 1010, "MHITM10", "HISTORY OF STROKES", "MHIS-NACC", "", "ABSENT", "", "0", 0, "", "", "", "", "", 1.0, "SCREENING 1", -7, "TREATMENT", "2013-08-20", -9]
["CDISCPILOT01", "QS", "01-701-1302", 1011, "MHITM11", "EVIDENCE OF ASSOCIATED ATHEROSCLEROSIS", "MHIS-NACC", "", "ABSENT", "", "0", 0, "", "", "", "", "", 1.0, "SCREENING 1", -7, "TREATMENT", "2013-08-20", -9]
["CDISCPILOT01", "QS", "01-701-1302", 1012, "MHITM12", "FOCAL NEUROLOGICAL SYMPTOMS", "MHIS-NACC", "", "ABSENT", "", "0", 0, "", "", "", "", "", 1.0, "SCREENING 1", -7, "TREATMENT", "2013-08-20", -9]
["CDISCPILOT01", "QS", "01-701-1302", 1013, "MHITM13", "FOCAL NEUROLOGICAL SIGNS", "MHIS-NACC", "", "ABSENT", "", "0", 0, "", "", "", "", "", 1.0, "SCREENING 1", -7, "TREATMENT", "2013-08-20", -9]
["CDISCPILOT01", "QS", "01-701-1317", 1001, "MHITM01", "ABRUPT ONSET", "MHIS-NACC", "", "ABSENT", "", "0", 0, "", "", "", "", "", 1.0, "SCREENING 1", -7, "TREATMENT", "2014-05-10", -12]
["CDISCPILOT01", "QS", "01-701-1317", 1002, "MHITM02", "STEPWISE DETERIORATION", "MHIS-NACC", "", "ABSENT", "", "0", 0, "", "", "", "", "", 1.0, "SCREENING 1", -7, "TREATMENT", "2014-05-10", -12]
["CDISCPILOT01", "QS", "01-701-1317", 1003, "MHITM03", "FLUCTUATING COURSE", "MHIS-NACC", "", "ABSENT", "", "0", 0, "", "", "", "", "", 1.0, "SCREENING 1", -7, "TREATMENT", "2014-05-10", -12]
["CDISCPILOT01", "QS", "01-701-1317", 1004, "MHITM04", "NOCTURNAL CONFUSION", "MHIS-NACC", "", "ABSENT", "", "0", 0, "", "", "", "", "", 1.0, "SCREENING 1", -7, "TREATMENT", "2014-05-10", -12]
["CDISCPILOT01", "QS", "01-701-1317", 1005, "MHITM05", "RELATIVE PRESERVATION OF PERSONALITY", "MHIS-NACC", "", "ABSENT", "", "0", 0, "", "", "", "", "", 1.0, "SCREENING 1", -7, "TREATMENT", "2014-05-10", -12]
["CDISCPILOT01", "QS", "01-701-1317", 1006, "MHITM06", "DEPRESSION", "MHIS-NACC", "", "ABSENT", "", "0", 0, "", "", "", "", "", 1.0, "SCREENING 1", -7, "TREATMENT", "2014-05-10", -12]
["CDISCPILOT01", "QS", "01-701-1317", 1007, "MHITM07", "SOMATIC COMPLAINTS", "MHIS-NACC", "", "PRESENT", "", "1", 1, "", "", "", "", "", 1.0, "SCREENING 1", -7, "TREATMENT", "2014-05-10", -12]
["CDISCPILOT01", "QS", "01-701-1317", 1008, "MHITM08", "EMOTIONAL INCONTINENCE", "MHIS-NACC", "", "ABSENT", "", "0", 0, "", "", "", "", "", 1.0, "SCREENING 1", -7, "TREATMENT", "2014-05-10", -12]
["CDISCPILOT01", "QS", "01-701-1317", 1009, "MHITM09", "HISTORY OF HYPERTENSION", "MHIS-NACC", "", "ABSENT", "", "0", 0, "", "", "", "", "", 1.0, "SCREENING 1", -7, "TREATMENT", "2014-05-10", -12]
["CDISCPILOT01", "QS", "01-701-1317", 1010, "MHITM10", "HISTORY OF STROKES", "MHIS-NACC", "", "ABSENT", "", "0", 0, "", "", "", "", "", 1.0, "SCREENING 1", -7, "TREATMENT", "2014-05-10", -12]
["CDISCPILOT01", "QS", "01-701-1317", 1011, "MHITM11", "EVIDENCE OF ASSOCIATED ATHEROSCLEROSIS", "MHIS-NACC", "", "ABSENT", "", "0", 0, "", "", "", "", "", 1.0, "SCREENING 1", -7, "TREATMENT", "2014-05-10", -12]
["CDISCPILOT01", "QS", "01-701-1317", 1012, "MHITM12", "FOCAL NEUROLOGICAL SYMPTOMS", "MHIS-NACC", "", "ABSENT", "", "0", 0, "", "", "", "", "", 1.0, "SCREENING 1", -7, "TREATMENT", "2014-05-10", -12]
["CDISCPILOT01", "QS", "01-701-1317", 1013, "MHITM13", "FOCAL NEUROLOGICAL SIGNS", "MHIS-NACC", "", "ABSENT", "", "0", 0, "", "", "", "", "", 1.0, "SCREENING 1", -7, "TREATMENT", "2014-05-10", -12]
["CDISCPILOT01", "QS", "01-701-1324", 1001, "MHITM01", "ABRUPT ONSET", "MHIS-NACC", "", "ABSENT", "", "0", 0, "", "", "", "", "", 1.0, "SCREENING 1", -7, "TREATMENT", "2012-09-16", -16]
["CDISCPILOT01", "QS", "01-701-1324", 1002, "MHITM02", "STEPWISE DETERIORATION", "MHIS-NACC", "", "ABSENT", "", "0", 0, "", "", "", "", "", 1.0, "SCREENING 1", -7, "TREATMENT", "2012-09-16", -16]
["CDISCPILOT01", "QS", "01-701-1324", 1003, "MHITM03", "FLUCTUATING COURSE", "MHIS-NACC", "", "ABSENT", "", "0", 0, "", "", "", "", "", 1.0, "SCREENING 1", -7, "TREATMENT", "2012-09-16", -16]
["CDISCPILOT01", "QS", "01-701-1324", 1004, "MHITM04", "NOCTURNAL CONFUSION", "MHIS-NACC", "", "ABSENT", "", "0", 0, "", "", "", "", "", 1.0, "SCREENING 1", -7, "TREATMENT", "2012-09-16", -16]
["CDISCPILOT01", "QS", "01-701-1324", 1005, "MHITM05", "RELATIVE PRESERVATION OF PERSONALITY", "MHIS-NACC", "", "ABSENT", "", "0", 0, "", "", "", "", "", 1.0, "SCREENING 1", -7, "TREATMENT", "2012-09-16", -16]
["CDISCPILOT01", "QS", "01-701-1324", 1006, "MHITM06", "DEPRESSION", "MHIS-NACC", "", "ABSENT", "", "0", 0, "", "", "", "", "", 1.0, "SCREENING 1", -7, "TREATMENT", "2012-09-16", -16]
["CDISCPILOT01", "QS", "01-701-1324", 1007, "MHITM07", "SOMATIC COMPLAINTS", "MHIS-NACC", "", "PRESENT", "", "1", 1, "", "", "", "", "", 1.0, "SCREENING 1", -7, "TREATMENT", "2012-09-16", -16]
["CDISCPILOT01", "QS", "01-701-1324", 1008, "MHITM08", "EMOTIONAL INCONTINENCE", "MHIS-NACC", "", "ABSENT", "", "0", 0, "", "", "", "", "", 1.0, "SCREENING 1", -7, "TREATMENT", "2012-09-16", -16]
["CDISCPILOT01", "QS", "01-701-1324", 1009, "MHITM09", "HISTORY OF HYPERTENSION", "MHIS-NACC", "", "ABSENT", "", "0", 0, "", "", "", "", "", 1.0, "SCREENING 1", -7, "TREATMENT", "2012-09-16", -16]
["CDISCPILOT01", "QS", "01-701-1324", 1010, "MHITM10", "HISTORY OF STROKES", "MHIS-NACC", "", "ABSENT", "", "0", 0, "", "", "", "", "", 1.0, "SCREENING 1", -7, "TREATMENT", "2012-09-16", -16]
["CDISCPILOT01", "QS", "01-701-1324", 1011, "MHITM11", "EVIDENCE OF ASSOCIATED ATHEROSCLEROSIS", "MHIS-NACC", "", "ABSENT", "", "0", 0, "", "", "", "", "", 1.0, "SCREENING 1", -7, "TREATMENT", "2012-09-16", -16]
["CDISCPILOT01", "QS", "01-701-1324", 1012, "MHITM12", "FOCAL NEUROLOGICAL SYMPTOMS", "MHIS-NACC", "", "ABSENT", "", "0", 0, "", "", "", "", "", 1.0, "SCREENING 1", -7, "TREATMENT", "2012-09-16", -16]
["CDISCPILOT01", "QS", "01-701-1324", 1013, "MHITM13", "FOCAL NEUROLOGICAL SIGNS", "MHIS-NACC", "", "ABSENT", "", "0", 0, "", "", "", "", "", 1.0, "SCREENING 1", -7, "TREATMENT", "2012-09-16", -16]
["CDISCPILOT01", "QS", "01-701-1341", 1001, "MHITM01", "ABRUPT ONSET", "MHIS-NACC", "", "ABSENT", "", "0", 0, "", "", "", "", "", 1.0, "SCREENING 1", -7, "TREATMENT", "2012-12-22", -14]
["CDISCPILOT01", "QS", "01-701-1341", 1002, "MHITM02", "STEPWISE DETERIORATION", "MHIS-NACC", "", "ABSENT", "", "0", 0, "", "", "", "", "", 1.0, "SCREENING 1", -7, "TREATMENT", "2012-12-22", -14]
["CDISCPILOT01", "QS", "01-701-1341", 1003, "MHITM03", "FLUCTUATING COURSE", "MHIS-NACC", "", "ABSENT", "", "0", 0, "", "", "", "", "", 1.0, "SCREENING 1", -7, "TREATMENT", "2012-12-22", -14]
["CDISCPILOT01", "QS", "01-701-1341", 1004, "MHITM04", "NOCTURNAL CONFUSION", "MHIS-NACC", "", "ABSENT", "", "0", 0, "", "", "", "", "", 1.0, "SCREENING 1", -7, "TREATMENT", "2012-12-22", -14]
["CDISCPILOT01", "QS", "01-701-1341", 1005, "MHITM05", "RELATIVE PRESERVATION OF PERSONALITY", "MHIS-NACC", "", "ABSENT", "", "0", 0, "", "", "", "", "", 1.0, "SCREENING 1", -7, "TREATMENT", "2012-12-22", -14]
["CDISCPILOT01", "QS", "01-701-1341", 1006, "MHITM06", "DEPRESSION", "MHIS-NACC", "", "PRESENT", "", "1", 1, "", "", "", "", "", 1.0, "SCREENING 1", -7, "TREATMENT", "2012-12-22", -14]
["CDISCPILOT01", "QS", "01-701-1341", 1007, "MHITM07", "SOMATIC COMPLAINTS", "MHIS-NACC", "", "ABSENT", "", "0", 0, "", "", "", "", "", 1.0, "SCREENING 1", -7, "TREATMENT", "2012-12-22", -14]
["CDISCPILOT01", "QS", "01-701-1341", 1008, "MHITM08", "EMOTIONAL INCONTINENCE", "MHIS-NACC", "", "ABSENT", "", "0", 0, "", "", "", "", "", 1.0, "SCREENING 1", -7, "TREATMENT", "2012-12-22", -14]
["CDISCPILOT01", "QS", "01-701-1341", 1009, "MHITM09", "HISTORY OF HYPERTENSION", "MHIS-NACC", "", "PRESENT", "", "1", 1, "", "", "", "", "", 1.0, "SCREENING 1", -7, "TREATMENT", "2012-12-22", -14]
["CDISCPILOT01", "QS", "01-701-1341", 1010, "MHITM10", "HISTORY OF STROKES", "MHIS-NACC", "", "ABSENT", "", "0", 0, "", "", "", "", "", 1.0, "SCREENING 1", -7, "TREATMENT", "2012-12-22", -14]
["CDISCPILOT01", "QS", "01-701-1341", 1011, "MHITM11", "EVIDENCE OF ASSOCIATED ATHEROSCLEROSIS", "MHIS-NACC", "", "ABSENT", "", "0", 0, "", "", "", "", "", 1.0, "SCREENING 1", -7, "TREATMENT", "2012-12-22", -14]
["CDISCPILOT01", "QS", "01-701-1341", 1012, "MHITM12", "FOCAL NEUROLOGICAL SYMPTOMS", "MHIS-NACC", "", "ABSENT", "", "0", 0, "", "", "", "", "", 1.0, "SCREENING 1", -7, "TREATMENT", "2012-12-22", -14]
["CDISCPILOT01", "QS", "01-701-1341", 1013, "MHITM13", "FOCAL NEUROLOGICAL SIGNS", "MHIS-NACC", "", "ABSENT", "", "0", 0, "", "", "", "", "", 1.0, "SCREENING 1", -7, "TREATMENT", "2012-12-22", -14]
["CDISCPILOT01", "QS", "01-701-1345", 1001, "MHITM01", "ABRUPT ONSET", "MHIS-NACC", "", "ABSENT", "", "0", 0, "", "", "", "", "", 1.0, "SCREENING 1", -7, "TREATMENT", "2013-10-01", -7]
["CDISCPILOT01", "QS", "01-701-1345", 1002, "MHITM02", "STEPWISE DETERIORATION", "MHIS-NACC", "", "ABSENT", "", "0", 0, "", "", "", "", "", 1.0, "SCREENING 1", -7, "TREATMENT", "2013-10-01", -7]
["CDISCPILOT01", "QS", "01-701-1345", 1003, "MHITM03", "FLUCTUATING COURSE", "MHIS-NACC", "", "ABSENT", "", "0", 0, "", "", "", "", "", 1.0, "SCREENING 1", -7, "TREATMENT", "2013-10-01", -7]
["CDISCPILOT01", "QS", "01-701-1345", 1004, "MHITM04", "NOCTURNAL CONFUSION", "MHIS-NACC", "", "ABSENT", "", "0", 0, "", "", "", "", "", 1.0, "SCREENING 1", -7, "TREATMENT", "2013-10-01", -7]
["CDISCPILOT01", "QS", "01-701-1345", 1005, "MHITM05", "RELATIVE PRESERVATION OF PERSONALITY", "MHIS-NACC", "", "ABSENT", "", "0", 0, "", "", "", "", "", 1.0, "SCREENING 1", -7, "TREATMENT", "2013-10-01", -7]
["CDISCPILOT01", "QS", "01-701-1345", 1006, "MHITM06", "DEPRESSION", "MHIS-NACC", "", "ABSENT", "", "0", 0, "", "", "", "", "", 1.0, "SCREENING 1", -7, "TREATMENT", "2013-10-01", -7]
["CDISCPILOT01", "QS", "01-701-1345", 1007, "MHITM07", "SOMATIC COMPLAINTS", "MHIS-NACC", "", "ABSENT", "", "0", 0, "", "", "", "", "", 1.0, "SCREENING 1", -7, "TREATMENT", "2013-10-01", -7]
["CDISCPILOT01", "QS", "01-701-1345", 1008, "MHITM08", "EMOTIONAL INCONTINENCE", "MHIS-NACC", "", "ABSENT", "", "0", 0, "", "", "", "", "", 1.0, "SCREENING 1", -7, "TREATMENT", "2013-10-01", -7]
["CDISCPILOT01", "QS", "01-701-1345", 1009, "MHITM09", "HISTORY OF HYPERTENSION", "MHIS-NACC", "", "ABSENT", "", "0", 0, "", "", "", "", "", 1.0, "SCREENING 1", -7, "TREATMENT", "2013-10-01", -7]
["CDISCPILOT01", "QS", "01-701-1345", 1010, "MHITM10", "HISTORY OF STROKES", "MHIS-NACC", "", "ABSENT", "", "0", 0, "", "", "", "", "", 1.0, "SCREENING 1", -7, "TREATMENT", "2013-10-01", -7]
["CDISCPILOT01", "QS", "01-701-1345", 1011, "MHITM11", "EVIDENCE OF ASSOCIATED ATHEROSCLEROSIS", "MHIS-NACC", "", "ABSENT", "", "0", 0, "", "", "", "", "", 1.0, "SCREENING 1", -7, "TREATMENT", "2013-10-01", -7]
["CDISCPILOT01", "QS", "01-701-1345", 1012, "MHITM12", "FOCAL NEUROLOGICAL SYMPTOMS", "MHIS-NACC", "", "ABSENT", "", "0", 0, "", "", "", "", "", 1.0, "SCREENING 1", -7, "TREATMENT", "2013-10-01", -7]
["CDISCPILOT01", "QS", "01-701-1345", 1013, "MHITM13", "FOCAL NEUROLOGICAL SIGNS", "MHIS-NACC", "", "ABSENT", "", "0", 0, "", "", "", "", "", 1.0, "SCREENING 1", -7, "TREATMENT", "2013-10-01", -7]
["CDISCPILOT01", "QS", "01-701-1360", 1001, "MHITM01", "ABRUPT ONSET", "MHIS-NACC", "", "ABSENT", "", "0", 0, "", "", "", "", "", 1.0, "SCREENING 1", -7, "TREATMENT", "2013-07-24", -7]
["CDISCPILOT01", "QS", "01-701-1360", 1002, "MHITM02", "STEPWISE DETERIORATION", "MHIS-NACC", "", "ABSENT", "", "0", 0, "", "", "", "", "", 1.0, "SCREENING 1", -7, "TREATMENT", "2013-07-24", -7]
["CDISCPILOT01", "QS", "01-701-1360", 1003, "MHITM03", "FLUCTUATING COURSE", "MHIS-NACC", "", "ABSENT", "", "0", 0, "", "", "", "", "", 1.0, "SCREENING 1", -7, "TREATMENT", "2013-07-24", -7]
["CDISCPILOT01", "QS", "01-701-1360", 1004, "MHITM04", "NOCTURNAL CONFUSION", "MHIS-NACC", "", "ABSENT", "", "0", 0, "", "", "", "", "", 1.0, "SCREENING 1", -7, "TREATMENT", "2013-07-24", -7]
["CDISCPILOT01", "QS", "01-701-1360", 1005, "MHITM05", "RELATIVE PRESERVATION OF PERSONALITY", "MHIS-NACC", "", "ABSENT", "", "0", 0, "", "", "", "", "", 1.0, "SCREENING 1", -7, "TREATMENT", "2013-07-24", -7]
["CDISCPILOT01", "QS", "01-701-1360", 1006, "MHITM06", "DEPRESSION", "MHIS-NACC", "", "ABSENT", "", "0", 0, "", "", "", "", "", 1.0, "SCREENING 1", -7, "TREATMENT", "2013-07-24", -7]
["CDISCPILOT01", "QS", "01-701-1360", 1007, "MHITM07", "SOMATIC COMPLAINTS", "MHIS-NACC", "", "PRESENT", "", "1", 1, "", "", "", "", "", 1.0, "SCREENING 1", -7, "TREATMENT", "2013-07-24", -7]
["CDISCPILOT01", "QS", "01-701-1360", 1008, "MHITM08", "EMOTIONAL INCONTINENCE", "MHIS-NACC", "", "ABSENT", "", "0", 0, "", "", "", "", "", 1.0, "SCREENING 1", -7, "TREATMENT", "2013-07-24", -7]
["CDISCPILOT01", "QS", "01-701-1360", 1009, "MHITM09", "HISTORY OF HYPERTENSION", "MHIS-NACC", "", "ABSENT", "", "0", 0, "", "", "", "", "", 1.0, "SCREENING 1", -7, "TREATMENT", "2013-07-24", -7]
["CDISCPILOT01", "QS", "01-701-1360", 1010, "MHITM10", "HISTORY OF STROKES", "MHIS-NACC", "", "ABSENT", "", "0", 0, "", "", "", "", "", 1.0, "SCREENING 1", -7, "TREATMENT", "2013-07-24", -7]
["CDISCPILOT01", "QS", "01-701-1360", 1011, "MHITM11", "EVIDENCE OF ASSOCIATED ATHEROSCLEROSIS", "MHIS-NACC", "", "ABSENT", "", "0", 0, "", "", "", "", "", 1.0, "SCREENING 1", -7, "TREATMENT", "2013-07-24", -7]
["CDISCPILOT01", "QS", "01-701-1360", 1012, "MHITM12", "FOCAL NEUROLOGICAL SYMPTOMS", "MHIS-NACC", "", "ABSENT", "", "0", 0, "", "", "", "", "", 1.0, "SCREENING 1", -7, "TREATMENT", "2013-07-24", -7]
["CDISCPILOT01", "QS", "01-701-1360", 1013, "MHITM13", "FOCAL NEUROLOGICAL SIGNS", "MHIS-NACC", "", "ABSENT", "", "0", 0, "", "", "", "", "", 1.0, "SCREENING 1", -7, "TREATMENT", "2013-07-24", -7]
["CDISCPILOT01", "QS", "01-701-1363", 1001, "MHITM01", "ABRUPT ONSET", "MHIS-NACC", "", "ABSENT", "", "0", 0, "", "", "", "", "", 1.0, "SCREENING 1", -7, "TREATMENT", "2013-05-20", -10]
["CDISCPILOT01", "QS", "01-701-1363", 1002, "MHITM02", "STEPWISE DETERIORATION", "MHIS-NACC", "", "ABSENT", "", "0", 0, "", "", "", "", "", 1.0, "SCREENING 1", -7, "TREATMENT", "2013-05-20", -10]
["CDISCPILOT01", "QS", "01-701-1363", 1003, "MHITM03", "FLUCTUATING COURSE", "MHIS-NACC", "", "ABSENT", "", "0", 0, "", "", "", "", "", 1.0, "SCREENING 1", -7, "TREATMENT", "2013-05-20", -10]
["CDISCPILOT01", "QS", "01-701-1363", 1004, "MHITM04", "NOCTURNAL CONFUSION", "MHIS-NACC", "", "ABSENT", "", "0", 0, "", "", "", "", "", 1.0, "SCREENING 1", -7, "TREATMENT", "2013-05-20", -10]
["CDISCPILOT01", "QS", "01-701-1363", 1005, "MHITM05", "RELATIVE PRESERVATION OF PERSONALITY", "MHIS-NACC", "", "ABSENT", "", "0", 0, "", "", "", "", "", 1.0, "SCREENING 1", -7, "TREATMENT", "2013-05-20", -10]
["CDISCPILOT01", "QS", "01-701-1363", 1006, "MHITM06", "DEPRESSION", "MHIS-NACC", "", "ABSENT", "", "0", 0, "", "", "", "", "", 1.0, "SCREENING 1", -7, "TREATMENT", "2013-05-20", -10]
["CDISCPILOT01", "QS", "01-701-1363", 1007, "MHITM07", "SOMATIC COMPLAINTS", "MHIS-NACC", "", "PRESENT", "", "1", 1, "", "", "", "", "", 1.0, "SCREENING 1", -7, "TREATMENT", "2013-05-20", -10]
["CDISCPILOT01", "QS", "01-701-1363", 1008, "MHITM08", "EMOTIONAL INCONTINENCE", "MHIS-NACC", "", "ABSENT", "", "0", 0, "", "", "", "", "", 1.0, "SCREENING 1", -7, "TREATMENT", "2013-05-20", -10]
["CDISCPILOT01", "QS", "01-701-1363", 1009, "MHITM09", "HISTORY OF HYPERTENSION", "MHIS-NACC", "", "ABSENT", "", "0", 0, "", "", "", "", "", 1.0, "SCREENING 1", -7, "TREATMENT", "2013-05-20", -10]
["CDISCPILOT01", "QS", "01-701-1363", 1010, "MHITM10", "HISTORY OF STROKES", "MHIS-NACC", "", "ABSENT", "", "0", 0, "", "", "", "", "", 1.0, "SCREENING 1", -7, "TREATMENT", "2013-05-20", -10]
["CDISCPILOT01", "QS", "01-701-1363", 1011, "MHITM11", "EVIDENCE OF ASSOCIATED ATHEROSCLEROSIS", "MHIS-NACC", "", "ABSENT", "", "0", 0, "", "", "", "", "", 1.0, "SCREENING 1", -7, "TREATMENT", "2013-05-20", -10]
["CDISCPILOT01", "QS", "01-701-1363", 1012, "MHITM12", "FOCAL NEUROLOGICAL SYMPTOMS", "MHIS-NACC", "", "ABSENT", "", "0", 0, "", "", "", "", "", 1.0, "SCREENING 1", -7, "TREATMENT", "2013-05-20", -10]
["CDISCPILOT01", "QS", "01-701-1363", 1013, "MHITM13", "FOCAL NEUROLOGICAL SIGNS", "MHIS-NACC", "", "ABSENT", "", "0", 0, "", "", "", "", "", 1.0, "SCREENING 1", -7, "TREATMENT", "2013-05-20", -10]
["CDISCPILOT01", "QS", "01-701-1383", 1001, "MHITM01", "ABRUPT ONSET", "MHIS-NACC", "", "ABSENT", "", "0", 0, "", "", "", "", "", 1.0, "SCREENING 1", -7, "TREATMENT", "2013-01-22", -13]
["CDISCPILOT01", "QS", "01-701-1383", 1002, "MHITM02", "STEPWISE DETERIORATION", "MHIS-NACC", "", "ABSENT", "", "0", 0, "", "", "", "", "", 1.0, "SCREENING 1", -7, "TREATMENT", "2013-01-22", -13]
["CDISCPILOT01", "QS", "01-701-1383", 1003, "MHITM03", "FLUCTUATING COURSE", "MHIS-NACC", "", "ABSENT", "", "0", 0, "", "", "", "", "", 1.0, "SCREENING 1", -7, "TREATMENT", "2013-01-22", -13]
["CDISCPILOT01", "QS", "01-701-1383", 1004, "MHITM04", "NOCTURNAL CONFUSION", "MHIS-NACC", "", "ABSENT", "", "0", 0, "", "", "", "", "", 1.0, "SCREENING 1", -7, "TREATMENT", "2013-01-22", -13]
["CDISCPILOT01", "QS", "01-701-1383", 1005, "MHITM05", "RELATIVE PRESERVATION OF PERSONALITY", "MHIS-NACC", "", "ABSENT", "", "0", 0, "", "", "", "", "", 1.0, "SCREENING 1", -7, "TREATMENT", "2013-01-22", -13]
["CDISCPILOT01", "QS", "01-701-1383", 1006, "MHITM06", "DEPRESSION", "MHIS-NACC", "", "ABSENT", "", "0", 0, "", "", "", "", "", 1.0, "SCREENING 1", -7, "TREATMENT", "2013-01-22", -13]
["CDISCPILOT01", "QS", "01-701-1383", 1007, "MHITM07", "SOMATIC COMPLAINTS", "MHIS-NACC", "", "PRESENT", "", "1", 1, "", "", "", "", "", 1.0, "SCREENING 1", -7, "TREATMENT", "2013-01-22", -13]
["CDISCPILOT01", "QS", "01-701-1383", 1008, "MHITM08", "EMOTIONAL INCONTINENCE", "MHIS-NACC", "", "ABSENT", "", "0", 0, "", "", "", "", "", 1.0, "SCREENING 1", -7, "TREATMENT", "2013-01-22", -13]
["CDISCPILOT01", "QS", "01-701-1383", 1009, "MHITM09", "HISTORY OF HYPERTENSION", "MHIS-NACC", "", "ABSENT", "", "0", 0, "", "", "", "", "", 1.0, "SCREENING 1", -7, "TREATMENT", "2013-01-22", -13]
["CDISCPILOT01", "QS", "01-701-1383", 1010, "MHITM10", "HISTORY OF STROKES", "MHIS-NACC", "", "ABSENT", "", "0", 0, "", "", "", "", "", 1.0, "SCREENING 1", -7, "TREATMENT", "2013-01-22", -13]
["CDISCPILOT01", "QS", "01-701-1383", 1011, "MHITM11", "EVIDENCE OF ASSOCIATED ATHEROSCLEROSIS", "MHIS-NACC", "", "ABSENT", "", "0", 0, "", "", "", "", "", 1.0, "SCREENING 1", -7, "TREATMENT", "2013-01-22", -13]
["CDISCPILOT01", "QS", "01-701-1383", 1012, "MHITM12", "FOCAL NEUROLOGICAL SYMPTOMS", "MHIS-NACC", "", "ABSENT", "", "0", 0, "", "", "", "", "", 1.0, "SCREENING 1", -7, "TREATMENT", "2013-01-22", -13]
["CDISCPILOT01", "QS", "01-701-1383", 1013, "MHITM13", "FOCAL NEUROLOGICAL SIGNS", "MHIS-NACC", "", "ABSENT", "", "0", 0, "", "", "", "", "", 1.0, "SCREENING 1", -7, "TREATMENT", "2013-01-22", -13]
["CDISCPILOT01", "QS", "01-701-1387", 1001, "MHITM01", "ABRUPT ONSET", "MHIS-NACC", "", "ABSENT", "", "0", 0, "", "", "", "", "", 1.0, "SCREENING 1", -7, "TREATMENT", "2014-02-23", -17]
["CDISCPILOT01", "QS", "01-701-1387", 1002, "MHITM02", "STEPWISE DETERIORATION", "MHIS-NACC", "", "ABSENT", "", "0", 0, "", "", "", "", "", 1.0, "SCREENING 1", -7, "TREATMENT", "2014-02-23", -17]
["CDISCPILOT01", "QS", "01-701-1387", 1003, "MHITM03", "FLUCTUATING COURSE", "MHIS-NACC", "", "ABSENT", "", "0", 0, "", "", "", "", "", 1.0, "SCREENING 1", -7, "TREATMENT", "2014-02-23", -17]
["CDISCPILOT01", "QS", "01-701-1387", 1004, "MHITM04", "NOCTURNAL CONFUSION", "MHIS-NACC", "", "ABSENT", "", "0", 0, "", "", "", "", "", 1.0, "SCREENING 1", -7, "TREATMENT", "2014-02-23", -17]
["CDISCPILOT01", "QS", "01-701-1387", 1005, "MHITM05", "RELATIVE PRESERVATION OF PERSONALITY", "MHIS-NACC", "", "ABSENT", "", "0", 0, "", "", "", "", "", 1.0, "SCREENING 1", -7, "TREATMENT", "2014-02-23", -17]
["CDISCPILOT01", "QS", "01-701-1387", 1006, "MHITM06", "DEPRESSION", "MHIS-NACC", "", "ABSENT", "", "0", 0, "", "", "", "", "", 1.0, "SCREENING 1", -7, "TREATMENT", "2014-02-23", -17]
["CDISCPILOT01", "QS", "01-701-1387", 1007, "MHITM07", "SOMATIC COMPLAINTS", "MHIS-NACC", "", "ABSENT", "", "0", 0, "", "", "", "", "", 1.0, "SCREENING 1", -7, "TREATMENT", "2014-02-23", -17]
["CDISCPILOT01", "QS", "01-701-1387", 1008, "MHITM08", "EMOTIONAL INCONTINENCE", "MHIS-NACC", "", "ABSENT", "", "0", 0, "", "", "", "", "", 1.0, "SCREENING 1", -7, "TREATMENT", "2014-02-23", -17]
["CDISCPILOT01", "QS", "01-701-1387", 1009, "MHITM09", "HISTORY OF HYPERTENSION", "MHIS-NACC", "", "ABSENT", "", "0", 0, "", "", "", "", "", 1.0, "SCREENING 1", -7, "TREATMENT", "2014-02-23", -17]
["CDISCPILOT01", "QS", "01-701-1387", 1010, "MHITM10", "HISTORY OF STROKES", "MHIS-NACC", "", "ABSENT", "", "0", 0, "", "", "", "", "", 1.0, "SCREENING 1", -7, "TREATMENT", "2014-02-23", -17]
["CDISCPILOT01", "QS", "01-701-1387", 1011, "MHITM11", "EVIDENCE OF ASSOCIATED ATHEROSCLEROSIS", "MHIS-NACC", "", "ABSENT", "", "0", 0, "", "", "", "", "", 1.0, "SCREENING 1", -7, "TREATMENT", "2014-02-23", -17]
["CDISCPILOT01", "QS", "01-701-1387", 1012, "MHITM12", "FOCAL NEUROLOGICAL SYMPTOMS", "MHIS-NACC", "", "ABSENT", "", "0", 0, "", "", "", "", "", 1.0, "SCREENING 1", -7, "TREATMENT", "2014-02-23", -17]
["CDISCPILOT01", "QS", "01-701-1387", 1013, "MHITM13", "FOCAL NEUROLOGICAL SIGNS", "MHIS-NACC", "", "ABSENT", "", "0", 0, "", "", "", "", "", 1.0, "SCREENING 1", -7, "TREATMENT", "2014-02-23", -17]
["CDISCPILOT01", "QS", "01-701-1392", 1001, "MHITM01", "ABRUPT ONSET", "MHIS-NACC", "", "ABSENT", "", "0", 0, "", "", "", "", "", 1.0, "SCREENING 1", -7, "TREATMENT", "2012-10-17", -11]
["CDISCPILOT01", "QS", "01-701-1392", 1002, "MHITM02", "STEPWISE DETERIORATION", "MHIS-NACC", "", "ABSENT", "", "0", 0, "", "", "", "", "", 1.0, "SCREENING 1", -7, "TREATMENT", "2012-10-17", -11]
["CDISCPILOT01", "QS", "01-701-1392", 1003, "MHITM03", "FLUCTUATING COURSE", "MHIS-NACC", "", "ABSENT", "", "0", 0, "", "", "", "", "", 1.0, "SCREENING 1", -7, "TREATMENT", "2012-10-17", -11]
["CDISCPILOT01", "QS", "01-701-1392", 1004, "MHITM04", "NOCTURNAL CONFUSION", "MHIS-NACC", "", "ABSENT", "", "0", 0, "", "", "", "", "", 1.0, "SCREENING 1", -7, "TREATMENT", "2012-10-17", -11]
["CDISCPILOT01", "QS", "01-701-1392", 1005, "MHITM05", "RELATIVE PRESERVATION OF PERSONALITY", "MHIS-NACC", "", "ABSENT", "", "0", 0, "", "", "", "", "", 1.0, "SCREENING 1", -7, "TREATMENT", "2012-10-17", -11]
["CDISCPILOT01", "QS", "01-701-1392", 1006, "MHITM06", "DEPRESSION", "MHIS-NACC", "", "ABSENT", "", "0", 0, "", "", "", "", "", 1.0, "SCREENING 1", -7, "TREATMENT", "2012-10-17", -11]
["CDISCPILOT01", "QS", "01-701-1392", 1007, "MHITM07", "SOMATIC COMPLAINTS", "MHIS-NACC", "", "ABSENT", "", "0", 0, "", "", "", "", "", 1.0, "SCREENING 1", -7, "TREATMENT", "2012-10-17", -11]
["CDISCPILOT01", "QS", "01-701-1392", 1008, "MHITM08", "EMOTIONAL INCONTINENCE", "MHIS-NACC", "", "ABSENT", "", "0", 0, "", "", "", "", "", 1.0, "SCREENING 1", -7, "TREATMENT", "2012-10-17", -11]
["CDISCPILOT01", "QS", "01-701-1392", 1009, "MHITM09", "HISTORY OF HYPERTENSION", "MHIS-NACC", "", "PRESENT", "", "1", 1, "", "", "", "", "", 1.0, "SCREENING 1", -7, "TREATMENT", "2012-10-17", -11]
["CDISCPILOT01", "QS", "01-701-1392", 1010, "MHITM10", "HISTORY OF STROKES", "MHIS-NACC", "", "ABSENT", "", "0", 0, "", "", "", "", "", 1.0, "SCREENING 1", -7, "TREATMENT", "2012-10-17", -11]
["CDISCPILOT01", "QS", "01-701-1392", 1011, "MHITM11", "EVIDENCE OF ASSOCIATED ATHEROSCLEROSIS", "MHIS-NACC", "", "ABSENT", "", "0", 0, "", "", "", "", "", 1.0, "SCREENING 1", -7, "TREATMENT", "2012-10-17", -11]
["CDISCPILOT01", "QS", "01-701-1392", 1012, "MHITM12", "FOCAL NEUROLOGICAL SYMPTOMS", "MHIS-NACC", "", "ABSENT", "", "0", 0, "", "", "", "", "", 1.0, "SCREENING 1", -7, "TREATMENT", "2012-10-17", -11]
["CDISCPILOT01", "QS", "01-701-1392", 1013, "MHITM13", "FOCAL NEUROLOGICAL SIGNS", "MHIS-NACC", "", "ABSENT", "", "0", 0, "", "", "", "", "", 1.0, "SCREENING 1", -7, "TREATMENT", "2012-10-17", -11]
["CDISCPILOT01", "QS", "01-701-1415", 1001, "MHITM01", "ABRUPT ONSET", "MHIS-NACC", "", "ABSENT", "", "0", 0, "", "", "", "", "", 1.0, "SCREENING 1", -7, "TREATMENT", "2013-09-15", -8]
["CDISCPILOT01", "QS", "01-701-1415", 1002, "MHITM02", "STEPWISE DETERIORATION", "MHIS-NACC", "", "ABSENT", "", "0", 0, "", "", "", "", "", 1.0, "SCREENING 1", -7, "TREATMENT", "2013-09-15", -8]
["CDISCPILOT01", "QS", "01-701-1415", 1003, "MHITM03", "FLUCTUATING COURSE", "MHIS-NACC", "", "ABSENT", "", "0", 0, "", "", "", "", "", 1.0, "SCREENING 1", -7, "TREATMENT", "2013-09-15", -8]
["CDISCPILOT01", "QS", "01-701-1415", 1004, "MHITM04", "NOCTURNAL CONFUSION", "MHIS-NACC", "", "ABSENT", "", "0", 0, "", "", "", "", "", 1.0, "SCREENING 1", -7, "TREATMENT", "2013-09-15", -8]
["CDISCPILOT01", "QS", "01-701-1415", 1005, "MHITM05", "RELATIVE PRESERVATION OF PERSONALITY", "MHIS-NACC", "", "ABSENT", "", "0", 0, "", "", "", "", "", 1.0, "SCREENING 1", -7, "TREATMENT", "2013-09-15", -8]
["CDISCPILOT01", "QS", "01-701-1415", 1006, "MHITM06", "DEPRESSION", "MHIS-NACC", "", "ABSENT", "", "0", 0, "", "", "", "", "", 1.0, "SCREENING 1", -7, "TREATMENT", "2013-09-15", -8]
["CDISCPILOT01", "QS", "01-701-1415", 1007, "MHITM07", "SOMATIC COMPLAINTS", "MHIS-NACC", "", "PRESENT", "", "1", 1, "", "", "", "", "", 1.0, "SCREENING 1", -7, "TREATMENT", "2013-09-15", -8]
["CDISCPILOT01", "QS", "01-701-1415", 1008, "MHITM08", "EMOTIONAL INCONTINENCE", "MHIS-NACC", "", "ABSENT", "", "0", 0, "", "", "", "", "", 1.0, "SCREENING 1", -7, "TREATMENT", "2013-09-15", -8]
["CDISCPILOT01", "QS", "01-701-1415", 1009, "MHITM09", "HISTORY OF HYPERTENSION", "MHIS-NACC", "", "ABSENT", "", "0", 0, "", "", "", "", "", 1.0, "SCREENING 1", -7, "TREATMENT", "2013-09-15", -8]
["CDISCPILOT01", "QS", "01-701-1415", 1010, "MHITM10", "HISTORY OF STROKES", "MHIS-NACC", "", "ABSENT", "", "0", 0, "", "", "", "", "", 1.0, "SCREENING 1", -7, "TREATMENT", "2013-09-15", -8]
["CDISCPILOT01", "QS", "01-701-1415", 1011, "MHITM11", "EVIDENCE OF ASSOCIATED ATHEROSCLEROSIS", "MHIS-NACC", "", "ABSENT", "", "0", 0, "", "", "", "", "", 1.0, "SCREENING 1", -7, "TREATMENT", "2013-09-15", -8]
["CDISCPILOT01", "QS", "01-701-1415", 1012, "MHITM12", "FOCAL NEUROLOGICAL SYMPTOMS", "MHIS-NACC", "", "ABSENT", "", "0", 0, "", "", "", "", "", 1.0, "SCREENING 1", -7, "TREATMENT", "2013-09-15", -8]
["CDISCPILOT01", "QS", "01-701-1415", 1013, "MHITM13", "FOCAL NEUROLOGICAL SIGNS", "MHIS-NACC", "", "ABSENT", "", "0", 0, "", "", "", "", "", 1.0, "SCREENING 1", -7, "TREATMENT", "2013-09-15", -8]
["CDISCPILOT01", "QS", "01-701-1429", 1001, "MHITM01", "ABRUPT ONSET", "MHIS-NACC", "", "ABSENT", "", "0", 0, "", "", "", "", "", 1.0, "SCREENING 1", -7, "TREATMENT", "2013-02-25", -22]
["CDISCPILOT01", "QS", "01-701-1429", 1002, "MHITM02", "STEPWISE DETERIORATION", "MHIS-NACC", "", "ABSENT", "", "0", 0, "", "", "", "", "", 1.0, "SCREENING 1", -7, "TREATMENT", "2013-02-25", -22]
["CDISCPILOT01", "QS", "01-701-1429", 1003, "MHITM03", "FLUCTUATING COURSE", "MHIS-NACC", "", "ABSENT", "", "0", 0, "", "", "", "", "", 1.0, "SCREENING 1", -7, "TREATMENT", "2013-02-25", -22]
["CDISCPILOT01", "QS", "01-701-1429", 1004, "MHITM04", "NOCTURNAL CONFUSION", "MHIS-NACC", "", "ABSENT", "", "0", 0, "", "", "", "", "", 1.0, "SCREENING 1", -7, "TREATMENT", "2013-02-25", -22]
["CDISCPILOT01", "QS", "01-701-1429", 1005, "MHITM05", "RELATIVE PRESERVATION OF PERSONALITY", "MHIS-NACC", "", "ABSENT", "", "0", 0, "", "", "", "", "", 1.0, "SCREENING 1", -7, "TREATMENT", "2013-02-25", -22]
["CDISCPILOT01", "QS", "01-701-1429", 1006, "MHITM06", "DEPRESSION", "MHIS-NACC", "", "ABSENT", "", "0", 0, "", "", "", "", "", 1.0, "SCREENING 1", -7, "TREATMENT", "2013-02-25", -22]
["CDISCPILOT01", "QS", "01-701-1429", 1007, "MHITM07", "SOMATIC COMPLAINTS", "MHIS-NACC", "", "PRESENT", "", "1", 1, "", "", "", "", "", 1.0, "SCREENING 1", -7, "TREATMENT", "2013-02-25", -22]
["CDISCPILOT01", "QS", "01-701-1429", 1008, "MHITM08", "EMOTIONAL INCONTINENCE", "MHIS-NACC", "", "ABSENT", "", "0", 0, "", "", "", "", "", 1.0, "SCREENING 1", -7, "TREATMENT", "2013-02-25", -22]
["CDISCPILOT01", "QS", "01-701-1429", 1009, "MHITM09", "HISTORY OF HYPERTENSION", "MHIS-NACC", "", "ABSENT", "", "0", 0, "", "", "", "", "", 1.0, "SCREENING 1", -7, "TREATMENT", "2013-02-25", -22]
["CDISCPILOT01", "QS", "01-701-1429", 1010, "MHITM10", "HISTORY OF STROKES", "MHIS-NACC", "", "ABSENT", "", "0", 0, "", "", "", "", "", 1.0, "SCREENING 1", -7, "TREATMENT", "2013-02-25", -22]
["CDISCPILOT01", "QS", "01-701-1429", 1011, "MHITM11", "EVIDENCE OF ASSOCIATED ATHEROSCLEROSIS", "MHIS-NACC", "", "ABSENT", "", "0", 0, "", "", "", "", "", 1.0, "SCREENING 1", -7, "TREATMENT", "2013-02-25", -22]
["CDISCPILOT01", "QS", "01-701-1429", 1012, "MHITM12", "FOCAL NEUROLOGICAL SYMPTOMS", "MHIS-NACC", "", "ABSENT", "", "0", 0, "", "", "", "", "", 1.0, "SCREENING 1", -7, "TREATMENT", "2013-02-25", -22]
["CDISCPILOT01", "QS", "01-701-1429", 1013, "MHITM13", "FOCAL NEUROLOGICAL SIGNS", "MHIS-NACC", "", "ABSENT", "", "0", 0, "", "", "", "", "", 1.0, "SCREENING 1", -7, "TREATMENT", "2013-02-25", -22]
["CDISCPILOT01", "QS", "01-701-1440", 1001, "MHITM01", "ABRUPT ONSET", "MHIS-NACC", "", "ABSENT", "", "0", 0, "", "", "", "", "", 1.0, "SCREENING 1", -7, "TREATMENT", "2013-07-24", -15]
["CDISCPILOT01", "QS", "01-701-1440", 1002, "MHITM02", "STEPWISE DETERIORATION", "MHIS-NACC", "", "ABSENT", "", "0", 0, "", "", "", "", "", 1.0, "SCREENING 1", -7, "TREATMENT", "2013-07-24", -15]
["CDISCPILOT01", "QS", "01-701-1440", 1003, "MHITM03", "FLUCTUATING COURSE", "MHIS-NACC", "", "ABSENT", "", "0", 0, "", "", "", "", "", 1.0, "SCREENING 1", -7, "TREATMENT", "2013-07-24", -15]
["CDISCPILOT01", "QS", "01-701-1440", 1004, "MHITM04", "NOCTURNAL CONFUSION", "MHIS-NACC", "", "ABSENT", "", "0", 0, "", "", "", "", "", 1.0, "SCREENING 1", -7, "TREATMENT", "2013-07-24", -15]
["CDISCPILOT01", "QS", "01-701-1440", 1005, "MHITM05", "RELATIVE PRESERVATION OF PERSONALITY", "MHIS-NACC", "", "ABSENT", "", "0", 0, "", "", "", "", "", 1.0, "SCREENING 1", -7, "TREATMENT", "2013-07-24", -15]
["CDISCPILOT01", "QS", "01-701-1440", 1006, "MHITM06", "DEPRESSION", "MHIS-NACC", "", "ABSENT", "", "0", 0, "", "", "", "", "", 1.0, "SCREENING 1", -7, "TREATMENT", "2013-07-24", -15]
["CDISCPILOT01", "QS", "01-701-1440", 1007, "MHITM07", "SOMATIC COMPLAINTS", "MHIS-NACC", "", "ABSENT", "", "0", 0, "", "", "", "", "", 1.0, "SCREENING 1", -7, "TREATMENT", "2013-07-24", -15]
["CDISCPILOT01", "QS", "01-701-1440", 1008, "MHITM08", "EMOTIONAL INCONTINENCE", "MHIS-NACC", "", "ABSENT", "", "0", 0, "", "", "", "", "", 1.0, "SCREENING 1", -7, "TREATMENT", "2013-07-24", -15]
["CDISCPILOT01", "QS", "01-701-1440", 1009, "MHITM09", "HISTORY OF HYPERTENSION", "MHIS-NACC", "", "ABSENT", "", "0", 0, "", "", "", "", "", 1.0, "SCREENING 1", -7, "TREATMENT", "2013-07-24", -15]
["CDISCPILOT01", "QS", "01-701-1440", 1010, "MHITM10", "HISTORY OF STROKES", "MHIS-NACC", "", "ABSENT", "", "0", 0, "", "", "", "", "", 1.0, "SCREENING 1", -7, "TREATMENT", "2013-07-24", -15]
["CDISCPILOT01", "QS", "01-701-1440", 1011, "MHITM11", "EVIDENCE OF ASSOCIATED ATHEROSCLEROSIS", "MHIS-NACC", "", "ABSENT", "", "0", 0, "", "", "", "", "", 1.0, "SCREENING 1", -7, "TREATMENT", "2013-07-24", -15]
["CDISCPILOT01", "QS", "01-701-1440", 1012, "MHITM12", "FOCAL NEUROLOGICAL SYMPTOMS", "MHIS-NACC", "", "ABSENT", "", "0", 0, "", "", "", "", "", 1.0, "SCREENING 1", -7, "TREATMENT", "2013-07-24", -15]
["CDISCPILOT01", "QS", "01-701-1440", 1013, "MHITM13", "FOCAL NEUROLOGICAL SIGNS", "MHIS-NACC", "", "ABSENT", "", "0", 0, "", "", "", "", "", 1.0, "SCREENING 1", -7, "TREATMENT", "2013-07-24", -15]
["CDISCPILOT01", "QS", "01-701-1442", 1001, "MHITM01", "ABRUPT ONSET", "MHIS-NACC", "", "ABSENT", "", "0", 0, "", "", "", "", "", 1.0, "SCREENING 1", -7, "TREATMENT", "2013-10-17", -9]
["CDISCPILOT01", "QS", "01-701-1442", 1002, "MHITM02", "STEPWISE DETERIORATION", "MHIS-NACC", "", "ABSENT", "", "0", 0, "", "", "", "", "", 1.0, "SCREENING 1", -7, "TREATMENT", "2013-10-17", -9]
["CDISCPILOT01", "QS", "01-701-1442", 1003, "MHITM03", "FLUCTUATING COURSE", "MHIS-NACC", "", "ABSENT", "", "0", 0, "", "", "", "", "", 1.0, "SCREENING 1", -7, "TREATMENT", "2013-10-17", -9]
["CDISCPILOT01", "QS", "01-701-1442", 1004, "MHITM04", "NOCTURNAL CONFUSION", "MHIS-NACC", "", "ABSENT", "", "0", 0, "", "", "", "", "", 1.0, "SCREENING 1", -7, "TREATMENT", "2013-10-17", -9]
["CDISCPILOT01", "QS", "01-701-1442", 1005, "MHITM05", "RELATIVE PRESERVATION OF PERSONALITY", "MHIS-NACC", "", "ABSENT", "", "0", 0, "", "", "", "", "", 1.0, "SCREENING 1", -7, "TREATMENT", "2013-10-17", -9]
["CDISCPILOT01", "QS", "01-701-1442", 1006, "MHITM06", "DEPRESSION", "MHIS-NACC", "", "ABSENT", "", "0", 0, "", "", "", "", "", 1.0, "SCREENING 1", -7, "TREATMENT", "2013-10-17", -9]
["CDISCPILOT01", "QS", "01-701-1442", 1007, "MHITM07", "SOMATIC COMPLAINTS", "MHIS-NACC", "", "PRESENT", "", "1", 1, "", "", "", "", "", 1.0, "SCREENING 1", -7, "TREATMENT", "2013-10-17", -9]
["CDISCPILOT01", "QS", "01-701-1442", 1008, "MHITM08", "EMOTIONAL INCONTINENCE", "MHIS-NACC", "", "ABSENT", "", "0", 0, "", "", "", "", "", 1.0, "SCREENING 1", -7, "TREATMENT", "2013-10-17", -9]
["CDISCPILOT01", "QS", "01-701-1442", 1009, "MHITM09", "HISTORY OF HYPERTENSION", "MHIS-NACC", "", "ABSENT", "", "0", 0, "", "", "", "", "", 1.0, "SCREENING 1", -7, "TREATMENT", "2013-10-17", -9]
["CDISCPILOT01", "QS", "01-701-1442", 1010, "MHITM10", "HISTORY OF STROKES", "MHIS-NACC", "", "ABSENT", "", "0", 0, "", "", "", "", "", 1.0, "SCREENING 1", -7, "TREATMENT", "2013-10-17", -9]
["CDISCPILOT01", "QS", "01-701-1442", 1011, "MHITM11", "EVIDENCE OF ASSOCIATED ATHEROSCLEROSIS", "MHIS-NACC", "", "ABSENT", "", "0", 0, "", "", "", "", "", 1.0, "SCREENING 1", -7, "TREATMENT", "2013-10-17", -9]
["CDISCPILOT01", "QS", "01-701-1442", 1012, "MHITM12", "FOCAL NEUROLOGICAL SYMPTOMS", "MHIS-NACC", "", "ABSENT", "", "0", 0, "", "", "", "", "", 1.0, "SCREENING 1", -7, "TREATMENT", "2013-10-17", -9]
["CDISCPILOT01", "QS", "01-701-1442", 1013, "MHITM13", "FOCAL NEUROLOGICAL SIGNS", "MHIS-NACC", "", "ABSENT", "", "0", 0, "", "", "", "", "", 1.0, "SCREENING 1", -7, "TREATMENT", "2013-10-17", -9]
["CDISCPILOT01", "QS", "01-701-1444", 1001, "MHITM01", "ABRUPT ONSET", "MHIS-NACC", "", "ABSENT", "", "0", 0, "", "", "", "", "", 1.0, "SCREENING 1", -7, "TREATMENT", "2012-12-31", -5]
["CDISCPILOT01", "QS", "01-701-1444", 1002, "MHITM02", "STEPWISE DETERIORATION", "MHIS-NACC", "", "ABSENT", "", "0", 0, "", "", "", "", "", 1.0, "SCREENING 1", -7, "TREATMENT", "2012-12-31", -5]
["CDISCPILOT01", "QS", "01-701-1444", 1003, "MHITM03", "FLUCTUATING COURSE", "MHIS-NACC", "", "ABSENT", "", "0", 0, "", "", "", "", "", 1.0, "SCREENING 1", -7, "TREATMENT", "2012-12-31", -5]
["CDISCPILOT01", "QS", "01-701-1444", 1004, "MHITM04", "NOCTURNAL CONFUSION", "MHIS-NACC", "", "ABSENT", "", "0", 0, "", "", "", "", "", 1.0, "SCREENING 1", -7, "TREATMENT", "2012-12-31", -5]
["CDISCPILOT01", "QS", "01-701-1444", 1005, "MHITM05", "RELATIVE PRESERVATION OF PERSONALITY", "MHIS-NACC", "", "ABSENT", "", "0", 0, "", "", "", "", "", 1.0, "SCREENING 1", -7, "TREATMENT", "2012-12-31", -5]
["CDISCPILOT01", "QS", "01-701-1444", 1006, "MHITM06", "DEPRESSION", "MHIS-NACC", "", "ABSENT", "", "0", 0, "", "", "", "", "", 1.0, "SCREENING 1", -7, "TREATMENT", "2012-12-31", -5]
["CDISCPILOT01", "QS", "01-701-1444", 1007, "MHITM07", "SOMATIC COMPLAINTS", "MHIS-NACC", "", "PRESENT", "", "1", 1, "", "", "", "", "", 1.0, "SCREENING 1", -7, "TREATMENT", "2012-12-31", -5]
["CDISCPILOT01", "QS", "01-701-1444", 1008, "MHITM08", "EMOTIONAL INCONTINENCE", "MHIS-NACC", "", "ABSENT", "", "0", 0, "", "", "", "", "", 1.0, "SCREENING 1", -7, "TREATMENT", "2012-12-31", -5]
["CDISCPILOT01", "QS", "01-701-1444", 1009, "MHITM09", "HISTORY OF HYPERTENSION", "MHIS-NACC", "", "ABSENT", "", "0", 0, "", "", "", "", "", 1.0, "SCREENING 1", -7, "TREATMENT", "2012-12-31", -5]
["CDISCPILOT01", "QS", "01-701-1444", 1010, "MHITM10", "HISTORY OF STROKES", "MHIS-NACC", "", "ABSENT", "", "0", 0, "", "", "", "", "", 1.0, "SCREENING 1", -7, "TREATMENT", "2012-12-31", -5]
["CDISCPILOT01", "QS", "01-701-1444", 1011, "MHITM11", "EVIDENCE OF ASSOCIATED ATHEROSCLEROSIS", "MHIS-NACC", "", "ABSENT", "", "0", 0, "", "", "", "", "", 1.0, "SCREENING 1", -7, "TREATMENT", "2012-12-31", -5]
["CDISCPILOT01", "QS", "01-701-1444", 1012, "MHITM12", "FOCAL NEUROLOGICAL SYMPTOMS", "MHIS-NACC", "", "ABSENT", "", "0", 0, "", "", "", "", "", 1.0, "SCREENING 1", -7, "TREATMENT", "2012-12-31", -5]
["CDISCPILOT01", "QS", "01-701-1444", 1013, "MHITM13", "FOCAL NEUROLOGICAL SIGNS", "MHIS-NACC", "", "ABSENT", "", "0", 0, "", "", "", "", "", 1.0, "SCREENING 1", -7, "TREATMENT", "2012-12-31", -5]
["CDISCPILOT01", "QS", "01-702-1082", 1001, "MHITM01", "ABRUPT ONSET", "MHIS-NACC", "", "ABSENT", "", "0", 0, "", "", "", "", "", 1.0, "SCREENING 1", -7, "TREATMENT", "2013-07-03", -23]
["CDISCPILOT01", "QS", "01-702-1082", 1002, "MHITM02", "STEPWISE DETERIORATION", "MHIS-NACC", "", "ABSENT", "", "0", 0, "", "", "", "", "", 1.0, "SCREENING 1", -7, "TREATMENT", "2013-07-03", -23]
["CDISCPILOT01", "QS", "01-702-1082", 1003, "MHITM03", "FLUCTUATING COURSE", "MHIS-NACC", "", "ABSENT", "", "0", 0, "", "", "", "", "", 1.0, "SCREENING 1", -7, "TREATMENT", "2013-07-03", -23]
["CDISCPILOT01", "QS", "01-702-1082", 1004, "MHITM04", "NOCTURNAL CONFUSION", "MHIS-NACC", "", "ABSENT", "", "0", 0, "", "", "", "", "", 1.0, "SCREENING 1", -7, "TREATMENT", "2013-07-03", -23]
["CDISCPILOT01", "QS", "01-702-1082", 1005, "MHITM05", "RELATIVE PRESERVATION OF PERSONALITY", "MHIS-NACC", "", "ABSENT", "", "0", 0, "", "", "", "", "", 1.0, "SCREENING 1", -7, "TREATMENT", "2013-07-03", -23]
["CDISCPILOT01", "QS", "01-702-1082", 1006, "MHITM06", "DEPRESSION", "MHIS-NACC", "", "ABSENT", "", "0", 0, "", "", "", "", "", 1.0, "SCREENING 1", -7, "TREATMENT", "2013-07-03", -23]
["CDISCPILOT01", "QS", "01-702-1082", 1007, "MHITM07", "SOMATIC COMPLAINTS", "MHIS-NACC", "", "ABSENT", "", "0", 0, "", "", "", "", "", 1.0, "SCREENING 1", -7, "TREATMENT", "2013-07-03", -23]
["CDISCPILOT01", "QS", "01-702-1082", 1008, "MHITM08", "EMOTIONAL INCONTINENCE", "MHIS-NACC", "", "ABSENT", "", "0", 0, "", "", "", "", "", 1.0, "SCREENING 1", -7, "TREATMENT", "2013-07-03", -23]
["CDISCPILOT01", "QS", "01-702-1082", 1009, "MHITM09", "HISTORY OF HYPERTENSION", "MHIS-NACC", "", "ABSENT", "", "0", 0, "", "", "", "", "", 1.0, "SCREENING 1", -7, "TREATMENT", "2013-07-03", -23]
["CDISCPILOT01", "QS", "01-702-1082", 1010, "MHITM10", "HISTORY OF STROKES", "MHIS-NACC", "", "ABSENT", "", "0", 0, "", "", "", "", "", 1.0, "SCREENING 1", -7, "TREATMENT", "2013-07-03", -23]
["CDISCPILOT01", "QS", "01-702-1082", 1011, "MHITM11", "EVIDENCE OF ASSOCIATED ATHEROSCLEROSIS", "MHIS-NACC", "", "ABSENT", "", "0", 0, "", "", "", "", "", 1.0, "SCREENING 1", -7, "TREATMENT", "2013-07-03", -23]
["CDISCPILOT01", "QS", "01-702-1082", 1012, "MHITM12", "FOCAL NEUROLOGICAL SYMPTOMS", "MHIS-NACC", "", "ABSENT", "", "0", 0, "", "", "", "", "", 1.0, "SCREENING 1", -7, "TREATMENT", "2013-07-03", -23]
["CDISCPILOT01", "QS", "01-702-1082", 1013, "MHITM13", "FOCAL NEUROLOGICAL SIGNS", "MHIS-NACC", "", "ABSENT", "", "0", 0, "", "", "", "", "", 1.0, "SCREENING 1", -7, "TREATMENT", "2013-07-03", -23]
["CDISCPILOT01", "QS", "01-703-1042", 1001, "MHITM01", "ABRUPT ONSET", "MHIS-NACC", "", "ABSENT", "", "0", 0, "", "", "", "", "", 1.0, "SCREENING 1", -7, "TREATMENT", "2013-02-23", -7]
["CDISCPILOT01", "QS", "01-703-1042", 1002, "MHITM02", "STEPWISE DETERIORATION", "MHIS-NACC", "", "ABSENT", "", "0", 0, "", "", "", "", "", 1.0, "SCREENING 1", -7, "TREATMENT", "2013-02-23", -7]
["CDISCPILOT01", "QS", "01-703-1042", 1003, "MHITM03", "FLUCTUATING COURSE", "MHIS-NACC", "", "ABSENT", "", "0", 0, "", "", "", "", "", 1.0, "SCREENING 1", -7, "TREATMENT", "2013-02-23", -7]
["CDISCPILOT01", "QS", "01-703-1042", 1004, "MHITM04", "NOCTURNAL CONFUSION", "MHIS-NACC", "", "ABSENT", "", "0", 0, "", "", "", "", "", 1.0, "SCREENING 1", -7, "TREATMENT", "2013-02-23", -7]
["CDISCPILOT01", "QS", "01-703-1042", 1005, "MHITM05", "RELATIVE PRESERVATION OF PERSONALITY", "MHIS-NACC", "", "ABSENT", "", "0", 0, "", "", "", "", "", 1.0, "SCREENING 1", -7, "TREATMENT", "2013-02-23", -7]
["CDISCPILOT01", "QS", "01-703-1042", 1006, "MHITM06", "DEPRESSION", "MHIS-NACC", "", "ABSENT", "", "0", 0, "", "", "", "", "", 1.0, "SCREENING 1", -7, "TREATMENT", "2013-02-23", -7]
["CDISCPILOT01", "QS", "01-703-1042", 1007, "MHITM07", "SOMATIC COMPLAINTS", "MHIS-NACC", "", "ABSENT", "", "0", 0, "", "", "", "", "", 1.0, "SCREENING 1", -7, "TREATMENT", "2013-02-23", -7]
["CDISCPILOT01", "QS", "01-703-1042", 1008, "MHITM08", "EMOTIONAL INCONTINENCE", "MHIS-NACC", "", "ABSENT", "", "0", 0, "", "", "", "", "", 1.0, "SCREENING 1", -7, "TREATMENT", "2013-02-23", -7]
["CDISCPILOT01", "QS", "01-703-1042", 1009, "MHITM09", "HISTORY OF HYPERTENSION", "MHIS-NACC", "", "ABSENT", "", "0", 0, "", "", "", "", "", 1.0, "SCREENING 1", -7, "TREATMENT", "2013-02-23", -7]
["CDISCPILOT01", "QS", "01-703-1042", 1010, "MHITM10", "HISTORY OF STROKES", "MHIS-NACC", "", "ABSENT", "", "0", 0, "", "", "", "", "", 1.0, "SCREENING 1", -7, "TREATMENT", "2013-02-23", -7]
["CDISCPILOT01", "QS", "01-703-1042", 1011, "MHITM11", "EVIDENCE OF ASSOCIATED ATHEROSCLEROSIS", "MHIS-NACC", "", "PRESENT", "", "1", 1, "", "", "", "", "", 1.0, "SCREENING 1", -7, "TREATMENT", "2013-02-23", -7]
["CDISCPILOT01", "QS", "01-703-1042", 1012, "MHITM12", "FOCAL NEUROLOGICAL SYMPTOMS", "MHIS-NACC", "", "ABSENT", "", "0", 0, "", "", "", "", "", 1.0, "SCREENING 1", -7, "TREATMENT", "2013-02-23", -7]
["CDISCPILOT01", "QS", "01-703-1042", 1013, "MHITM13", "FOCAL NEUROLOGICAL SIGNS", "MHIS-NACC", "", "ABSENT", "", "0", 0, "", "", "", "", "", 1.0, "SCREENING 1", -7, "TREATMENT", "2013-02-23", -7]
["CDISCPILOT01", "QS", "01-703-1076", 1001, "MHITM01", "ABRUPT ONSET", "MHIS-NACC", "", "ABSENT", "", "0", 0, "", "", "", "", "", 1.0, "SCREENING 1", -7, "TREATMENT", "2013-10-17", -8]
["CDISCPILOT01", "QS", "01-703-1076", 1002, "MHITM02", "STEPWISE DETERIORATION", "MHIS-NACC", "", "ABSENT", "", "0", 0, "", "", "", "", "", 1.0, "SCREENING 1", -7, "TREATMENT", "2013-10-17", -8]
["CDISCPILOT01", "QS", "01-703-1076", 1003, "MHITM03", "FLUCTUATING COURSE", "MHIS-NACC", "", "ABSENT", "", "0", 0, "", "", "", "", "", 1.0, "SCREENING 1", -7, "TREATMENT", "2013-10-17", -8]
["CDISCPILOT01", "QS", "01-703-1076", 1004, "MHITM04", "NOCTURNAL CONFUSION", "MHIS-NACC", "", "ABSENT", "", "0", 0, "", "", "", "", "", 1.0, "SCREENING 1", -7, "TREATMENT", "2013-10-17", -8]
["CDISCPILOT01", "QS", "01-703-1076", 1005, "MHITM05", "RELATIVE PRESERVATION OF PERSONALITY", "MHIS-NACC", "", "ABSENT", "", "0", 0, "", "", "", "", "", 1.0, "SCREENING 1", -7, "TREATMENT", "2013-10-17", -8]
["CDISCPILOT01", "QS", "01-703-1076", 1006, "MHITM06", "DEPRESSION", "MHIS-NACC", "", "ABSENT", "", "0", 0, "", "", "", "", "", 1.0, "SCREENING 1", -7, "TREATMENT", "2013-10-17", -8]
["CDISCPILOT01", "QS", "01-703-1076", 1007, "MHITM07", "SOMATIC COMPLAINTS", "MHIS-NACC", "", "ABSENT", "", "0", 0, "", "", "", "", "", 1.0, "SCREENING 1", -7, "TREATMENT", "2013-10-17", -8]
["CDISCPILOT01", "QS", "01-703-1076", 1008, "MHITM08", "EMOTIONAL INCONTINENCE", "MHIS-NACC", "", "ABSENT", "", "0", 0, "", "", "", "", "", 1.0, "SCREENING 1", -7, "TREATMENT", "2013-10-17", -8]
["CDISCPILOT01", "QS", "01-703-1076", 1009, "MHITM09", "HISTORY OF HYPERTENSION", "MHIS-NACC", "", "PRESENT", "", "1", 1, "", "", "", "", "", 1.0, "SCREENING 1", -7, "TREATMENT", "2013-10-17", -8]
["CDISCPILOT01", "QS", "01-703-1076", 1010, "MHITM10", "HISTORY OF STROKES", "MHIS-NACC", "", "ABSENT", "", "0", 0, "", "", "", "", "", 1.0, "SCREENING 1", -7, "TREATMENT", "2013-10-17", -8]
["CDISCPILOT01", "QS", "01-703-1076", 1011, "MHITM11", "EVIDENCE OF ASSOCIATED ATHEROSCLEROSIS", "MHIS-NACC", "", "ABSENT", "", "0", 0, "", "", "", "", "", 1.0, "SCREENING 1", -7, "TREATMENT", "2013-10-17", -8]
["CDISCPILOT01", "QS", "01-703-1076", 1012, "MHITM12", "FOCAL NEUROLOGICAL SYMPTOMS", "MHIS-NACC", "", "ABSENT", "", "0", 0, "", "", "", "", "", 1.0, "SCREENING 1", -7, "TREATMENT", "2013-10-17", -8]
["CDISCPILOT01", "QS", "01-703-1076", 1013, "MHITM13", "FOCAL NEUROLOGICAL SIGNS", "MHIS-NACC", "", "ABSENT", "", "0", 0, "", "", "", "", "", 1.0, "SCREENING 1", -7, "TREATMENT", "2013-10-17", -8]
["CDISCPILOT01", "QS", "01-703-1086", 1001, "MHITM01", "ABRUPT ONSET", "MHIS-NACC", "", "ABSENT", "", "0", 0, "", "", "", "", "", 1.0, "SCREENING 1", -7, "TREATMENT", "2012-08-22", -11]
["CDISCPILOT01", "QS", "01-703-1086", 1002, "MHITM02", "STEPWISE DETERIORATION", "MHIS-NACC", "", "ABSENT", "", "0", 0, "", "", "", "", "", 1.0, "SCREENING 1", -7, "TREATMENT", "2012-08-22", -11]
["CDISCPILOT01", "QS", "01-703-1086", 1003, "MHITM03", "FLUCTUATING COURSE", "MHIS-NACC", "", "ABSENT", "", "0", 0, "", "", "", "", "", 1.0, "SCREENING 1", -7, "TREATMENT", "2012-08-22", -11]
["CDISCPILOT01", "QS", "01-703-1086", 1004, "MHITM04", "NOCTURNAL CONFUSION", "MHIS-NACC", "", "ABSENT", "", "0", 0, "", "", "", "", "", 1.0, "SCREENING 1", -7, "TREATMENT", "2012-08-22", -11]
["CDISCPILOT01", "QS", "01-703-1086", 1005, "MHITM05", "RELATIVE PRESERVATION OF PERSONALITY", "MHIS-NACC", "", "PRESENT", "", "1", 1, "", "", "", "", "", 1.0, "SCREENING 1", -7, "TREATMENT", "2012-08-22", -11]
["CDISCPILOT01", "QS", "01-703-1086", 1006, "MHITM06", "DEPRESSION", "MHIS-NACC", "", "ABSENT", "", "0", 0, "", "", "", "", "", 1.0, "SCREENING 1", -7, "TREATMENT", "2012-08-22", -11]
["CDISCPILOT01", "QS", "01-703-1086", 1007, "MHITM07", "SOMATIC COMPLAINTS", "MHIS-NACC", "", "ABSENT", "", "0", 0, "", "", "", "", "", 1.0, "SCREENING 1", -7, "TREATMENT", "2012-08-22", -11]
["CDISCPILOT01", "QS", "01-703-1086", 1008, "MHITM08", "EMOTIONAL INCONTINENCE", "MHIS-NACC", "", "ABSENT", "", "0", 0, "", "", "", "", "", 1.0, "SCREENING 1", -7, "TREATMENT", "2012-08-22", -11]
["CDISCPILOT01", "QS", "01-703-1086", 1009, "MHITM09", "HISTORY OF HYPERTENSION", "MHIS-NACC", "", "ABSENT", "", "0", 0, "", "", "", "", "", 1.0, "SCREENING 1", -7, "TREATMENT", "2012-08-22", -11]
["CDISCPILOT01", "QS", "01-703-1086", 1010, "MHITM10", "HISTORY OF STROKES", "MHIS-NACC", "", "ABSENT", "", "0", 0, "", "", "", "", "", 1.0, "SCREENING 1", -7, "TREATMENT", "2012-08-22", -11]
["CDISCPILOT01", "QS", "01-703-1086", 1011, "MHITM11", "EVIDENCE OF ASSOCIATED ATHEROSCLEROSIS", "MHIS-NACC", "", "ABSENT", "", "0", 0, "", "", "", "", "", 1.0, "SCREENING 1", -7, "TREATMENT", "2012-08-22", -11]
["CDISCPILOT01", "QS", "01-703-1086", 1012, "MHITM12", "FOCAL NEUROLOGICAL SYMPTOMS", "MHIS-NACC", "", "ABSENT", "", "0", 0, "", "", "", "", "", 1.0, "SCREENING 1", -7, "TREATMENT", "2012-08-22", -11]
["CDISCPILOT01", "QS", "01-703-1086", 1013, "MHITM13", "FOCAL NEUROLOGICAL SIGNS", "MHIS-NACC", "", "ABSENT", "", "0", 0, "", "", "", "", "", 1.0, "SCREENING 1", -7, "TREATMENT", "2012-08-22", -11]
["CDISCPILOT01", "QS", "01-703-1096", 1001, "MHITM01", "ABRUPT ONSET", "MHIS-NACC", "", "ABSENT", "", "0", 0, "", "", "", "", "", 1.0, "SCREENING 1", -7, "TREATMENT", "2012-12-19", -37]
["CDISCPILOT01", "QS", "01-703-1096", 1002, "MHITM02", "STEPWISE DETERIORATION", "MHIS-NACC", "", "ABSENT", "", "0", 0, "", "", "", "", "", 1.0, "SCREENING 1", -7, "TREATMENT", "2012-12-19", -37]
["CDISCPILOT01", "QS", "01-703-1096", 1003, "MHITM03", "FLUCTUATING COURSE", "MHIS-NACC", "", "ABSENT", "", "0", 0, "", "", "", "", "", 1.0, "SCREENING 1", -7, "TREATMENT", "2012-12-19", -37]
["CDISCPILOT01", "QS", "01-703-1096", 1004, "MHITM04", "NOCTURNAL CONFUSION", "MHIS-NACC", "", "ABSENT", "", "0", 0, "", "", "", "", "", 1.0, "SCREENING 1", -7, "TREATMENT", "2012-12-19", -37]
["CDISCPILOT01", "QS", "01-703-1096", 1005, "MHITM05", "RELATIVE PRESERVATION OF PERSONALITY", "MHIS-NACC", "", "ABSENT", "", "0", 0, "", "", "", "", "", 1.0, "SCREENING 1", -7, "TREATMENT", "2012-12-19", -37]
["CDISCPILOT01", "QS", "01-703-1096", 1006, "MHITM06", "DEPRESSION", "MHIS-NACC", "", "ABSENT", "", "0", 0, "", "", "", "", "", 1.0, "SCREENING 1", -7, "TREATMENT", "2012-12-19", -37]
["CDISCPILOT01", "QS", "01-703-1096", 1007, "MHITM07", "SOMATIC COMPLAINTS", "MHIS-NACC", "", "ABSENT", "", "0", 0, "", "", "", "", "", 1.0, "SCREENING 1", -7, "TREATMENT", "2012-12-19", -37]
["CDISCPILOT01", "QS", "01-703-1096", 1008, "MHITM08", "EMOTIONAL INCONTINENCE", "MHIS-NACC", "", "ABSENT", "", "0", 0, "", "", "", "", "", 1.0, "SCREENING 1", -7, "TREATMENT", "2012-12-19", -37]
["CDISCPILOT01", "QS", "01-703-1096", 1009, "MHITM09", "HISTORY OF HYPERTENSION", "MHIS-NACC", "", "ABSENT", "", "0", 0, "", "", "", "", "", 1.0, "SCREENING 1", -7, "TREATMENT", "2012-12-19", -37]
["CDISCPILOT01", "QS", "01-703-1096", 1010, "MHITM10", "HISTORY OF STROKES", "MHIS-NACC", "", "ABSENT", "", "0", 0, "", "", "", "", "", 1.0, "SCREENING 1", -7, "TREATMENT", "2012-12-19", -37]
["CDISCPILOT01", "QS", "01-703-1096", 1011, "MHITM11", "EVIDENCE OF ASSOCIATED ATHEROSCLEROSIS", "MHIS-NACC", "", "ABSENT", "", "0", 0, "", "", "", "", "", 1.0, "SCREENING 1", -7, "TREATMENT", "2012-12-19", -37]
["CDISCPILOT01", "QS", "01-703-1096", 1012, "MHITM12", "FOCAL NEUROLOGICAL SYMPTOMS", "MHIS-NACC", "", "ABSENT", "", "0", 0, "", "", "", "", "", 1.0, "SCREENING 1", -7, "TREATMENT", "2012-12-19", -37]
["CDISCPILOT01", "QS", "01-703-1096", 1013, "MHITM13", "FOCAL NEUROLOGICAL SIGNS", "MHIS-NACC", "", "ABSENT", "", "0", 0, "", "", "", "", "", 1.0, "SCREENING 1", -7, "TREATMENT", "2012-12-19", -37]
["CDISCPILOT01", "QS", "01-703-1100", 1001, "MHITM01", "ABRUPT ONSET", "MHIS-NACC", "", "ABSENT", "", "0", 0, "", "", "", "", "", 1.0, "SCREENING 1", -7, "TREATMENT", "2013-02-28", -13]
["CDISCPILOT01", "QS", "01-703-1100", 1002, "MHITM02", "STEPWISE DETERIORATION", "MHIS-NACC", "", "ABSENT", "", "0", 0, "", "", "", "", "", 1.0, "SCREENING 1", -7, "TREATMENT", "2013-02-28", -13]
["CDISCPILOT01", "QS", "01-703-1100", 1003, "MHITM03", "FLUCTUATING COURSE", "MHIS-NACC", "", "ABSENT", "", "0", 0, "", "", "", "", "", 1.0, "SCREENING 1", -7, "TREATMENT", "2013-02-28", -13]
["CDISCPILOT01", "QS", "01-703-1100", 1004, "MHITM04", "NOCTURNAL CONFUSION", "MHIS-NACC", "", "PRESENT", "", "1", 1, "", "", "", "", "", 1.0, "SCREENING 1", -7, "TREATMENT", "2013-02-28", -13]
["CDISCPILOT01", "QS", "01-703-1100", 1005, "MHITM05", "RELATIVE PRESERVATION OF PERSONALITY", "MHIS-NACC", "", "ABSENT", "", "0", 0, "", "", "", "", "", 1.0, "SCREENING 1", -7, "TREATMENT", "2013-02-28", -13]
["CDISCPILOT01", "QS", "01-703-1100", 1006, "MHITM06", "DEPRESSION", "MHIS-NACC", "", "ABSENT", "", "0", 0, "", "", "", "", "", 1.0, "SCREENING 1", -7, "TREATMENT", "2013-02-28", -13]
["CDISCPILOT01", "QS", "01-703-1100", 1007, "MHITM07", "SOMATIC COMPLAINTS", "MHIS-NACC", "", "ABSENT", "", "0", 0, "", "", "", "", "", 1.0, "SCREENING 1", -7, "TREATMENT", "2013-02-28", -13]
["CDISCPILOT01", "QS", "01-703-1100", 1008, "MHITM08", "EMOTIONAL INCONTINENCE", "MHIS-NACC", "", "ABSENT", "", "0", 0, "", "", "", "", "", 1.0, "SCREENING 1", -7, "TREATMENT", "2013-02-28", -13]
["CDISCPILOT01", "QS", "01-703-1100", 1009, "MHITM09", "HISTORY OF HYPERTENSION", "MHIS-NACC", "", "ABSENT", "", "0", 0, "", "", "", "", "", 1.0, "SCREENING 1", -7, "TREATMENT", "2013-02-28", -13]
["CDISCPILOT01", "QS", "01-703-1100", 1010, "MHITM10", "HISTORY OF STROKES", "MHIS-NACC", "", "ABSENT", "", "0", 0, "", "", "", "", "", 1.0, "SCREENING 1", -7, "TREATMENT", "2013-02-28", -13]
["CDISCPILOT01", "QS", "01-703-1100", 1011, "MHITM11", "EVIDENCE OF ASSOCIATED ATHEROSCLEROSIS", "MHIS-NACC", "", "ABSENT", "", "0", 0, "", "", "", "", "", 1.0, "SCREENING 1", -7, "TREATMENT", "2013-02-28", -13]
["CDISCPILOT01", "QS", "01-703-1100", 1012, "MHITM12", "FOCAL NEUROLOGICAL SYMPTOMS", "MHIS-NACC", "", "ABSENT", "", "0", 0, "", "", "", "", "", 1.0, "SCREENING 1", -7, "TREATMENT", "2013-02-28", -13]
["CDISCPILOT01", "QS", "01-703-1100", 1013, "MHITM13", "FOCAL NEUROLOGICAL SIGNS", "MHIS-NACC", "", "ABSENT", "", "0", 0, "", "", "", "", "", 1.0, "SCREENING 1", -7, "TREATMENT", "2013-02-28", -13]
["CDISCPILOT01", "QS", "01-703-1119", 1001, "MHITM01", "ABRUPT ONSET", "MHIS-NACC", "", "ABSENT", "", "0", 0, "", "", "", "", "", 1.0, "SCREENING 1", -7, "TREATMENT", "2013-02-02", -18]
["CDISCPILOT01", "QS", "01-703-1119", 1002, "MHITM02", "STEPWISE DETERIORATION", "MHIS-NACC", "", "ABSENT", "", "0", 0, "", "", "", "", "", 1.0, "SCREENING 1", -7, "TREATMENT", "2013-02-02", -18]
["CDISCPILOT01", "QS", "01-703-1119", 1003, "MHITM03", "FLUCTUATING COURSE", "MHIS-NACC", "", "ABSENT", "", "0", 0, "", "", "", "", "", 1.0, "SCREENING 1", -7, "TREATMENT", "2013-02-02", -18]
["CDISCPILOT01", "QS", "01-703-1119", 1004, "MHITM04", "NOCTURNAL CONFUSION", "MHIS-NACC", "", "ABSENT", "", "0", 0, "", "", "", "", "", 1.0, "SCREENING 1", -7, "TREATMENT", "2013-02-02", -18]
["CDISCPILOT01", "QS", "01-703-1119", 1005, "MHITM05", "RELATIVE PRESERVATION OF PERSONALITY", "MHIS-NACC", "", "ABSENT", "", "0", 0, "", "", "", "", "", 1.0, "SCREENING 1", -7, "TREATMENT", "2013-02-02", -18]
["CDISCPILOT01", "QS", "01-703-1119", 1006, "MHITM06", "DEPRESSION", "MHIS-NACC", "", "ABSENT", "", "0", 0, "", "", "", "", "", 1.0, "SCREENING 1", -7, "TREATMENT", "2013-02-02", -18]
["CDISCPILOT01", "QS", "01-703-1119", 1007, "MHITM07", "SOMATIC COMPLAINTS", "MHIS-NACC", "", "ABSENT", "", "0", 0, "", "", "", "", "", 1.0, "SCREENING 1", -7, "TREATMENT", "2013-02-02", -18]
["CDISCPILOT01", "QS", "01-703-1119", 1008, "MHITM08", "EMOTIONAL INCONTINENCE", "MHIS-NACC", "", "ABSENT", "", "0", 0, "", "", "", "", "", 1.0, "SCREENING 1", -7, "TREATMENT", "2013-02-02", -18]
["CDISCPILOT01", "QS", "01-703-1119", 1009, "MHITM09", "HISTORY OF HYPERTENSION", "MHIS-NACC", "", "ABSENT", "", "0", 0, "", "", "", "", "", 1.0, "SCREENING 1", -7, "TREATMENT", "2013-02-02", -18]
["CDISCPILOT01", "QS", "01-703-1119", 1010, "MHITM10", "HISTORY OF STROKES", "MHIS-NACC", "", "ABSENT", "", "0", 0, "", "", "", "", "", 1.0, "SCREENING 1", -7, "TREATMENT", "2013-02-02", -18]
["CDISCPILOT01", "QS", "01-703-1119", 1011, "MHITM11", "EVIDENCE OF ASSOCIATED ATHEROSCLEROSIS", "MHIS-NACC", "", "PRESENT", "", "1", 1, "", "", "", "", "", 1.0, "SCREENING 1", -7, "TREATMENT", "2013-02-02", -18]
["CDISCPILOT01", "QS", "01-703-1119", 1012, "MHITM12", "FOCAL NEUROLOGICAL SYMPTOMS", "MHIS-NACC", "", "ABSENT", "", "0", 0, "", "", "", "", "", 1.0, "SCREENING 1", -7, "TREATMENT", "2013-02-02", -18]
["CDISCPILOT01", "QS", "01-703-1119", 1013, "MHITM13", "FOCAL NEUROLOGICAL SIGNS", "MHIS-NACC", "", "ABSENT", "", "0", 0, "", "", "", "", "", 1.0, "SCREENING 1", -7, "TREATMENT", "2013-02-02", -18]
["CDISCPILOT01", "QS", "01-703-1175", 1001, "MHITM01", "ABRUPT ONSET", "MHIS-NACC", "", "ABSENT", "", "0", 0, "", "", "", "", "", 1.0, "SCREENING 1", -7, "TREATMENT", "2013-12-13", -7]
["CDISCPILOT01", "QS", "01-703-1175", 1002, "MHITM02", "STEPWISE DETERIORATION", "MHIS-NACC", "", "ABSENT", "", "0", 0, "", "", "", "", "", 1.0, "SCREENING 1", -7, "TREATMENT", "2013-12-13", -7]
["CDISCPILOT01", "QS", "01-703-1175", 1003, "MHITM03", "FLUCTUATING COURSE", "MHIS-NACC", "", "ABSENT", "", "0", 0, "", "", "", "", "", 1.0, "SCREENING 1", -7, "TREATMENT", "2013-12-13", -7]
["CDISCPILOT01", "QS", "01-703-1175", 1004, "MHITM04", "NOCTURNAL CONFUSION", "MHIS-NACC", "", "ABSENT", "", "0", 0, "", "", "", "", "", 1.0, "SCREENING 1", -7, "TREATMENT", "2013-12-13", -7]
["CDISCPILOT01", "QS", "01-703-1175", 1005, "MHITM05", "RELATIVE PRESERVATION OF PERSONALITY", "MHIS-NACC", "", "ABSENT", "", "0", 0, "", "", "", "", "", 1.0, "SCREENING 1", -7, "TREATMENT", "2013-12-13", -7]
["CDISCPILOT01", "QS", "01-703-1175", 1006, "MHITM06", "DEPRESSION", "MHIS-NACC", "", "ABSENT", "", "0", 0, "", "", "", "", "", 1.0, "SCREENING 1", -7, "TREATMENT", "2013-12-13", -7]
["CDISCPILOT01", "QS", "01-703-1175", 1007, "MHITM07", "SOMATIC COMPLAINTS", "MHIS-NACC", "", "ABSENT", "", "0", 0, "", "", "", "", "", 1.0, "SCREENING 1", -7, "TREATMENT", "2013-12-13", -7]
["CDISCPILOT01", "QS", "01-703-1175", 1008, "MHITM08", "EMOTIONAL INCONTINENCE", "MHIS-NACC", "", "ABSENT", "", "0", 0, "", "", "", "", "", 1.0, "SCREENING 1", -7, "TREATMENT", "2013-12-13", -7]
["CDISCPILOT01", "QS", "01-703-1175", 1009, "MHITM09", "HISTORY OF HYPERTENSION", "MHIS-NACC", "", "ABSENT", "", "0", 0, "", "", "", "", "", 1.0, "SCREENING 1", -7, "TREATMENT", "2013-12-13", -7]
["CDISCPILOT01", "QS", "01-703-1175", 1010, "MHITM10", "HISTORY OF STROKES", "MHIS-NACC", "", "ABSENT", "", "0", 0, "", "", "", "", "", 1.0, "SCREENING 1", -7, "TREATMENT", "2013-12-13", -7]
["CDISCPILOT01", "QS", "01-703-1175", 1011, "MHITM11", "EVIDENCE OF ASSOCIATED ATHEROSCLEROSIS", "MHIS-NACC", "", "ABSENT", "", "0", 0, "", "", "", "", "", 1.0, "SCREENING 1", -7, "TREATMENT", "2013-12-13", -7]
["CDISCPILOT01", "QS", "01-703-1175", 1012, "MHITM12", "FOCAL NEUROLOGICAL SYMPTOMS", "MHIS-NACC", "", "ABSENT", "", "0", 0, "", "", "", "", "", 1.0, "SCREENING 1", -7, "TREATMENT", "2013-12-13", -7]
["CDISCPILOT01", "QS", "01-703-1175", 1013, "MHITM13", "FOCAL NEUROLOGICAL SIGNS", "MHIS-NACC", "", "ABSENT", "", "0", 0, "", "", "", "", "", 1.0, "SCREENING 1", -7, "TREATMENT", "2013-12-13", -7]
["CDISCPILOT01", "QS", "01-703-1182", 1001, "MHITM01", "ABRUPT ONSET", "MHIS-NACC", "", "ABSENT", "", "0", 0, "", "", "", "", "", 1.0, "SCREENING 1", -7, "TREATMENT", "2013-10-08", -9]
["CDISCPILOT01", "QS", "01-703-1182", 1002, "MHITM02", "STEPWISE DETERIORATION", "MHIS-NACC", "", "ABSENT", "", "0", 0, "", "", "", "", "", 1.0, "SCREENING 1", -7, "TREATMENT", "2013-10-08", -9]
["CDISCPILOT01", "QS", "01-703-1182", 1003, "MHITM03", "FLUCTUATING COURSE", "MHIS-NACC", "", "ABSENT", "", "0", 0, "", "", "", "", "", 1.0, "SCREENING 1", -7, "TREATMENT", "2013-10-08", -9]
["CDISCPILOT01", "QS", "01-703-1182", 1004, "MHITM04", "NOCTURNAL CONFUSION", "MHIS-NACC", "", "ABSENT", "", "0", 0, "", "", "", "", "", 1.0, "SCREENING 1", -7, "TREATMENT", "2013-10-08", -9]
["CDISCPILOT01", "QS", "01-703-1182", 1005, "MHITM05", "RELATIVE PRESERVATION OF PERSONALITY", "MHIS-NACC", "", "ABSENT", "", "0", 0, "", "", "", "", "", 1.0, "SCREENING 1", -7, "TREATMENT", "2013-10-08", -9]
["CDISCPILOT01", "QS", "01-703-1182", 1006, "MHITM06", "DEPRESSION", "MHIS-NACC", "", "ABSENT", "", "0", 0, "", "", "", "", "", 1.0, "SCREENING 1", -7, "TREATMENT", "2013-10-08", -9]
["CDISCPILOT01", "QS", "01-703-1182", 1007, "MHITM07", "SOMATIC COMPLAINTS", "MHIS-NACC", "", "ABSENT", "", "0", 0, "", "", "", "", "", 1.0, "SCREENING 1", -7, "TREATMENT", "2013-10-08", -9]
["CDISCPILOT01", "QS", "01-703-1182", 1008, "MHITM08", "EMOTIONAL INCONTINENCE", "MHIS-NACC", "", "ABSENT", "", "0", 0, "", "", "", "", "", 1.0, "SCREENING 1", -7, "TREATMENT", "2013-10-08", -9]
["CDISCPILOT01", "QS", "01-703-1182", 1009, "MHITM09", "HISTORY OF HYPERTENSION", "MHIS-NACC", "", "PRESENT", "", "1", 1, "", "", "", "", "", 1.0, "SCREENING 1", -7, "TREATMENT", "2013-10-08", -9]
["CDISCPILOT01", "QS", "01-703-1182", 1010, "MHITM10", "HISTORY OF STROKES", "MHIS-NACC", "", "ABSENT", "", "0", 0, "", "", "", "", "", 1.0, "SCREENING 1", -7, "TREATMENT", "2013-10-08", -9]
["CDISCPILOT01", "QS", "01-703-1182", 1011, "MHITM11", "EVIDENCE OF ASSOCIATED ATHEROSCLEROSIS", "MHIS-NACC", "", "ABSENT", "", "0", 0, "", "", "", "", "", 1.0, "SCREENING 1", -7, "TREATMENT", "2013-10-08", -9]
["CDISCPILOT01", "QS", "01-703-1182", 1012, "MHITM12", "FOCAL NEUROLOGICAL SYMPTOMS", "MHIS-NACC", "", "ABSENT", "", "0", 0, "", "", "", "", "", 1.0, "SCREENING 1", -7, "TREATMENT", "2013-10-08", -9]
["CDISCPILOT01", "QS", "01-703-1182", 1013, "MHITM13", "FOCAL NEUROLOGICAL SIGNS", "MHIS-NACC", "", "ABSENT", "", "0", 0, "", "", "", "", "", 1.0, "SCREENING 1", -7, "TREATMENT", "2013-10-08", -9]
["CDISCPILOT01", "QS", "01-703-1197", 1001, "MHITM01", "ABRUPT ONSET", "MHIS-NACC", "", "ABSENT", "", "0", 0, "", "", "", "", "", 1.0, "SCREENING 1", -7, "TREATMENT", "2013-06-01", -15]
["CDISCPILOT01", "QS", "01-703-1197", 1002, "MHITM02", "STEPWISE DETERIORATION", "MHIS-NACC", "", "ABSENT", "", "0", 0, "", "", "", "", "", 1.0, "SCREENING 1", -7, "TREATMENT", "2013-06-01", -15]
["CDISCPILOT01", "QS", "01-703-1197", 1003, "MHITM03", "FLUCTUATING COURSE", "MHIS-NACC", "", "ABSENT", "", "0", 0, "", "", "", "", "", 1.0, "SCREENING 1", -7, "TREATMENT", "2013-06-01", -15]
["CDISCPILOT01", "QS", "01-703-1197", 1004, "MHITM04", "NOCTURNAL CONFUSION", "MHIS-NACC", "", "ABSENT", "", "0", 0, "", "", "", "", "", 1.0, "SCREENING 1", -7, "TREATMENT", "2013-06-01", -15]
["CDISCPILOT01", "QS", "01-703-1197", 1005, "MHITM05", "RELATIVE PRESERVATION OF PERSONALITY", "MHIS-NACC", "", "ABSENT", "", "0", 0, "", "", "", "", "", 1.0, "SCREENING 1", -7, "TREATMENT", "2013-06-01", -15]
["CDISCPILOT01", "QS", "01-703-1197", 1006, "MHITM06", "DEPRESSION", "MHIS-NACC", "", "ABSENT", "", "0", 0, "", "", "", "", "", 1.0, "SCREENING 1", -7, "TREATMENT", "2013-06-01", -15]
["CDISCPILOT01", "QS", "01-703-1197", 1007, "MHITM07", "SOMATIC COMPLAINTS", "MHIS-NACC", "", "ABSENT", "", "0", 0, "", "", "", "", "", 1.0, "SCREENING 1", -7, "TREATMENT", "2013-06-01", -15]
["CDISCPILOT01", "QS", "01-703-1197", 1008, "MHITM08", "EMOTIONAL INCONTINENCE", "MHIS-NACC", "", "ABSENT", "", "0", 0, "", "", "", "", "", 1.0, "SCREENING 1", -7, "TREATMENT", "2013-06-01", -15]
["CDISCPILOT01", "QS", "01-703-1197", 1009, "MHITM09", "HISTORY OF HYPERTENSION", "MHIS-NACC", "", "PRESENT", "", "1", 1, "", "", "", "", "", 1.0, "SCREENING 1", -7, "TREATMENT", "2013-06-01", -15]
["CDISCPILOT01", "QS", "01-703-1197", 1010, "MHITM10", "HISTORY OF STROKES", "MHIS-NACC", "", "ABSENT", "", "0", 0, "", "", "", "", "", 1.0, "SCREENING 1", -7, "TREATMENT", "2013-06-01", -15]
["CDISCPILOT01", "QS", "01-703-1197", 1011, "MHITM11", "EVIDENCE OF ASSOCIATED ATHEROSCLEROSIS", "MHIS-NACC", "", "ABSENT", "", "0", 0, "", "", "", "", "", 1.0, "SCREENING 1", -7, "TREATMENT", "2013-06-01", -15]
["CDISCPILOT01", "QS", "01-703-1197", 1012, "MHITM12", "FOCAL NEUROLOGICAL SYMPTOMS", "MHIS-NACC", "", "ABSENT", "", "0", 0, "", "", "", "", "", 1.0, "SCREENING 1", -7, "TREATMENT", "2013-06-01", -15]
["CDISCPILOT01", "QS", "01-703-1197", 1013, "MHITM13", "FOCAL NEUROLOGICAL SIGNS", "MHIS-NACC", "", "ABSENT", "", "0", 0, "", "", "", "", "", 1.0, "SCREENING 1", -7, "TREATMENT", "2013-06-01", -15]
["CDISCPILOT01", "QS", "01-703-1210", 1001, "MHITM01", "ABRUPT ONSET", "MHIS-NACC", "", "ABSENT", "", "0", 0, "", "", "", "", "", 1.0, "SCREENING 1", -7, "TREATMENT", "2013-03-08", -8]
["CDISCPILOT01", "QS", "01-703-1210", 1002, "MHITM02", "STEPWISE DETERIORATION", "MHIS-NACC", "", "ABSENT", "", "0", 0, "", "", "", "", "", 1.0, "SCREENING 1", -7, "TREATMENT", "2013-03-08", -8]
["CDISCPILOT01", "QS", "01-703-1210", 1003, "MHITM03", "FLUCTUATING COURSE", "MHIS-NACC", "", "ABSENT", "", "0", 0, "", "", "", "", "", 1.0, "SCREENING 1", -7, "TREATMENT", "2013-03-08", -8]
["CDISCPILOT01", "QS", "01-703-1210", 1004, "MHITM04", "NOCTURNAL CONFUSION", "MHIS-NACC", "", "ABSENT", "", "0", 0, "", "", "", "", "", 1.0, "SCREENING 1", -7, "TREATMENT", "2013-03-08", -8]
["CDISCPILOT01", "QS", "01-703-1210", 1005, "MHITM05", "RELATIVE PRESERVATION OF PERSONALITY", "MHIS-NACC", "", "ABSENT", "", "0", 0, "", "", "", "", "", 1.0, "SCREENING 1", -7, "TREATMENT", "2013-03-08", -8]
["CDISCPILOT01", "QS", "01-703-1210", 1006, "MHITM06", "DEPRESSION", "MHIS-NACC", "", "ABSENT", "", "0", 0, "", "", "", "", "", 1.0, "SCREENING 1", -7, "TREATMENT", "2013-03-08", -8]
["CDISCPILOT01", "QS", "01-703-1210", 1007, "MHITM07", "SOMATIC COMPLAINTS", "MHIS-NACC", "", "ABSENT", "", "0", 0, "", "", "", "", "", 1.0, "SCREENING 1", -7, "TREATMENT", "2013-03-08", -8]
["CDISCPILOT01", "QS", "01-703-1210", 1008, "MHITM08", "EMOTIONAL INCONTINENCE", "MHIS-NACC", "", "ABSENT", "", "0", 0, "", "", "", "", "", 1.0, "SCREENING 1", -7, "TREATMENT", "2013-03-08", -8]
["CDISCPILOT01", "QS", "01-703-1210", 1009, "MHITM09", "HISTORY OF HYPERTENSION", "MHIS-NACC", "", "ABSENT", "", "0", 0, "", "", "", "", "", 1.0, "SCREENING 1", -7, "TREATMENT", "2013-03-08", -8]
["CDISCPILOT01", "QS", "01-703-1210", 1010, "MHITM10", "HISTORY OF STROKES", "MHIS-NACC", "", "ABSENT", "", "0", 0, "", "", "", "", "", 1.0, "SCREENING 1", -7, "TREATMENT", "2013-03-08", -8]
["CDISCPILOT01", "QS", "01-703-1210", 1011, "MHITM11", "EVIDENCE OF ASSOCIATED ATHEROSCLEROSIS", "MHIS-NACC", "", "ABSENT", "", "0", 0, "", "", "", "", "", 1.0, "SCREENING 1", -7, "TREATMENT", "2013-03-08", -8]
["CDISCPILOT01", "QS", "01-703-1210", 1012, "MHITM12", "FOCAL NEUROLOGICAL SYMPTOMS", "MHIS-NACC", "", "ABSENT", "", "0", 0, "", "", "", "", "", 1.0, "SCREENING 1", -7, "TREATMENT", "2013-03-08", -8]
["CDISCPILOT01", "QS", "01-703-1210", 1013, "MHITM13", "FOCAL NEUROLOGICAL SIGNS", "MHIS-NACC", "", "ABSENT", "", "0", 0, "", "", "", "", "", 1.0, "SCREENING 1", -7, "TREATMENT", "2013-03-08", -8]
["CDISCPILOT01", "QS", "01-703-1258", 1001, "MHITM01", "ABRUPT ONSET", "MHIS-NACC", "", "ABSENT", "", "0", 0, "", "", "", "", "", 1.0, "SCREENING 1", -7, "TREATMENT", "2012-07-10", -10]
["CDISCPILOT01", "QS", "01-703-1258", 1002, "MHITM02", "STEPWISE DETERIORATION", "MHIS-NACC", "", "ABSENT", "", "0", 0, "", "", "", "", "", 1.0, "SCREENING 1", -7, "TREATMENT", "2012-07-10", -10]
["CDISCPILOT01", "QS", "01-703-1258", 1003, "MHITM03", "FLUCTUATING COURSE", "MHIS-NACC", "", "ABSENT", "", "0", 0, "", "", "", "", "", 1.0, "SCREENING 1", -7, "TREATMENT", "2012-07-10", -10]
["CDISCPILOT01", "QS", "01-703-1258", 1004, "MHITM04", "NOCTURNAL CONFUSION", "MHIS-NACC", "", "ABSENT", "", "0", 0, "", "", "", "", "", 1.0, "SCREENING 1", -7, "TREATMENT", "2012-07-10", -10]
["CDISCPILOT01", "QS", "01-703-1258", 1005, "MHITM05", "RELATIVE PRESERVATION OF PERSONALITY", "MHIS-NACC", "", "ABSENT", "", "0", 0, "", "", "", "", "", 1.0, "SCREENING 1", -7, "TREATMENT", "2012-07-10", -10]
["CDISCPILOT01", "QS", "01-703-1258", 1006, "MHITM06", "DEPRESSION", "MHIS-NACC", "", "ABSENT", "", "0", 0, "", "", "", "", "", 1.0, "SCREENING 1", -7, "TREATMENT", "2012-07-10", -10]
["CDISCPILOT01", "QS", "01-703-1258", 1007, "MHITM07", "SOMATIC COMPLAINTS", "MHIS-NACC", "", "PRESENT", "", "1", 1, "", "", "", "", "", 1.0, "SCREENING 1", -7, "TREATMENT", "2012-07-10", -10]
["CDISCPILOT01", "QS", "01-703-1258", 1008, "MHITM08", "EMOTIONAL INCONTINENCE", "MHIS-NACC", "", "ABSENT", "", "0", 0, "", "", "", "", "", 1.0, "SCREENING 1", -7, "TREATMENT", "2012-07-10", -10]
["CDISCPILOT01", "QS", "01-703-1258", 1009, "MHITM09", "HISTORY OF HYPERTENSION", "MHIS-NACC", "", "PRESENT", "", "1", 1, "", "", "", "", "", 1.0, "SCREENING 1", -7, "TREATMENT", "2012-07-10", -10]
["CDISCPILOT01", "QS", "01-703-1258", 1010, "MHITM10", "HISTORY OF STROKES", "MHIS-NACC", "", "ABSENT", "", "0", 0, "", "", "", "", "", 1.0, "SCREENING 1", -7, "TREATMENT", "2012-07-10", -10]
["CDISCPILOT01", "QS", "01-703-1258", 1011, "MHITM11", "EVIDENCE OF ASSOCIATED ATHEROSCLEROSIS", "MHIS-NACC", "", "ABSENT", "", "0", 0, "", "", "", "", "", 1.0, "SCREENING 1", -7, "TREATMENT", "2012-07-10", -10]
["CDISCPILOT01", "QS", "01-703-1258", 1012, "MHITM12", "FOCAL NEUROLOGICAL SYMPTOMS", "MHIS-NACC", "", "ABSENT", "", "0", 0, "", "", "", "", "", 1.0, "SCREENING 1", -7, "TREATMENT", "2012-07-10", -10]
["CDISCPILOT01", "QS", "01-703-1258", 1013, "MHITM13", "FOCAL NEUROLOGICAL SIGNS", "MHIS-NACC", "", "ABSENT", "", "0", 0, "", "", "", "", "", 1.0, "SCREENING 1", -7, "TREATMENT", "2012-07-10", -10]
["CDISCPILOT01", "QS", "01-703-1279", 1001, "MHITM01", "ABRUPT ONSET", "MHIS-NACC", "", "ABSENT", "", "0", 0, "", "", "", "", "", 1.0, "SCREENING 1", -7, "TREATMENT", "2013-04-27", -16]
["CDISCPILOT01", "QS", "01-703-1279", 1002, "MHITM02", "STEPWISE DETERIORATION", "MHIS-NACC", "", "ABSENT", "", "0", 0, "", "", "", "", "", 1.0, "SCREENING 1", -7, "TREATMENT", "2013-04-27", -16]
["CDISCPILOT01", "QS", "01-703-1279", 1003, "MHITM03", "FLUCTUATING COURSE", "MHIS-NACC", "", "ABSENT", "", "0", 0, "", "", "", "", "", 1.0, "SCREENING 1", -7, "TREATMENT", "2013-04-27", -16]
["CDISCPILOT01", "QS", "01-703-1279", 1004, "MHITM04", "NOCTURNAL CONFUSION", "MHIS-NACC", "", "ABSENT", "", "0", 0, "", "", "", "", "", 1.0, "SCREENING 1", -7, "TREATMENT", "2013-04-27", -16]
["CDISCPILOT01", "QS", "01-703-1279", 1005, "MHITM05", "RELATIVE PRESERVATION OF PERSONALITY", "MHIS-NACC", "", "ABSENT", "", "0", 0, "", "", "", "", "", 1.0, "SCREENING 1", -7, "TREATMENT", "2013-04-27", -16]
["CDISCPILOT01", "QS", "01-703-1279", 1006, "MHITM06", "DEPRESSION", "MHIS-NACC", "", "ABSENT", "", "0", 0, "", "", "", "", "", 1.0, "SCREENING 1", -7, "TREATMENT", "2013-04-27", -16]
["CDISCPILOT01", "QS", "01-703-1279", 1007, "MHITM07", "SOMATIC COMPLAINTS", "MHIS-NACC", "", "ABSENT", "", "0", 0, "", "", "", "", "", 1.0, "SCREENING 1", -7, "TREATMENT", "2013-04-27", -16]
["CDISCPILOT01", "QS", "01-703-1279", 1008, "MHITM08", "EMOTIONAL INCONTINENCE", "MHIS-NACC", "", "ABSENT", "", "0", 0, "", "", "", "", "", 1.0, "SCREENING 1", -7, "TREATMENT", "2013-04-27", -16]
["CDISCPILOT01", "QS", "01-703-1279", 1009, "MHITM09", "HISTORY OF HYPERTENSION", "MHIS-NACC", "", "ABSENT", "", "0", 0, "", "", "", "", "", 1.0, "SCREENING 1", -7, "TREATMENT", "2013-04-27", -16]
["CDISCPILOT01", "QS", "01-703-1279", 1010, "MHITM10", "HISTORY OF STROKES", "MHIS-NACC", "", "ABSENT", "", "0", 0, "", "", "", "", "", 1.0, "SCREENING 1", -7, "TREATMENT", "2013-04-27", -16]
["CDISCPILOT01", "QS", "01-703-1279", 1011, "MHITM11", "EVIDENCE OF ASSOCIATED ATHEROSCLEROSIS", "MHIS-NACC", "", "ABSENT", "", "0", 0, "", "", "", "", "", 1.0, "SCREENING 1", -7, "TREATMENT", "2013-04-27", -16]
["CDISCPILOT01", "QS", "01-703-1279", 1012, "MHITM12", "FOCAL NEUROLOGICAL SYMPTOMS", "MHIS-NACC", "", "ABSENT", "", "0", 0, "", "", "", "", "", 1.0, "SCREENING 1", -7, "TREATMENT", "2013-04-27", -16]
["CDISCPILOT01", "QS", "01-703-1279", 1013, "MHITM13", "FOCAL NEUROLOGICAL SIGNS", "MHIS-NACC", "", "ABSENT", "", "0", 0, "", "", "", "", "", 1.0, "SCREENING 1", -7, "TREATMENT", "2013-04-27", -16]
["CDISCPILOT01", "QS", "01-703-1295", 1001, "MHITM01", "ABRUPT ONSET", "MHIS-NACC", "", "ABSENT", "", "0", 0, "", "", "", "", "", 1.0, "SCREENING 1", -7, "TREATMENT", "2013-10-24", -28]
["CDISCPILOT01", "QS", "01-703-1295", 1002, "MHITM02", "STEPWISE DETERIORATION", "MHIS-NACC", "", "ABSENT", "", "0", 0, "", "", "", "", "", 1.0, "SCREENING 1", -7, "TREATMENT", "2013-10-24", -28]
["CDISCPILOT01", "QS", "01-703-1295", 1003, "MHITM03", "FLUCTUATING COURSE", "MHIS-NACC", "", "ABSENT", "", "0", 0, "", "", "", "", "", 1.0, "SCREENING 1", -7, "TREATMENT", "2013-10-24", -28]
["CDISCPILOT01", "QS", "01-703-1295", 1004, "MHITM04", "NOCTURNAL CONFUSION", "MHIS-NACC", "", "ABSENT", "", "0", 0, "", "", "", "", "", 1.0, "SCREENING 1", -7, "TREATMENT", "2013-10-24", -28]
["CDISCPILOT01", "QS", "01-703-1295", 1005, "MHITM05", "RELATIVE PRESERVATION OF PERSONALITY", "MHIS-NACC", "", "ABSENT", "", "0", 0, "", "", "", "", "", 1.0, "SCREENING 1", -7, "TREATMENT", "2013-10-24", -28]
["CDISCPILOT01", "QS", "01-703-1295", 1006, "MHITM06", "DEPRESSION", "MHIS-NACC", "", "PRESENT", "", "1", 1, "", "", "", "", "", 1.0, "SCREENING 1", -7, "TREATMENT", "2013-10-24", -28]
["CDISCPILOT01", "QS", "01-703-1295", 1007, "MHITM07", "SOMATIC COMPLAINTS", "MHIS-NACC", "", "ABSENT", "", "0", 0, "", "", "", "", "", 1.0, "SCREENING 1", -7, "TREATMENT", "2013-10-24", -28]
["CDISCPILOT01", "QS", "01-703-1295", 1008, "MHITM08", "EMOTIONAL INCONTINENCE", "MHIS-NACC", "", "ABSENT", "", "0", 0, "", "", "", "", "", 1.0, "SCREENING 1", -7, "TREATMENT", "2013-10-24", -28]
["CDISCPILOT01", "QS", "01-703-1295", 1009, "MHITM09", "HISTORY OF HYPERTENSION", "MHIS-NACC", "", "ABSENT", "", "0", 0, "", "", "", "", "", 1.0, "SCREENING 1", -7, "TREATMENT", "2013-10-24", -28]
["CDISCPILOT01", "QS", "01-703-1295", 1010, "MHITM10", "HISTORY OF STROKES", "MHIS-NACC", "", "ABSENT", "", "0", 0, "", "", "", "", "", 1.0, "SCREENING 1", -7, "TREATMENT", "2013-10-24", -28]
["CDISCPILOT01", "QS", "01-703-1295", 1011, "MHITM11", "EVIDENCE OF ASSOCIATED ATHEROSCLEROSIS", "MHIS-NACC", "", "ABSENT", "", "0", 0, "", "", "", "", "", 1.0, "SCREENING 1", -7, "TREATMENT", "2013-10-24", -28]
["CDISCPILOT01", "QS", "01-703-1295", 1012, "MHITM12", "FOCAL NEUROLOGICAL SYMPTOMS", "MHIS-NACC", "", "ABSENT", "", "0", 0, "", "", "", "", "", 1.0, "SCREENING 1", -7, "TREATMENT", "2013-10-24", -28]
["CDISCPILOT01", "QS", "01-703-1295", 1013, "MHITM13", "FOCAL NEUROLOGICAL SIGNS", "MHIS-NACC", "", "ABSENT", "", "0", 0, "", "", "", "", "", 1.0, "SCREENING 1", -7, "TREATMENT", "2013-10-24", -28]
["CDISCPILOT01", "QS", "01-703-1299", 1001, "MHITM01", "ABRUPT ONSET", "MHIS-NACC", "", "ABSENT", "", "0", 0, "", "", "", "", "", 1.0, "SCREENING 1", -7, "TREATMENT", "2012-09-07", -5]
["CDISCPILOT01", "QS", "01-703-1299", 1002, "MHITM02", "STEPWISE DETERIORATION", "MHIS-NACC", "", "ABSENT", "", "0", 0, "", "", "", "", "", 1.0, "SCREENING 1", -7, "TREATMENT", "2012-09-07", -5]
["CDISCPILOT01", "QS", "01-703-1299", 1003, "MHITM03", "FLUCTUATING COURSE", "MHIS-NACC", "", "ABSENT", "", "0", 0, "", "", "", "", "", 1.0, "SCREENING 1", -7, "TREATMENT", "2012-09-07", -5]
["CDISCPILOT01", "QS", "01-703-1299", 1004, "MHITM04", "NOCTURNAL CONFUSION", "MHIS-NACC", "", "ABSENT", "", "0", 0, "", "", "", "", "", 1.0, "SCREENING 1", -7, "TREATMENT", "2012-09-07", -5]
["CDISCPILOT01", "QS", "01-703-1299", 1005, "MHITM05", "RELATIVE PRESERVATION OF PERSONALITY", "MHIS-NACC", "", "ABSENT", "", "0", 0, "", "", "", "", "", 1.0, "SCREENING 1", -7, "TREATMENT", "2012-09-07", -5]
["CDISCPILOT01", "QS", "01-703-1299", 1006, "MHITM06", "DEPRESSION", "MHIS-NACC", "", "ABSENT", "", "0", 0, "", "", "", "", "", 1.0, "SCREENING 1", -7, "TREATMENT", "2012-09-07", -5]
["CDISCPILOT01", "QS", "01-703-1299", 1007, "MHITM07", "SOMATIC COMPLAINTS", "MHIS-NACC", "", "ABSENT", "", "0", 0, "", "", "", "", "", 1.0, "SCREENING 1", -7, "TREATMENT", "2012-09-07", -5]
["CDISCPILOT01", "QS", "01-703-1299", 1008, "MHITM08", "EMOTIONAL INCONTINENCE", "MHIS-NACC", "", "ABSENT", "", "0", 0, "", "", "", "", "", 1.0, "SCREENING 1", -7, "TREATMENT", "2012-09-07", -5]
["CDISCPILOT01", "QS", "01-703-1299", 1009, "MHITM09", "HISTORY OF HYPERTENSION", "MHIS-NACC", "", "ABSENT", "", "0", 0, "", "", "", "", "", 1.0, "SCREENING 1", -7, "TREATMENT", "2012-09-07", -5]
["CDISCPILOT01", "QS", "01-703-1299", 1010, "MHITM10", "HISTORY OF STROKES", "MHIS-NACC", "", "ABSENT", "", "0", 0, "", "", "", "", "", 1.0, "SCREENING 1", -7, "TREATMENT", "2012-09-07", -5]
["CDISCPILOT01", "QS", "01-703-1299", 1011, "MHITM11", "EVIDENCE OF ASSOCIATED ATHEROSCLEROSIS", "MHIS-NACC", "", "ABSENT", "", "0", 0, "", "", "", "", "", 1.0, "SCREENING 1", -7, "TREATMENT", "2012-09-07", -5]
["CDISCPILOT01", "QS", "01-703-1299", 1012, "MHITM12", "FOCAL NEUROLOGICAL SYMPTOMS", "MHIS-NACC", "", "ABSENT", "", "0", 0, "", "", "", "", "", 1.0, "SCREENING 1", -7, "TREATMENT", "2012-09-07", -5]
["CDISCPILOT01", "QS", "01-703-1299", 1013, "MHITM13", "FOCAL NEUROLOGICAL SIGNS", "MHIS-NACC", "", "ABSENT", "", "0", 0, "", "", "", "", "", 1.0, "SCREENING 1", -7, "TREATMENT", "2012-09-07", -5]
["CDISCPILOT01", "QS", "01-703-1335", 1001, "MHITM01", "ABRUPT ONSET", "MHIS-NACC", "", "ABSENT", "", "0", 0, "", "", "", "", "", 1.0, "SCREENING 1", -7, "TREATMENT", "2014-02-28", -17]
["CDISCPILOT01", "QS", "01-703-1335", 1002, "MHITM02", "STEPWISE DETERIORATION", "MHIS-NACC", "", "ABSENT", "", "0", 0, "", "", "", "", "", 1.0, "SCREENING 1", -7, "TREATMENT", "2014-02-28", -17]
["CDISCPILOT01", "QS", "01-703-1335", 1003, "MHITM03", "FLUCTUATING COURSE", "MHIS-NACC", "", "ABSENT", "", "0", 0, "", "", "", "", "", 1.0, "SCREENING 1", -7, "TREATMENT", "2014-02-28", -17]
["CDISCPILOT01", "QS", "01-703-1335", 1004, "MHITM04", "NOCTURNAL CONFUSION", "MHIS-NACC", "", "ABSENT", "", "0", 0, "", "", "", "", "", 1.0, "SCREENING 1", -7, "TREATMENT", "2014-02-28", -17]
["CDISCPILOT01", "QS", "01-703-1335", 1005, "MHITM05", "RELATIVE PRESERVATION OF PERSONALITY", "MHIS-NACC", "", "ABSENT", "", "0", 0, "", "", "", "", "", 1.0, "SCREENING 1", -7, "TREATMENT", "2014-02-28", -17]
["CDISCPILOT01", "QS", "01-703-1335", 1006, "MHITM06", "DEPRESSION", "MHIS-NACC", "", "ABSENT", "", "0", 0, "", "", "", "", "", 1.0, "SCREENING 1", -7, "TREATMENT", "2014-02-28", -17]
["CDISCPILOT01", "QS", "01-703-1335", 1007, "MHITM07", "SOMATIC COMPLAINTS", "MHIS-NACC", "", "ABSENT", "", "0", 0, "", "", "", "", "", 1.0, "SCREENING 1", -7, "TREATMENT", "2014-02-28", -17]
["CDISCPILOT01", "QS", "01-703-1335", 1008, "MHITM08", "EMOTIONAL INCONTINENCE", "MHIS-NACC", "", "ABSENT", "", "0", 0, "", "", "", "", "", 1.0, "SCREENING 1", -7, "TREATMENT", "2014-02-28", -17]
["CDISCPILOT01", "QS", "01-703-1335", 1009, "MHITM09", "HISTORY OF HYPERTENSION", "MHIS-NACC", "", "ABSENT", "", "0", 0, "", "", "", "", "", 1.0, "SCREENING 1", -7, "TREATMENT", "2014-02-28", -17]
["CDISCPILOT01", "QS", "01-703-1335", 1010, "MHITM10", "HISTORY OF STROKES", "MHIS-NACC", "", "ABSENT", "", "0", 0, "", "", "", "", "", 1.0, "SCREENING 1", -7, "TREATMENT", "2014-02-28", -17]
["CDISCPILOT01", "QS", "01-703-1335", 1011, "MHITM11", "EVIDENCE OF ASSOCIATED ATHEROSCLEROSIS", "MHIS-NACC", "", "ABSENT", "", "0", 0, "", "", "", "", "", 1.0, "SCREENING 1", -7, "TREATMENT", "2014-02-28", -17]
["CDISCPILOT01", "QS", "01-703-1335", 1012, "MHITM12", "FOCAL NEUROLOGICAL SYMPTOMS", "MHIS-NACC", "", "ABSENT", "", "0", 0, "", "", "", "", "", 1.0, "SCREENING 1", -7, "TREATMENT", "2014-02-28", -17]
["CDISCPILOT01", "QS", "01-703-1335", 1013, "MHITM13", "FOCAL NEUROLOGICAL SIGNS", "MHIS-NACC", "", "PRESENT", "", "2", 2, "", "", "", "", "", 1.0, "SCREENING 1", -7, "TREATMENT", "2014-02-28", -17]
["CDISCPILOT01", "QS", "01-703-1379", 1001, "MHITM01", "ABRUPT ONSET", "MHIS-NACC", "", "ABSENT", "", "0", 0, "", "", "", "", "", 1.0, "SCREENING 1", -7, "TREATMENT", "2013-09-12", -10]
["CDISCPILOT01", "QS", "01-703-1379", 1002, "MHITM02", "STEPWISE DETERIORATION", "MHIS-NACC", "", "ABSENT", "", "0", 0, "", "", "", "", "", 1.0, "SCREENING 1", -7, "TREATMENT", "2013-09-12", -10]
["CDISCPILOT01", "QS", "01-703-1379", 1003, "MHITM03", "FLUCTUATING COURSE", "MHIS-NACC", "", "ABSENT", "", "0", 0, "", "", "", "", "", 1.0, "SCREENING 1", -7, "TREATMENT", "2013-09-12", -10]
["CDISCPILOT01", "QS", "01-703-1379", 1004, "MHITM04", "NOCTURNAL CONFUSION", "MHIS-NACC", "", "ABSENT", "", "0", 0, "", "", "", "", "", 1.0, "SCREENING 1", -7, "TREATMENT", "2013-09-12", -10]
["CDISCPILOT01", "QS", "01-703-1379", 1005, "MHITM05", "RELATIVE PRESERVATION OF PERSONALITY", "MHIS-NACC", "", "ABSENT", "", "0", 0, "", "", "", "", "", 1.0, "SCREENING 1", -7, "TREATMENT", "2013-09-12", -10]
["CDISCPILOT01", "QS", "01-703-1379", 1006, "MHITM06", "DEPRESSION", "MHIS-NACC", "", "ABSENT", "", "0", 0, "", "", "", "", "", 1.0, "SCREENING 1", -7, "TREATMENT", "2013-09-12", -10]
["CDISCPILOT01", "QS", "01-703-1379", 1007, "MHITM07", "SOMATIC COMPLAINTS", "MHIS-NACC", "", "ABSENT", "", "0", 0, "", "", "", "", "", 1.0, "SCREENING 1", -7, "TREATMENT", "2013-09-12", -10]
["CDISCPILOT01", "QS", "01-703-1379", 1008, "MHITM08", "EMOTIONAL INCONTINENCE", "MHIS-NACC", "", "ABSENT", "", "0", 0, "", "", "", "", "", 1.0, "SCREENING 1", -7, "TREATMENT", "2013-09-12", -10]
["CDISCPILOT01", "QS", "01-703-1379", 1009, "MHITM09", "HISTORY OF HYPERTENSION", "MHIS-NACC", "", "ABSENT", "", "0", 0, "", "", "", "", "", 1.0, "SCREENING 1", -7, "TREATMENT", "2013-09-12", -10]
["CDISCPILOT01", "QS", "01-703-1379", 1010, "MHITM10", "HISTORY OF STROKES", "MHIS-NACC", "", "ABSENT", "", "0", 0, "", "", "", "", "", 1.0, "SCREENING 1", -7, "TREATMENT", "2013-09-12", -10]
["CDISCPILOT01", "QS", "01-703-1379", 1011, "MHITM11", "EVIDENCE OF ASSOCIATED ATHEROSCLEROSIS", "MHIS-NACC", "", "ABSENT", "", "0", 0, "", "", "", "", "", 1.0, "SCREENING 1", -7, "TREATMENT", "2013-09-12", -10]
["CDISCPILOT01", "QS", "01-703-1379", 1012, "MHITM12", "FOCAL NEUROLOGICAL SYMPTOMS", "MHIS-NACC", "", "ABSENT", "", "0", 0, "", "", "", "", "", 1.0, "SCREENING 1", -7, "TREATMENT", "2013-09-12", -10]
["CDISCPILOT01", "QS", "01-703-1379", 1013, "MHITM13", "FOCAL NEUROLOGICAL SIGNS", "MHIS-NACC", "", "ABSENT", "", "0", 0, "", "", "", "", "", 1.0, "SCREENING 1", -7, "TREATMENT", "2013-09-12", -10]
["CDISCPILOT01", "QS", "01-703-1403", 1001, "MHITM01", "ABRUPT ONSET", "MHIS-NACC", "", "ABSENT", "", "0", 0, "", "", "", "", "", 1.0, "SCREENING 1", -7, "TREATMENT", "2012-12-05", -7]
["CDISCPILOT01", "QS", "01-703-1403", 1002, "MHITM02", "STEPWISE DETERIORATION", "MHIS-NACC", "", "ABSENT", "", "0", 0, "", "", "", "", "", 1.0, "SCREENING 1", -7, "TREATMENT", "2012-12-05", -7]
["CDISCPILOT01", "QS", "01-703-1403", 1003, "MHITM03", "FLUCTUATING COURSE", "MHIS-NACC", "", "ABSENT", "", "0", 0, "", "", "", "", "", 1.0, "SCREENING 1", -7, "TREATMENT", "2012-12-05", -7]
["CDISCPILOT01", "QS", "01-703-1403", 1004, "MHITM04", "NOCTURNAL CONFUSION", "MHIS-NACC", "", "ABSENT", "", "0", 0, "", "", "", "", "", 1.0, "SCREENING 1", -7, "TREATMENT", "2012-12-05", -7]
["CDISCPILOT01", "QS", "01-703-1403", 1005, "MHITM05", "RELATIVE PRESERVATION OF PERSONALITY", "MHIS-NACC", "", "PRESENT", "", "1", 1, "", "", "", "", "", 1.0, "SCREENING 1", -7, "TREATMENT", "2012-12-05", -7]
["CDISCPILOT01", "QS", "01-703-1403", 1006, "MHITM06", "DEPRESSION", "MHIS-NACC", "", "ABSENT", "", "0", 0, "", "", "", "", "", 1.0, "SCREENING 1", -7, "TREATMENT", "2012-12-05", -7]
["CDISCPILOT01", "QS", "01-703-1403", 1007, "MHITM07", "SOMATIC COMPLAINTS", "MHIS-NACC", "", "ABSENT", "", "0", 0, "", "", "", "", "", 1.0, "SCREENING 1", -7, "TREATMENT", "2012-12-05", -7]
["CDISCPILOT01", "QS", "01-703-1403", 1008, "MHITM08", "EMOTIONAL INCONTINENCE", "MHIS-NACC", "", "ABSENT", "", "0", 0, "", "", "", "", "", 1.0, "SCREENING 1", -7, "TREATMENT", "2012-12-05", -7]
["CDISCPILOT01", "QS", "01-703-1403", 1009, "MHITM09", "HISTORY OF HYPERTENSION", "MHIS-NACC", "", "ABSENT", "", "0", 0, "", "", "", "", "", 1.0, "SCREENING 1", -7, "TREATMENT", "2012-12-05", -7]
["CDISCPILOT01", "QS", "01-703-1403", 1010, "MHITM10", "HISTORY OF STROKES", "MHIS-NACC", "", "ABSENT", "", "0", 0, "", "", "", "", "", 1.0, "SCREENING 1", -7, "TREATMENT", "2012-12-05", -7]
["CDISCPILOT01", "QS", "01-703-1403", 1011, "MHITM11", "EVIDENCE OF ASSOCIATED ATHEROSCLEROSIS", "MHIS-NACC", "", "ABSENT", "", "0", 0, "", "", "", "", "", 1.0, "SCREENING 1", -7, "TREATMENT", "2012-12-05", -7]
["CDISCPILOT01", "QS", "01-703-1403", 1012, "MHITM12", "FOCAL NEUROLOGICAL SYMPTOMS", "MHIS-NACC", "", "ABSENT", "", "0", 0, "", "", "", "", "", 1.0, "SCREENING 1", -7, "TREATMENT", "2012-12-05", -7]
["CDISCPILOT01", "QS", "01-703-1403", 1013, "MHITM13", "FOCAL NEUROLOGICAL SIGNS", "MHIS-NACC", "", "ABSENT", "", "0", 0, "", "", "", "", "", 1.0, "SCREENING 1", -7, "TREATMENT", "2012-12-05", -7]
["CDISCPILOT01", "QS", "01-703-1439", 1001, "MHITM01", "ABRUPT ONSET", "MHIS-NACC", "", "ABSENT", "", "0", 0, "", "", "", "", "", 1.0, "SCREENING 1", -7, "TREATMENT", "2014-03-04", -8]
["CDISCPILOT01", "QS", "01-703-1439", 1002, "MHITM02", "STEPWISE DETERIORATION", "MHIS-NACC", "", "ABSENT", "", "0", 0, "", "", "", "", "", 1.0, "SCREENING 1", -7, "TREATMENT", "2014-03-04", -8]
["CDISCPILOT01", "QS", "01-703-1439", 1003, "MHITM03", "FLUCTUATING COURSE", "MHIS-NACC", "", "ABSENT", "", "0", 0, "", "", "", "", "", 1.0, "SCREENING 1", -7, "TREATMENT", "2014-03-04", -8]
["CDISCPILOT01", "QS", "01-703-1439", 1004, "MHITM04", "NOCTURNAL CONFUSION", "MHIS-NACC", "", "ABSENT", "", "0", 0, "", "", "", "", "", 1.0, "SCREENING 1", -7, "TREATMENT", "2014-03-04", -8]
["CDISCPILOT01", "QS", "01-703-1439", 1005, "MHITM05", "RELATIVE PRESERVATION OF PERSONALITY", "MHIS-NACC", "", "ABSENT", "", "0", 0, "", "", "", "", "", 1.0, "SCREENING 1", -7, "TREATMENT", "2014-03-04", -8]
["CDISCPILOT01", "QS", "01-703-1439", 1006, "MHITM06", "DEPRESSION", "MHIS-NACC", "", "ABSENT", "", "0", 0, "", "", "", "", "", 1.0, "SCREENING 1", -7, "TREATMENT", "2014-03-04", -8]
["CDISCPILOT01", "QS", "01-703-1439", 1007, "MHITM07", "SOMATIC COMPLAINTS", "MHIS-NACC", "", "ABSENT", "", "0", 0, "", "", "", "", "", 1.0, "SCREENING 1", -7, "TREATMENT", "2014-03-04", -8]
["CDISCPILOT01", "QS", "01-703-1439", 1008, "MHITM08", "EMOTIONAL INCONTINENCE", "MHIS-NACC", "", "ABSENT", "", "0", 0, "", "", "", "", "", 1.0, "SCREENING 1", -7, "TREATMENT", "2014-03-04", -8]
["CDISCPILOT01", "QS", "01-703-1439", 1009, "MHITM09", "HISTORY OF HYPERTENSION", "MHIS-NACC", "", "ABSENT", "", "0", 0, "", "", "", "", "", 1.0, "SCREENING 1", -7, "TREATMENT", "2014-03-04", -8]
["CDISCPILOT01", "QS", "01-703-1439", 1010, "MHITM10", "HISTORY OF STROKES", "MHIS-NACC", "", "ABSENT", "", "0", 0, "", "", "", "", "", 1.0, "SCREENING 1", -7, "TREATMENT", "2014-03-04", -8]
["CDISCPILOT01", "QS", "01-703-1439", 1011, "MHITM11", "EVIDENCE OF ASSOCIATED ATHEROSCLEROSIS", "MHIS-NACC", "", "ABSENT", "", "0", 0, "", "", "", "", "", 1.0, "SCREENING 1", -7, "TREATMENT", "2014-03-04", -8]
["CDISCPILOT01", "QS", "01-703-1439", 1012, "MHITM12", "FOCAL NEUROLOGICAL SYMPTOMS", "MHIS-NACC", "", "ABSENT", "", "0", 0, "", "", "", "", "", 1.0, "SCREENING 1", -7, "TREATMENT", "2014-03-04", -8]
["CDISCPILOT01", "QS", "01-703-1439", 1013, "MHITM13", "FOCAL NEUROLOGICAL SIGNS", "MHIS-NACC", "", "PRESENT", "", "2", 2, "", "", "", "", "", 1.0, "SCREENING 1", -7, "TREATMENT", "2014-03-04", -8]
["CDISCPILOT01", "QS", "01-704-1008", 1001, "MHITM01", "ABRUPT ONSET", "MHIS-NACC", "", "ABSENT", "", "0", 0, "", "", "", "", "", 1.0, "SCREENING 1", -7, "TREATMENT", "2013-01-06", -7]
["CDISCPILOT01", "QS", "01-704-1008", 1002, "MHITM02", "STEPWISE DETERIORATION", "MHIS-NACC", "", "ABSENT", "", "0", 0, "", "", "", "", "", 1.0, "SCREENING 1", -7, "TREATMENT", "2013-01-06", -7]
["CDISCPILOT01", "QS", "01-704-1008", 1003, "MHITM03", "FLUCTUATING COURSE", "MHIS-NACC", "", "ABSENT", "", "0", 0, "", "", "", "", "", 1.0, "SCREENING 1", -7, "TREATMENT", "2013-01-06", -7]
["CDISCPILOT01", "QS", "01-704-1008", 1004, "MHITM04", "NOCTURNAL CONFUSION", "MHIS-NACC", "", "ABSENT", "", "0", 0, "", "", "", "", "", 1.0, "SCREENING 1", -7, "TREATMENT", "2013-01-06", -7]
["CDISCPILOT01", "QS", "01-704-1008", 1005, "MHITM05", "RELATIVE PRESERVATION OF PERSONALITY", "MHIS-NACC", "", "ABSENT", "", "0", 0, "", "", "", "", "", 1.0, "SCREENING 1", -7, "TREATMENT", "2013-01-06", -7]
["CDISCPILOT01", "QS", "01-704-1008", 1006, "MHITM06", "DEPRESSION", "MHIS-NACC", "", "ABSENT", "", "0", 0, "", "", "", "", "", 1.0, "SCREENING 1", -7, "TREATMENT", "2013-01-06", -7]
["CDISCPILOT01", "QS", "01-704-1008", 1007, "MHITM07", "SOMATIC COMPLAINTS", "MHIS-NACC", "", "ABSENT", "", "0", 0, "", "", "", "", "", 1.0, "SCREENING 1", -7, "TREATMENT", "2013-01-06", -7]
["CDISCPILOT01", "QS", "01-704-1008", 1008, "MHITM08", "EMOTIONAL INCONTINENCE", "MHIS-NACC", "", "ABSENT", "", "0", 0, "", "", "", "", "", 1.0, "SCREENING 1", -7, "TREATMENT", "2013-01-06", -7]
["CDISCPILOT01", "QS", "01-704-1008", 1009, "MHITM09", "HISTORY OF HYPERTENSION", "MHIS-NACC", "", "ABSENT", "", "0", 0, "", "", "", "", "", 1.0, "SCREENING 1", -7, "TREATMENT", "2013-01-06", -7]
["CDISCPILOT01", "QS", "01-704-1008", 1010, "MHITM10", "HISTORY OF STROKES", "MHIS-NACC", "", "ABSENT", "", "0", 0, "", "", "", "", "", 1.0, "SCREENING 1", -7, "TREATMENT", "2013-01-06", -7]
["CDISCPILOT01", "QS", "01-704-1008", 1011, "MHITM11", "EVIDENCE OF ASSOCIATED ATHEROSCLEROSIS", "MHIS-NACC", "", "ABSENT", "", "0", 0, "", "", "", "", "", 1.0, "SCREENING 1", -7, "TREATMENT", "2013-01-06", -7]
["CDISCPILOT01", "QS", "01-704-1008", 1012, "MHITM12", "FOCAL NEUROLOGICAL SYMPTOMS", "MHIS-NACC", "", "ABSENT", "", "0", 0, "", "", "", "", "", 1.0, "SCREENING 1", -7, "TREATMENT", "2013-01-06", -7]
["CDISCPILOT01", "QS", "01-704-1008", 1013, "MHITM13", "FOCAL NEUROLOGICAL SIGNS", "MHIS-NACC", "", "ABSENT", "", "0", 0, "", "", "", "", "", 1.0, "SCREENING 1", -7, "TREATMENT", "2013-01-06", -7]
["CDISCPILOT01", "QS", "01-704-1009", 1001, "MHITM01", "ABRUPT ONSET", "MHIS-NACC", "", "ABSENT", "", "0", 0, "", "", "", "", "", 1.0, "SCREENING 1", -7, "TREATMENT", "2013-08-20", -7]
["CDISCPILOT01", "QS", "01-704-1009", 1002, "MHITM02", "STEPWISE DETERIORATION", "MHIS-NACC", "", "ABSENT", "", "0", 0, "", "", "", "", "", 1.0, "SCREENING 1", -7, "TREATMENT", "2013-08-20", -7]
["CDISCPILOT01", "QS", "01-704-1009", 1003, "MHITM03", "FLUCTUATING COURSE", "MHIS-NACC", "", "ABSENT", "", "0", 0, "", "", "", "", "", 1.0, "SCREENING 1", -7, "TREATMENT", "2013-08-20", -7]
["CDISCPILOT01", "QS", "01-704-1009", 1004, "MHITM04", "NOCTURNAL CONFUSION", "MHIS-NACC", "", "ABSENT", "", "0", 0, "", "", "", "", "", 1.0, "SCREENING 1", -7, "TREATMENT", "2013-08-20", -7]
["CDISCPILOT01", "QS", "01-704-1009", 1005, "MHITM05", "RELATIVE PRESERVATION OF PERSONALITY", "MHIS-NACC", "", "ABSENT", "", "0", 0, "", "", "", "", "", 1.0, "SCREENING 1", -7, "TREATMENT", "2013-08-20", -7]
["CDISCPILOT01", "QS", "01-704-1009", 1006, "MHITM06", "DEPRESSION", "MHIS-NACC", "", "ABSENT", "", "0", 0, "", "", "", "", "", 1.0, "SCREENING 1", -7, "TREATMENT", "2013-08-20", -7]
["CDISCPILOT01", "QS", "01-704-1009", 1007, "MHITM07", "SOMATIC COMPLAINTS", "MHIS-NACC", "", "ABSENT", "", "0", 0, "", "", "", "", "", 1.0, "SCREENING 1", -7, "TREATMENT", "2013-08-20", -7]
["CDISCPILOT01", "QS", "01-704-1009", 1008, "MHITM08", "EMOTIONAL INCONTINENCE", "MHIS-NACC", "", "ABSENT", "", "0", 0, "", "", "", "", "", 1.0, "SCREENING 1", -7, "TREATMENT", "2013-08-20", -7]
["CDISCPILOT01", "QS", "01-704-1009", 1009, "MHITM09", "HISTORY OF HYPERTENSION", "MHIS-NACC", "", "ABSENT", "", "0", 0, "", "", "", "", "", 1.0, "SCREENING 1", -7, "TREATMENT", "2013-08-20", -7]
["CDISCPILOT01", "QS", "01-704-1009", 1010, "MHITM10", "HISTORY OF STROKES", "MHIS-NACC", "", "ABSENT", "", "0", 0, "", "", "", "", "", 1.0, "SCREENING 1", -7, "TREATMENT", "2013-08-20", -7]
["CDISCPILOT01", "QS", "01-704-1009", 1011, "MHITM11", "EVIDENCE OF ASSOCIATED ATHEROSCLEROSIS", "MHIS-NACC", "", "ABSENT", "", "0", 0, "", "", "", "", "", 1.0, "SCREENING 1", -7, "TREATMENT", "2013-08-20", -7]
["CDISCPILOT01", "QS", "01-704-1009", 1012, "MHITM12", "FOCAL NEUROLOGICAL SYMPTOMS", "MHIS-NACC", "", "ABSENT", "", "0", 0, "", "", "", "", "", 1.0, "SCREENING 1", -7, "TREATMENT", "2013-08-20", -7]
["CDISCPILOT01", "QS", "01-704-1009", 1013, "MHITM13", "FOCAL NEUROLOGICAL SIGNS", "MHIS-NACC", "", "ABSENT", "", "0", 0, "", "", "", "", "", 1.0, "SCREENING 1", -7, "TREATMENT", "2013-08-20", -7]
["CDISCPILOT01", "QS", "01-704-1010", 1001, "MHITM01", "ABRUPT ONSET", "MHIS-NACC", "", "ABSENT", "", "0", 0, "", "", "", "", "", 1.0, "SCREENING 1", -7, "TREATMENT", "2014-02-08", -13]
["CDISCPILOT01", "QS", "01-704-1010", 1002, "MHITM02", "STEPWISE DETERIORATION", "MHIS-NACC", "", "ABSENT", "", "0", 0, "", "", "", "", "", 1.0, "SCREENING 1", -7, "TREATMENT", "2014-02-08", -13]
["CDISCPILOT01", "QS", "01-704-1010", 1003, "MHITM03", "FLUCTUATING COURSE", "MHIS-NACC", "", "ABSENT", "", "0", 0, "", "", "", "", "", 1.0, "SCREENING 1", -7, "TREATMENT", "2014-02-08", -13]
["CDISCPILOT01", "QS", "01-704-1010", 1004, "MHITM04", "NOCTURNAL CONFUSION", "MHIS-NACC", "", "ABSENT", "", "0", 0, "", "", "", "", "", 1.0, "SCREENING 1", -7, "TREATMENT", "2014-02-08", -13]
["CDISCPILOT01", "QS", "01-704-1010", 1005, "MHITM05", "RELATIVE PRESERVATION OF PERSONALITY", "MHIS-NACC", "", "ABSENT", "", "0", 0, "", "", "", "", "", 1.0, "SCREENING 1", -7, "TREATMENT", "2014-02-08", -13]
["CDISCPILOT01", "QS", "01-704-1010", 1006, "MHITM06", "DEPRESSION", "MHIS-NACC", "", "ABSENT", "", "0", 0, "", "", "", "", "", 1.0, "SCREENING 1", -7, "TREATMENT", "2014-02-08", -13]
["CDISCPILOT01", "QS", "01-704-1010", 1007, "MHITM07", "SOMATIC COMPLAINTS", "MHIS-NACC", "", "ABSENT", "", "0", 0, "", "", "", "", "", 1.0, "SCREENING 1", -7, "TREATMENT", "2014-02-08", -13]
["CDISCPILOT01", "QS", "01-704-1010", 1008, "MHITM08", "EMOTIONAL INCONTINENCE", "MHIS-NACC", "", "ABSENT", "", "0", 0, "", "", "", "", "", 1.0, "SCREENING 1", -7, "TREATMENT", "2014-02-08", -13]
["CDISCPILOT01", "QS", "01-704-1010", 1009, "MHITM09", "HISTORY OF HYPERTENSION", "MHIS-NACC", "", "PRESENT", "", "1", 1, "", "", "", "", "", 1.0, "SCREENING 1", -7, "TREATMENT", "2014-02-08", -13]
["CDISCPILOT01", "QS", "01-704-1010", 1010, "MHITM10", "HISTORY OF STROKES", "MHIS-NACC", "", "ABSENT", "", "0", 0, "", "", "", "", "", 1.0, "SCREENING 1", -7, "TREATMENT", "2014-02-08", -13]
["CDISCPILOT01", "QS", "01-704-1010", 1011, "MHITM11", "EVIDENCE OF ASSOCIATED ATHEROSCLEROSIS", "MHIS-NACC", "", "ABSENT", "", "0", 0, "", "", "", "", "", 1.0, "SCREENING 1", -7, "TREATMENT", "2014-02-08", -13]
["CDISCPILOT01", "QS", "01-704-1010", 1012, "MHITM12", "FOCAL NEUROLOGICAL SYMPTOMS", "MHIS-NACC", "", "ABSENT", "", "0", 0, "", "", "", "", "", 1.0, "SCREENING 1", -7, "TREATMENT", "2014-02-08", -13]
["CDISCPILOT01", "QS", "01-704-1010", 1013, "MHITM13", "FOCAL NEUROLOGICAL SIGNS", "MHIS-NACC", "", "ABSENT", "", "0", 0, "", "", "", "", "", 1.0, "SCREENING 1", -7, "TREATMENT", "2014-02-08", -13]
["CDISCPILOT01", "QS", "01-704-1017", 1001, "MHITM01", "ABRUPT ONSET", "MHIS-NACC", "", "ABSENT", "", "0", 0, "", "", "", "", "", 1.0, "SCREENING 1", -7, "TREATMENT", "2013-09-20", -16]
["CDISCPILOT01", "QS", "01-704-1017", 1002, "MHITM02", "STEPWISE DETERIORATION", "MHIS-NACC", "", "ABSENT", "", "0", 0, "", "", "", "", "", 1.0, "SCREENING 1", -7, "TREATMENT", "2013-09-20", -16]
["CDISCPILOT01", "QS", "01-704-1017", 1003, "MHITM03", "FLUCTUATING COURSE", "MHIS-NACC", "", "ABSENT", "", "0", 0, "", "", "", "", "", 1.0, "SCREENING 1", -7, "TREATMENT", "2013-09-20", -16]
["CDISCPILOT01", "QS", "01-704-1017", 1004, "MHITM04", "NOCTURNAL CONFUSION", "MHIS-NACC", "", "ABSENT", "", "0", 0, "", "", "", "", "", 1.0, "SCREENING 1", -7, "TREATMENT", "2013-09-20", -16]
["CDISCPILOT01", "QS", "01-704-1017", 1005, "MHITM05", "RELATIVE PRESERVATION OF PERSONALITY", "MHIS-NACC", "", "ABSENT", "", "0", 0, "", "", "", "", "", 1.0, "SCREENING 1", -7, "TREATMENT", "2013-09-20", -16]
["CDISCPILOT01", "QS", "01-704-1017", 1006, "MHITM06", "DEPRESSION", "MHIS-NACC", "", "ABSENT", "", "0", 0, "", "", "", "", "", 1.0, "SCREENING 1", -7, "TREATMENT", "2013-09-20", -16]
["CDISCPILOT01", "QS", "01-704-1017", 1007, "MHITM07", "SOMATIC COMPLAINTS", "MHIS-NACC", "", "ABSENT", "", "0", 0, "", "", "", "", "", 1.0, "SCREENING 1", -7, "TREATMENT", "2013-09-20", -16]
["CDISCPILOT01", "QS", "01-704-1017", 1008, "MHITM08", "EMOTIONAL INCONTINENCE", "MHIS-NACC", "", "ABSENT", "", "0", 0, "", "", "", "", "", 1.0, "SCREENING 1", -7, "TREATMENT", "2013-09-20", -16]
["CDISCPILOT01", "QS", "01-704-1017", 1009, "MHITM09", "HISTORY OF HYPERTENSION", "MHIS-NACC", "", "ABSENT", "", "0", 0, "", "", "", "", "", 1.0, "SCREENING 1", -7, "TREATMENT", "2013-09-20", -16]
["CDISCPILOT01", "QS", "01-704-1017", 1010, "MHITM10", "HISTORY OF STROKES", "MHIS-NACC", "", "ABSENT", "", "0", 0, "", "", "", "", "", 1.0, "SCREENING 1", -7, "TREATMENT", "2013-09-20", -16]
["CDISCPILOT01", "QS", "01-704-1017", 1011, "MHITM11", "EVIDENCE OF ASSOCIATED ATHEROSCLEROSIS", "MHIS-NACC", "", "ABSENT", "", "0", 0, "", "", "", "", "", 1.0, "SCREENING 1", -7, "TREATMENT", "2013-09-20", -16]
["CDISCPILOT01", "QS", "01-704-1017", 1012, "MHITM12", "FOCAL NEUROLOGICAL SYMPTOMS", "MHIS-NACC", "", "ABSENT", "", "0", 0, "", "", "", "", "", 1.0, "SCREENING 1", -7, "TREATMENT", "2013-09-20", -16]
["CDISCPILOT01", "QS", "01-704-1017", 1013, "MHITM13", "FOCAL NEUROLOGICAL SIGNS", "MHIS-NACC", "", "ABSENT", "", "0", 0, "", "", "", "", "", 1.0, "SCREENING 1", -7, "TREATMENT", "2013-09-20", -16]
["CDISCPILOT01", "QS", "01-704-1025", 1001, "MHITM01", "ABRUPT ONSET", "MHIS-NACC", "", "ABSENT", "", "0", 0, "", "", "", "", "", 1.0, "SCREENING 1", -7, "TREATMENT", "2013-09-18", -9]
["CDISCPILOT01", "QS", "01-704-1025", 1002, "MHITM02", "STEPWISE DETERIORATION", "MHIS-NACC", "", "ABSENT", "", "0", 0, "", "", "", "", "", 1.0, "SCREENING 1", -7, "TREATMENT", "2013-09-18", -9]
["CDISCPILOT01", "QS", "01-704-1025", 1003, "MHITM03", "FLUCTUATING COURSE", "MHIS-NACC", "", "ABSENT", "", "0", 0, "", "", "", "", "", 1.0, "SCREENING 1", -7, "TREATMENT", "2013-09-18", -9]
["CDISCPILOT01", "QS", "01-704-1025", 1004, "MHITM04", "NOCTURNAL CONFUSION", "MHIS-NACC", "", "ABSENT", "", "0", 0, "", "", "", "", "", 1.0, "SCREENING 1", -7, "TREATMENT", "2013-09-18", -9]
["CDISCPILOT01", "QS", "01-704-1025", 1005, "MHITM05", "RELATIVE PRESERVATION OF PERSONALITY", "MHIS-NACC", "", "ABSENT", "", "0", 0, "", "", "", "", "", 1.0, "SCREENING 1", -7, "TREATMENT", "2013-09-18", -9]
["CDISCPILOT01", "QS", "01-704-1025", 1006, "MHITM06", "DEPRESSION", "MHIS-NACC", "", "ABSENT", "", "0", 0, "", "", "", "", "", 1.0, "SCREENING 1", -7, "TREATMENT", "2013-09-18", -9]
["CDISCPILOT01", "QS", "01-704-1025", 1007, "MHITM07", "SOMATIC COMPLAINTS", "MHIS-NACC", "", "ABSENT", "", "0", 0, "", "", "", "", "", 1.0, "SCREENING 1", -7, "TREATMENT", "2013-09-18", -9]
["CDISCPILOT01", "QS", "01-704-1025", 1008, "MHITM08", "EMOTIONAL INCONTINENCE", "MHIS-NACC", "", "ABSENT", "", "0", 0, "", "", "", "", "", 1.0, "SCREENING 1", -7, "TREATMENT", "2013-09-18", -9]
["CDISCPILOT01", "QS", "01-704-1025", 1009, "MHITM09", "HISTORY OF HYPERTENSION", "MHIS-NACC", "", "ABSENT", "", "0", 0, "", "", "", "", "", 1.0, "SCREENING 1", -7, "TREATMENT", "2013-09-18", -9]
["CDISCPILOT01", "QS", "01-704-1025", 1010, "MHITM10", "HISTORY OF STROKES", "MHIS-NACC", "", "ABSENT", "", "0", 0, "", "", "", "", "", 1.0, "SCREENING 1", -7, "TREATMENT", "2013-09-18", -9]
["CDISCPILOT01", "QS", "01-704-1025", 1011, "MHITM11", "EVIDENCE OF ASSOCIATED ATHEROSCLEROSIS", "MHIS-NACC", "", "ABSENT", "", "0", 0, "", "", "", "", "", 1.0, "SCREENING 1", -7, "TREATMENT", "2013-09-18", -9]
["CDISCPILOT01", "QS", "01-704-1025", 1012, "MHITM12", "FOCAL NEUROLOGICAL SYMPTOMS", "MHIS-NACC", "", "ABSENT", "", "0", 0, "", "", "", "", "", 1.0, "SCREENING 1", -7, "TREATMENT", "2013-09-18", -9]
["CDISCPILOT01", "QS", "01-704-1025", 1013, "MHITM13", "FOCAL NEUROLOGICAL SIGNS", "MHIS-NACC", "", "ABSENT", "", "0", 0, "", "", "", "", "", 1.0, "SCREENING 1", -7, "TREATMENT", "2013-09-18", -9]
["CDISCPILOT01", "QS", "01-704-1065", 1001, "MHITM01", "ABRUPT ONSET", "MHIS-NACC", "", "ABSENT", "", "0", 0, "", "", "", "", "", 1.0, "SCREENING 1", -7, "TREATMENT", "2013-10-17", -7]
["CDISCPILOT01", "QS", "01-704-1065", 1002, "MHITM02", "STEPWISE DETERIORATION", "MHIS-NACC", "", "ABSENT", "", "0", 0, "", "", "", "", "", 1.0, "SCREENING 1", -7, "TREATMENT", "2013-10-17", -7]
["CDISCPILOT01", "QS", "01-704-1065", 1003, "MHITM03", "FLUCTUATING COURSE", "MHIS-NACC", "", "PRESENT", "", "2", 2, "", "", "", "", "", 1.0, "SCREENING 1", -7, "TREATMENT", "2013-10-17", -7]
["CDISCPILOT01", "QS", "01-704-1065", 1004, "MHITM04", "NOCTURNAL CONFUSION", "MHIS-NACC", "", "ABSENT", "", "0", 0, "", "", "", "", "", 1.0, "SCREENING 1", -7, "TREATMENT", "2013-10-17", -7]
["CDISCPILOT01", "QS", "01-704-1065", 1005, "MHITM05", "RELATIVE PRESERVATION OF PERSONALITY", "MHIS-NACC", "", "ABSENT", "", "0", 0, "", "", "", "", "", 1.0, "SCREENING 1", -7, "TREATMENT", "2013-10-17", -7]
["CDISCPILOT01", "QS", "01-704-1065", 1006, "MHITM06", "DEPRESSION", "MHIS-NACC", "", "ABSENT", "", "0", 0, "", "", "", "", "", 1.0, "SCREENING 1", -7, "TREATMENT", "2013-10-17", -7]
["CDISCPILOT01", "QS", "01-704-1065", 1007, "MHITM07", "SOMATIC COMPLAINTS", "MHIS-NACC", "", "ABSENT", "", "0", 0, "", "", "", "", "", 1.0, "SCREENING 1", -7, "TREATMENT", "2013-10-17", -7]
["CDISCPILOT01", "QS", "01-704-1065", 1008, "MHITM08", "EMOTIONAL INCONTINENCE", "MHIS-NACC", "", "ABSENT", "", "0", 0, "", "", "", "", "", 1.0, "SCREENING 1", -7, "TREATMENT", "2013-10-17", -7]
["CDISCPILOT01", "QS", "01-704-1065", 1009, "MHITM09", "HISTORY OF HYPERTENSION", "MHIS-NACC", "", "PRESENT", "", "1", 1, "", "", "", "", "", 1.0, "SCREENING 1", -7, "TREATMENT", "2013-10-17", -7]
["CDISCPILOT01", "QS", "01-704-1065", 1010, "MHITM10", "HISTORY OF STROKES", "MHIS-NACC", "", "ABSENT", "", "0", 0, "", "", "", "", "", 1.0, "SCREENING 1", -7, "TREATMENT", "2013-10-17", -7]
["CDISCPILOT01", "QS", "01-704-1065", 1011, "MHITM11", "EVIDENCE OF ASSOCIATED ATHEROSCLEROSIS", "MHIS-NACC", "", "ABSENT", "", "0", 0, "", "", "", "", "", 1.0, "SCREENING 1", -7, "TREATMENT", "2013-10-17", -7]
["CDISCPILOT01", "QS", "01-704-1065", 1012, "MHITM12", "FOCAL NEUROLOGICAL SYMPTOMS", "MHIS-NACC", "", "ABSENT", "", "0", 0, "", "", "", "", "", 1.0, "SCREENING 1", -7, "TREATMENT", "2013-10-17", -7]
["CDISCPILOT01", "QS", "01-704-1065", 1013, "MHITM13", "FOCAL NEUROLOGICAL SIGNS", "MHIS-NACC", "", "ABSENT", "", "0", 0, "", "", "", "", "", 1.0, "SCREENING 1", -7, "TREATMENT", "2013-10-17", -7]
["CDISCPILOT01", "QS", "01-704-1074", 1001, "MHITM01", "ABRUPT ONSET", "MHIS-NACC", "", "ABSENT", "", "0", 0, "", "", "", "", "", 1.0, "SCREENING 1", -7, "TREATMENT", "2014-01-19", -3]
["CDISCPILOT01", "QS", "01-704-1074", 1002, "MHITM02", "STEPWISE DETERIORATION", "MHIS-NACC", "", "ABSENT", "", "0", 0, "", "", "", "", "", 1.0, "SCREENING 1", -7, "TREATMENT", "2014-01-19", -3]
["CDISCPILOT01", "QS", "01-704-1074", 1003, "MHITM03", "FLUCTUATING COURSE", "MHIS-NACC", "", "ABSENT", "", "0", 0, "", "", "", "", "", 1.0, "SCREENING 1", -7, "TREATMENT", "2014-01-19", -3]
["CDISCPILOT01", "QS", "01-704-1074", 1004, "MHITM04", "NOCTURNAL CONFUSION", "MHIS-NACC", "", "ABSENT", "", "0", 0, "", "", "", "", "", 1.0, "SCREENING 1", -7, "TREATMENT", "2014-01-19", -3]
["CDISCPILOT01", "QS", "01-704-1074", 1005, "MHITM05", "RELATIVE PRESERVATION OF PERSONALITY", "MHIS-NACC", "", "ABSENT", "", "0", 0, "", "", "", "", "", 1.0, "SCREENING 1", -7, "TREATMENT", "2014-01-19", -3]
["CDISCPILOT01", "QS", "01-704-1074", 1006, "MHITM06", "DEPRESSION", "MHIS-NACC", "", "ABSENT", "", "0", 0, "", "", "", "", "", 1.0, "SCREENING 1", -7, "TREATMENT", "2014-01-19", -3]
["CDISCPILOT01", "QS", "01-704-1074", 1007, "MHITM07", "SOMATIC COMPLAINTS", "MHIS-NACC", "", "ABSENT", "", "0", 0, "", "", "", "", "", 1.0, "SCREENING 1", -7, "TREATMENT", "2014-01-19", -3]
["CDISCPILOT01", "QS", "01-704-1074", 1008, "MHITM08", "EMOTIONAL INCONTINENCE", "MHIS-NACC", "", "ABSENT", "", "0", 0, "", "", "", "", "", 1.0, "SCREENING 1", -7, "TREATMENT", "2014-01-19", -3]
["CDISCPILOT01", "QS", "01-704-1074", 1009, "MHITM09", "HISTORY OF HYPERTENSION", "MHIS-NACC", "", "PRESENT", "", "1", 1, "", "", "", "", "", 1.0, "SCREENING 1", -7, "TREATMENT", "2014-01-19", -3]
["CDISCPILOT01", "QS", "01-704-1074", 1010, "MHITM10", "HISTORY OF STROKES", "MHIS-NACC", "", "ABSENT", "", "0", 0, "", "", "", "", "", 1.0, "SCREENING 1", -7, "TREATMENT", "2014-01-19", -3]
["CDISCPILOT01", "QS", "01-704-1074", 1011, "MHITM11", "EVIDENCE OF ASSOCIATED ATHEROSCLEROSIS", "MHIS-NACC", "", "ABSENT", "", "0", 0, "", "", "", "", "", 1.0, "SCREENING 1", -7, "TREATMENT", "2014-01-19", -3]
["CDISCPILOT01", "QS", "01-704-1074", 1012, "MHITM12", "FOCAL NEUROLOGICAL SYMPTOMS", "MHIS-NACC", "", "ABSENT", "", "0", 0, "", "", "", "", "", 1.0, "SCREENING 1", -7, "TREATMENT", "2014-01-19", -3]
["CDISCPILOT01", "QS", "01-704-1074", 1013, "MHITM13", "FOCAL NEUROLOGICAL SIGNS", "MHIS-NACC", "", "ABSENT", "", "0", 0, "", "", "", "", "", 1.0, "SCREENING 1", -7, "TREATMENT", "2014-01-19", -3]
["CDISCPILOT01", "QS", "01-704-1093", 1001, "MHITM01", "ABRUPT ONSET", "MHIS-NACC", "", "ABSENT", "", "0", 0, "", "", "", "", "", 1.0, "SCREENING 1", -7, "TREATMENT", "2013-02-22", -21]
["CDISCPILOT01", "QS", "01-704-1093", 1002, "MHITM02", "STEPWISE DETERIORATION", "MHIS-NACC", "", "ABSENT", "", "0", 0, "", "", "", "", "", 1.0, "SCREENING 1", -7, "TREATMENT", "2013-02-22", -21]
["CDISCPILOT01", "QS", "01-704-1093", 1003, "MHITM03", "FLUCTUATING COURSE", "MHIS-NACC", "", "ABSENT", "", "0", 0, "", "", "", "", "", 1.0, "SCREENING 1", -7, "TREATMENT", "2013-02-22", -21]
["CDISCPILOT01", "QS", "01-704-1093", 1004, "MHITM04", "NOCTURNAL CONFUSION", "MHIS-NACC", "", "ABSENT", "", "0", 0, "", "", "", "", "", 1.0, "SCREENING 1", -7, "TREATMENT", "2013-02-22", -21]
["CDISCPILOT01", "QS", "01-704-1093", 1005, "MHITM05", "RELATIVE PRESERVATION OF PERSONALITY", "MHIS-NACC", "", "PRESENT", "", "1", 1, "", "", "", "", "", 1.0, "SCREENING 1", -7, "TREATMENT", "2013-02-22", -21]
["CDISCPILOT01", "QS", "01-704-1093", 1006, "MHITM06", "DEPRESSION", "MHIS-NACC", "", "ABSENT", "", "0", 0, "", "", "", "", "", 1.0, "SCREENING 1", -7, "TREATMENT", "2013-02-22", -21]
["CDISCPILOT01", "QS", "01-704-1093", 1007, "MHITM07", "SOMATIC COMPLAINTS", "MHIS-NACC", "", "ABSENT", "", "0", 0, "", "", "", "", "", 1.0, "SCREENING 1", -7, "TREATMENT", "2013-02-22", -21]
["CDISCPILOT01", "QS", "01-704-1093", 1008, "MHITM08", "EMOTIONAL INCONTINENCE", "MHIS-NACC", "", "ABSENT", "", "0", 0, "", "", "", "", "", 1.0, "SCREENING 1", -7, "TREATMENT", "2013-02-22", -21]
["CDISCPILOT01", "QS", "01-704-1093", 1009, "MHITM09", "HISTORY OF HYPERTENSION", "MHIS-NACC", "", "PRESENT", "", "1", 1, "", "", "", "", "", 1.0, "SCREENING 1", -7, "TREATMENT", "2013-02-22", -21]
["CDISCPILOT01", "QS", "01-704-1093", 1010, "MHITM10", "HISTORY OF STROKES", "MHIS-NACC", "", "ABSENT", "", "0", 0, "", "", "", "", "", 1.0, "SCREENING 1", -7, "TREATMENT", "2013-02-22", -21]
["CDISCPILOT01", "QS", "01-704-1093", 1011, "MHITM11", "EVIDENCE OF ASSOCIATED ATHEROSCLEROSIS", "MHIS-NACC", "", "ABSENT", "", "0", 0, "", "", "", "", "", 1.0, "SCREENING 1", -7, "TREATMENT", "2013-02-22", -21]
["CDISCPILOT01", "QS", "01-704-1093", 1012, "MHITM12", "FOCAL NEUROLOGICAL SYMPTOMS", "MHIS-NACC", "", "ABSENT", "", "0", 0, "", "", "", "", "", 1.0, "SCREENING 1", -7, "TREATMENT", "2013-02-22", -21]
["CDISCPILOT01", "QS", "01-704-1093", 1013, "MHITM13", "FOCAL NEUROLOGICAL SIGNS", "MHIS-NACC", "", "ABSENT", "", "0", 0, "", "", "", "", "", 1.0, "SCREENING 1", -7, "TREATMENT", "2013-02-22", -21]
["CDISCPILOT01", "QS", "01-704-1114", 1001, "MHITM01", "ABRUPT ONSET", "MHIS-NACC", "", "ABSENT", "", "0", 0, "", "", "", "", "", 1.0, "SCREENING 1", -7, "TREATMENT", "2013-01-09", -14]
["CDISCPILOT01", "QS", "01-704-1114", 1002, "MHITM02", "STEPWISE DETERIORATION", "MHIS-NACC", "", "ABSENT", "", "0", 0, "", "", "", "", "", 1.0, "SCREENING 1", -7, "TREATMENT", "2013-01-09", -14]
["CDISCPILOT01", "QS", "01-704-1114", 1003, "MHITM03", "FLUCTUATING COURSE", "MHIS-NACC", "", "ABSENT", "", "0", 0, "", "", "", "", "", 1.0, "SCREENING 1", -7, "TREATMENT", "2013-01-09", -14]
["CDISCPILOT01", "QS", "01-704-1114", 1004, "MHITM04", "NOCTURNAL CONFUSION", "MHIS-NACC", "", "ABSENT", "", "0", 0, "", "", "", "", "", 1.0, "SCREENING 1", -7, "TREATMENT", "2013-01-09", -14]
["CDISCPILOT01", "QS", "01-704-1114", 1005, "MHITM05", "RELATIVE PRESERVATION OF PERSONALITY", "MHIS-NACC", "", "ABSENT", "", "0", 0, "", "", "", "", "", 1.0, "SCREENING 1", -7, "TREATMENT", "2013-01-09", -14]
["CDISCPILOT01", "QS", "01-704-1114", 1006, "MHITM06", "DEPRESSION", "MHIS-NACC", "", "ABSENT", "", "0", 0, "", "", "", "", "", 1.0, "SCREENING 1", -7, "TREATMENT", "2013-01-09", -14]
["CDISCPILOT01", "QS", "01-704-1114", 1007, "MHITM07", "SOMATIC COMPLAINTS", "MHIS-NACC", "", "ABSENT", "", "0", 0, "", "", "", "", "", 1.0, "SCREENING 1", -7, "TREATMENT", "2013-01-09", -14]
["CDISCPILOT01", "QS", "01-704-1114", 1008, "MHITM08", "EMOTIONAL INCONTINENCE", "MHIS-NACC", "", "ABSENT", "", "0", 0, "", "", "", "", "", 1.0, "SCREENING 1", -7, "TREATMENT", "2013-01-09", -14]
["CDISCPILOT01", "QS", "01-704-1114", 1009, "MHITM09", "HISTORY OF HYPERTENSION", "MHIS-NACC", "", "ABSENT", "", "0", 0, "", "", "", "", "", 1.0, "SCREENING 1", -7, "TREATMENT", "2013-01-09", -14]
["CDISCPILOT01", "QS", "01-704-1114", 1010, "MHITM10", "HISTORY OF STROKES", "MHIS-NACC", "", "ABSENT", "", "0", 0, "", "", "", "", "", 1.0, "SCREENING 1", -7, "TREATMENT", "2013-01-09", -14]
["CDISCPILOT01", "QS", "01-704-1114", 1011, "MHITM11", "EVIDENCE OF ASSOCIATED ATHEROSCLEROSIS", "MHIS-NACC", "", "PRESENT", "", "1", 1, "", "", "", "", "", 1.0, "SCREENING 1", -7, "TREATMENT", "2013-01-09", -14]
["CDISCPILOT01", "QS", "01-704-1114", 1012, "MHITM12", "FOCAL NEUROLOGICAL SYMPTOMS", "MHIS-NACC", "", "ABSENT", "", "0", 0, "", "", "", "", "", 1.0, "SCREENING 1", -7, "TREATMENT", "2013-01-09", -14]
["CDISCPILOT01", "QS", "01-704-1114", 1013, "MHITM13", "FOCAL NEUROLOGICAL SIGNS", "MHIS-NACC", "", "ABSENT", "", "0", 0, "", "", "", "", "", 1.0, "SCREENING 1", -7, "TREATMENT", "2013-01-09", -14]
["CDISCPILOT01", "QS", "01-704-1120", 1001, "MHITM01", "ABRUPT ONSET", "MHIS-NACC", "", "ABSENT", "", "0", 0, "", "", "", "", "", 1.0, "SCREENING 1", -7, "TREATMENT", "2013-11-18", -14]
["CDISCPILOT01", "QS", "01-704-1120", 1002, "MHITM02", "STEPWISE DETERIORATION", "MHIS-NACC", "", "ABSENT", "", "0", 0, "", "", "", "", "", 1.0, "SCREENING 1", -7, "TREATMENT", "2013-11-18", -14]
["CDISCPILOT01", "QS", "01-704-1120", 1003, "MHITM03", "FLUCTUATING COURSE", "MHIS-NACC", "", "ABSENT", "", "0", 0, "", "", "", "", "", 1.0, "SCREENING 1", -7, "TREATMENT", "2013-11-18", -14]
["CDISCPILOT01", "QS", "01-704-1120", 1004, "MHITM04", "NOCTURNAL CONFUSION", "MHIS-NACC", "", "ABSENT", "", "0", 0, "", "", "", "", "", 1.0, "SCREENING 1", -7, "TREATMENT", "2013-11-18", -14]
["CDISCPILOT01", "QS", "01-704-1120", 1005, "MHITM05", "RELATIVE PRESERVATION OF PERSONALITY", "MHIS-NACC", "", "ABSENT", "", "0", 0, "", "", "", "", "", 1.0, "SCREENING 1", -7, "TREATMENT", "2013-11-18", -14]
["CDISCPILOT01", "QS", "01-704-1120", 1006, "MHITM06", "DEPRESSION", "MHIS-NACC", "", "ABSENT", "", "0", 0, "", "", "", "", "", 1.0, "SCREENING 1", -7, "TREATMENT", "2013-11-18", -14]
["CDISCPILOT01", "QS", "01-704-1120", 1007, "MHITM07", "SOMATIC COMPLAINTS", "MHIS-NACC", "", "ABSENT", "", "0", 0, "", "", "", "", "", 1.0, "SCREENING 1", -7, "TREATMENT", "2013-11-18", -14]
["CDISCPILOT01", "QS", "01-704-1120", 1008, "MHITM08", "EMOTIONAL INCONTINENCE", "MHIS-NACC", "", "ABSENT", "", "0", 0, "", "", "", "", "", 1.0, "SCREENING 1", -7, "TREATMENT", "2013-11-18", -14]
["CDISCPILOT01", "QS", "01-704-1120", 1009, "MHITM09", "HISTORY OF HYPERTENSION", "MHIS-NACC", "", "ABSENT", "", "0", 0, "", "", "", "", "", 1.0, "SCREENING 1", -7, "TREATMENT", "2013-11-18", -14]
["CDISCPILOT01", "QS", "01-704-1120", 1010, "MHITM10", "HISTORY OF STROKES", "MHIS-NACC", "", "ABSENT", "", "0", 0, "", "", "", "", "", 1.0, "SCREENING 1", -7, "TREATMENT", "2013-11-18", -14]
["CDISCPILOT01", "QS", "01-704-1120", 1011, "MHITM11", "EVIDENCE OF ASSOCIATED ATHEROSCLEROSIS", "MHIS-NACC", "", "ABSENT", "", "0", 0, "", "", "", "", "", 1.0, "SCREENING 1", -7, "TREATMENT", "2013-11-18", -14]
["CDISCPILOT01", "QS", "01-704-1120", 1012, "MHITM12", "FOCAL NEUROLOGICAL SYMPTOMS", "MHIS-NACC", "", "ABSENT", "", "0", 0, "", "", "", "", "", 1.0, "SCREENING 1", -7, "TREATMENT", "2013-11-18", -14]
["CDISCPILOT01", "QS", "01-704-1120", 1013, "MHITM13", "FOCAL NEUROLOGICAL SIGNS", "MHIS-NACC", "", "ABSENT", "", "0", 0, "", "", "", "", "", 1.0, "SCREENING 1", -7, "TREATMENT", "2013-11-18", -14]
["CDISCPILOT01", "QS", "01-704-1127", 1001, "MHITM01", "ABRUPT ONSET", "MHIS-NACC", "", "ABSENT", "", "0", 0, "", "", "", "", "", 1.0, "SCREENING 1", -7, "TREATMENT", "2013-09-16", -16]
["CDISCPILOT01", "QS", "01-704-1127", 1002, "MHITM02", "STEPWISE DETERIORATION", "MHIS-NACC", "", "ABSENT", "", "0", 0, "", "", "", "", "", 1.0, "SCREENING 1", -7, "TREATMENT", "2013-09-16", -16]
["CDISCPILOT01", "QS", "01-704-1127", 1003, "MHITM03", "FLUCTUATING COURSE", "MHIS-NACC", "", "ABSENT", "", "0", 0, "", "", "", "", "", 1.0, "SCREENING 1", -7, "TREATMENT", "2013-09-16", -16]
["CDISCPILOT01", "QS", "01-704-1127", 1004, "MHITM04", "NOCTURNAL CONFUSION", "MHIS-NACC", "", "ABSENT", "", "0", 0, "", "", "", "", "", 1.0, "SCREENING 1", -7, "TREATMENT", "2013-09-16", -16]
["CDISCPILOT01", "QS", "01-704-1127", 1005, "MHITM05", "RELATIVE PRESERVATION OF PERSONALITY", "MHIS-NACC", "", "ABSENT", "", "0", 0, "", "", "", "", "", 1.0, "SCREENING 1", -7, "TREATMENT", "2013-09-16", -16]
["CDISCPILOT01", "QS", "01-704-1127", 1006, "MHITM06", "DEPRESSION", "MHIS-NACC", "", "ABSENT", "", "0", 0, "", "", "", "", "", 1.0, "SCREENING 1", -7, "TREATMENT", "2013-09-16", -16]
["CDISCPILOT01", "QS", "01-704-1127", 1007, "MHITM07", "SOMATIC COMPLAINTS", "MHIS-NACC", "", "ABSENT", "", "0", 0, "", "", "", "", "", 1.0, "SCREENING 1", -7, "TREATMENT", "2013-09-16", -16]
["CDISCPILOT01", "QS", "01-704-1127", 1008, "MHITM08", "EMOTIONAL INCONTINENCE", "MHIS-NACC", "", "ABSENT", "", "0", 0, "", "", "", "", "", 1.0, "SCREENING 1", -7, "TREATMENT", "2013-09-16", -16]
["CDISCPILOT01", "QS", "01-704-1127", 1009, "MHITM09", "HISTORY OF HYPERTENSION", "MHIS-NACC", "", "ABSENT", "", "0", 0, "", "", "", "", "", 1.0, "SCREENING 1", -7, "TREATMENT", "2013-09-16", -16]
["CDISCPILOT01", "QS", "01-704-1127", 1010, "MHITM10", "HISTORY OF STROKES", "MHIS-NACC", "", "ABSENT", "", "0", 0, "", "", "", "", "", 1.0, "SCREENING 1", -7, "TREATMENT", "2013-09-16", -16]
["CDISCPILOT01", "QS", "01-704-1127", 1011, "MHITM11", "EVIDENCE OF ASSOCIATED ATHEROSCLEROSIS", "MHIS-NACC", "", "ABSENT", "", "0", 0, "", "", "", "", "", 1.0, "SCREENING 1", -7, "TREATMENT", "2013-09-16", -16]
["CDISCPILOT01", "QS", "01-704-1127", 1012, "MHITM12", "FOCAL NEUROLOGICAL SYMPTOMS", "MHIS-NACC", "", "ABSENT", "", "0", 0, "", "", "", "", "", 1.0, "SCREENING 1", -7, "TREATMENT", "2013-09-16", -16]
["CDISCPILOT01", "QS", "01-704-1127", 1013, "MHITM13", "FOCAL NEUROLOGICAL SIGNS", "MHIS-NACC", "", "ABSENT", "", "0", 0, "", "", "", "", "", 1.0, "SCREENING 1", -7, "TREATMENT", "2013-09-16", -16]
["CDISCPILOT01", "QS", "01-704-1135", 1001, "MHITM01", "ABRUPT ONSET", "MHIS-NACC", "", "ABSENT", "", "0", 0, "", "", "", "", "", 1.0, "SCREENING 1", -7, "TREATMENT", "2013-10-23", -8]
["CDISCPILOT01", "QS", "01-704-1135", 1002, "MHITM02", "STEPWISE DETERIORATION", "MHIS-NACC", "", "ABSENT", "", "0", 0, "", "", "", "", "", 1.0, "SCREENING 1", -7, "TREATMENT", "2013-10-23", -8]
["CDISCPILOT01", "QS", "01-704-1135", 1003, "MHITM03", "FLUCTUATING COURSE", "MHIS-NACC", "", "ABSENT", "", "0", 0, "", "", "", "", "", 1.0, "SCREENING 1", -7, "TREATMENT", "2013-10-23", -8]
["CDISCPILOT01", "QS", "01-704-1135", 1004, "MHITM04", "NOCTURNAL CONFUSION", "MHIS-NACC", "", "ABSENT", "", "0", 0, "", "", "", "", "", 1.0, "SCREENING 1", -7, "TREATMENT", "2013-10-23", -8]
["CDISCPILOT01", "QS", "01-704-1135", 1005, "MHITM05", "RELATIVE PRESERVATION OF PERSONALITY", "MHIS-NACC", "", "ABSENT", "", "0", 0, "", "", "", "", "", 1.0, "SCREENING 1", -7, "TREATMENT", "2013-10-23", -8]
["CDISCPILOT01", "QS", "01-704-1135", 1006, "MHITM06", "DEPRESSION", "MHIS-NACC", "", "ABSENT", "", "0", 0, "", "", "", "", "", 1.0, "SCREENING 1", -7, "TREATMENT", "2013-10-23", -8]
["CDISCPILOT01", "QS", "01-704-1135", 1007, "MHITM07", "SOMATIC COMPLAINTS", "MHIS-NACC", "", "ABSENT", "", "0", 0, "", "", "", "", "", 1.0, "SCREENING 1", -7, "TREATMENT", "2013-10-23", -8]
["CDISCPILOT01", "QS", "01-704-1135", 1008, "MHITM08", "EMOTIONAL INCONTINENCE", "MHIS-NACC", "", "ABSENT", "", "0", 0, "", "", "", "", "", 1.0, "SCREENING 1", -7, "TREATMENT", "2013-10-23", -8]
["CDISCPILOT01", "QS", "01-704-1135", 1009, "MHITM09", "HISTORY OF HYPERTENSION", "MHIS-NACC", "", "ABSENT", "", "0", 0, "", "", "", "", "", 1.0, "SCREENING 1", -7, "TREATMENT", "2013-10-23", -8]
["CDISCPILOT01", "QS", "01-704-1135", 1010, "MHITM10", "HISTORY OF STROKES", "MHIS-NACC", "", "ABSENT", "", "0", 0, "", "", "", "", "", 1.0, "SCREENING 1", -7, "TREATMENT", "2013-10-23", -8]
["CDISCPILOT01", "QS", "01-704-1135", 1011, "MHITM11", "EVIDENCE OF ASSOCIATED ATHEROSCLEROSIS", "MHIS-NACC", "", "ABSENT", "", "0", 0, "", "", "", "", "", 1.0, "SCREENING 1", -7, "TREATMENT", "2013-10-23", -8]
["CDISCPILOT01", "QS", "01-704-1135", 1012, "MHITM12", "FOCAL NEUROLOGICAL SYMPTOMS", "MHIS-NACC", "", "ABSENT", "", "0", 0, "", "", "", "", "", 1.0, "SCREENING 1", -7, "TREATMENT", "2013-10-23", -8]
["CDISCPILOT01", "QS", "01-704-1135", 1013, "MHITM13", "FOCAL NEUROLOGICAL SIGNS", "MHIS-NACC", "", "ABSENT", "", "0", 0, "", "", "", "", "", 1.0, "SCREENING 1", -7, "TREATMENT", "2013-10-23", -8]
["CDISCPILOT01", "QS", "01-704-1164", 1001, "MHITM01", "ABRUPT ONSET", "MHIS-NACC", "", "ABSENT", "", "0", 0, "", "", "", "", "", 1.0, "SCREENING 1", -7, "TREATMENT", "2012-09-11", -8]
["CDISCPILOT01", "QS", "01-704-1164", 1002, "MHITM02", "STEPWISE DETERIORATION", "MHIS-NACC", "", "ABSENT", "", "0", 0, "", "", "", "", "", 1.0, "SCREENING 1", -7, "TREATMENT", "2012-09-11", -8]
["CDISCPILOT01", "QS", "01-704-1164", 1003, "MHITM03", "FLUCTUATING COURSE", "MHIS-NACC", "", "ABSENT", "", "0", 0, "", "", "", "", "", 1.0, "SCREENING 1", -7, "TREATMENT", "2012-09-11", -8]
["CDISCPILOT01", "QS", "01-704-1164", 1004, "MHITM04", "NOCTURNAL CONFUSION", "MHIS-NACC", "", "ABSENT", "", "0", 0, "", "", "", "", "", 1.0, "SCREENING 1", -7, "TREATMENT", "2012-09-11", -8]
["CDISCPILOT01", "QS", "01-704-1164", 1005, "MHITM05", "RELATIVE PRESERVATION OF PERSONALITY", "MHIS-NACC", "", "ABSENT", "", "0", 0, "", "", "", "", "", 1.0, "SCREENING 1", -7, "TREATMENT", "2012-09-11", -8]
["CDISCPILOT01", "QS", "01-704-1164", 1006, "MHITM06", "DEPRESSION", "MHIS-NACC", "", "ABSENT", "", "0", 0, "", "", "", "", "", 1.0, "SCREENING 1", -7, "TREATMENT", "2012-09-11", -8]
["CDISCPILOT01", "QS", "01-704-1164", 1007, "MHITM07", "SOMATIC COMPLAINTS", "MHIS-NACC", "", "ABSENT", "", "0", 0, "", "", "", "", "", 1.0, "SCREENING 1", -7, "TREATMENT", "2012-09-11", -8]
["CDISCPILOT01", "QS", "01-704-1164", 1008, "MHITM08", "EMOTIONAL INCONTINENCE", "MHIS-NACC", "", "ABSENT", "", "0", 0, "", "", "", "", "", 1.0, "SCREENING 1", -7, "TREATMENT", "2012-09-11", -8]
["CDISCPILOT01", "QS", "01-704-1164", 1009, "MHITM09", "HISTORY OF HYPERTENSION", "MHIS-NACC", "", "ABSENT", "", "0", 0, "", "", "", "", "", 1.0, "SCREENING 1", -7, "TREATMENT", "2012-09-11", -8]
["CDISCPILOT01", "QS", "01-704-1164", 1010, "MHITM10", "HISTORY OF STROKES", "MHIS-NACC", "", "ABSENT", "", "0", 0, "", "", "", "", "", 1.0, "SCREENING 1", -7, "TREATMENT", "2012-09-11", -8]
["CDISCPILOT01", "QS", "01-704-1164", 1011, "MHITM11", "EVIDENCE OF ASSOCIATED ATHEROSCLEROSIS", "MHIS-NACC", "", "ABSENT", "", "0", 0, "", "", "", "", "", 1.0, "SCREENING 1", -7, "TREATMENT", "2012-09-11", -8]
["CDISCPILOT01", "QS", "01-704-1164", 1012, "MHITM12", "FOCAL NEUROLOGICAL SYMPTOMS", "MHIS-NACC", "", "ABSENT", "", "0", 0, "", "", "", "", "", 1.0, "SCREENING 1", -7, "TREATMENT", "2012-09-11", -8]
["CDISCPILOT01", "QS", "01-704-1164", 1013, "MHITM13", "FOCAL NEUROLOGICAL SIGNS", "MHIS-NACC", "", "ABSENT", "", "0", 0, "", "", "", "", "", 1.0, "SCREENING 1", -7, "TREATMENT", "2012-09-11", -8]
["CDISCPILOT01", "QS", "01-704-1218", 1001, "MHITM01", "ABRUPT ONSET", "MHIS-NACC", "", "ABSENT", "", "0", 0, "", "", "", "", "", 1.0, "SCREENING 1", -7, "TREATMENT", "2012-11-11", -8]
["CDISCPILOT01", "QS", "01-704-1218", 1002, "MHITM02", "STEPWISE DETERIORATION", "MHIS-NACC", "", "ABSENT", "", "0", 0, "", "", "", "", "", 1.0, "SCREENING 1", -7, "TREATMENT", "2012-11-11", -8]
["CDISCPILOT01", "QS", "01-704-1218", 1003, "MHITM03", "FLUCTUATING COURSE", "MHIS-NACC", "", "ABSENT", "", "0", 0, "", "", "", "", "", 1.0, "SCREENING 1", -7, "TREATMENT", "2012-11-11", -8]
["CDISCPILOT01", "QS", "01-704-1218", 1004, "MHITM04", "NOCTURNAL CONFUSION", "MHIS-NACC", "", "ABSENT", "", "0", 0, "", "", "", "", "", 1.0, "SCREENING 1", -7, "TREATMENT", "2012-11-11", -8]
["CDISCPILOT01", "QS", "01-704-1218", 1005, "MHITM05", "RELATIVE PRESERVATION OF PERSONALITY", "MHIS-NACC", "", "ABSENT", "", "0", 0, "", "", "", "", "", 1.0, "SCREENING 1", -7, "TREATMENT", "2012-11-11", -8]
["CDISCPILOT01", "QS", "01-704-1218", 1006, "MHITM06", "DEPRESSION", "MHIS-NACC", "", "ABSENT", "", "0", 0, "", "", "", "", "", 1.0, "SCREENING 1", -7, "TREATMENT", "2012-11-11", -8]
["CDISCPILOT01", "QS", "01-704-1218", 1007, "MHITM07", "SOMATIC COMPLAINTS", "MHIS-NACC", "", "ABSENT", "", "0", 0, "", "", "", "", "", 1.0, "SCREENING 1", -7, "TREATMENT", "2012-11-11", -8]
["CDISCPILOT01", "QS", "01-704-1218", 1008, "MHITM08", "EMOTIONAL INCONTINENCE", "MHIS-NACC", "", "ABSENT", "", "0", 0, "", "", "", "", "", 1.0, "SCREENING 1", -7, "TREATMENT", "2012-11-11", -8]
["CDISCPILOT01", "QS", "01-704-1218", 1009, "MHITM09", "HISTORY OF HYPERTENSION", "MHIS-NACC", "", "PRESENT", "", "1", 1, "", "", "", "", "", 1.0, "SCREENING 1", -7, "TREATMENT", "2012-11-11", -8]
["CDISCPILOT01", "QS", "01-704-1218", 1010, "MHITM10", "HISTORY OF STROKES", "MHIS-NACC", "", "ABSENT", "", "0", 0, "", "", "", "", "", 1.0, "SCREENING 1", -7, "TREATMENT", "2012-11-11", -8]
["CDISCPILOT01", "QS", "01-704-1218", 1011, "MHITM11", "EVIDENCE OF ASSOCIATED ATHEROSCLEROSIS", "MHIS-NACC", "", "ABSENT", "", "0", 0, "", "", "", "", "", 1.0, "SCREENING 1", -7, "TREATMENT", "2012-11-11", -8]
["CDISCPILOT01", "QS", "01-704-1218", 1012, "MHITM12", "FOCAL NEUROLOGICAL SYMPTOMS", "MHIS-NACC", "", "ABSENT", "", "0", 0, "", "", "", "", "", 1.0, "SCREENING 1", -7, "TREATMENT", "2012-11-11", -8]
["CDISCPILOT01", "QS", "01-704-1218", 1013, "MHITM13", "FOCAL NEUROLOGICAL SIGNS", "MHIS-NACC", "", "ABSENT", "", "0", 0, "", "", "", "", "", 1.0, "SCREENING 1", -7, "TREATMENT", "2012-11-11", -8]
["CDISCPILOT01", "QS", "01-704-1233", 1001, "MHITM01", "ABRUPT ONSET", "MHIS-NACC", "", "ABSENT", "", "0", 0, "", "", "", "", "", 1.0, "SCREENING 1", -7, "TREATMENT", "2013-03-08", -13]
["CDISCPILOT01", "QS", "01-704-1233", 1002, "MHITM02", "STEPWISE DETERIORATION", "MHIS-NACC", "", "ABSENT", "", "0", 0, "", "", "", "", "", 1.0, "SCREENING 1", -7, "TREATMENT", "2013-03-08", -13]
["CDISCPILOT01", "QS", "01-704-1233", 1003, "MHITM03", "FLUCTUATING COURSE", "MHIS-NACC", "", "ABSENT", "", "0", 0, "", "", "", "", "", 1.0, "SCREENING 1", -7, "TREATMENT", "2013-03-08", -13]
["CDISCPILOT01", "QS", "01-704-1233", 1004, "MHITM04", "NOCTURNAL CONFUSION", "MHIS-NACC", "", "ABSENT", "", "0", 0, "", "", "", "", "", 1.0, "SCREENING 1", -7, "TREATMENT", "2013-03-08", -13]
["CDISCPILOT01", "QS", "01-704-1233", 1005, "MHITM05", "RELATIVE PRESERVATION OF PERSONALITY", "MHIS-NACC", "", "ABSENT", "", "0", 0, "", "", "", "", "", 1.0, "SCREENING 1", -7, "TREATMENT", "2013-03-08", -13]
["CDISCPILOT01", "QS", "01-704-1233", 1006, "MHITM06", "DEPRESSION", "MHIS-NACC", "", "ABSENT", "", "0", 0, "", "", "", "", "", 1.0, "SCREENING 1", -7, "TREATMENT", "2013-03-08", -13]
["CDISCPILOT01", "QS", "01-704-1233", 1007, "MHITM07", "SOMATIC COMPLAINTS", "MHIS-NACC", "", "ABSENT", "", "0", 0, "", "", "", "", "", 1.0, "SCREENING 1", -7, "TREATMENT", "2013-03-08", -13]
["CDISCPILOT01", "QS", "01-704-1233", 1008, "MHITM08", "EMOTIONAL INCONTINENCE", "MHIS-NACC", "", "ABSENT", "", "0", 0, "", "", "", "", "", 1.0, "SCREENING 1", -7, "TREATMENT", "2013-03-08", -13]
["CDISCPILOT01", "QS", "01-704-1233", 1009, "MHITM09", "HISTORY OF HYPERTENSION", "MHIS-NACC", "", "ABSENT", "", "0", 0, "", "", "", "", "", 1.0, "SCREENING 1", -7, "TREATMENT", "2013-03-08", -13]
["CDISCPILOT01", "QS", "01-704-1233", 1010, "MHITM10", "HISTORY OF STROKES", "MHIS-NACC", "", "ABSENT", "", "0", 0, "", "", "", "", "", 1.0, "SCREENING 1", -7, "TREATMENT", "2013-03-08", -13]
["CDISCPILOT01", "QS", "01-704-1233", 1011, "MHITM11", "EVIDENCE OF ASSOCIATED ATHEROSCLEROSIS", "MHIS-NACC", "", "ABSENT", "", "0", 0, "", "", "", "", "", 1.0, "SCREENING 1", -7, "TREATMENT", "2013-03-08", -13]
["CDISCPILOT01", "QS", "01-704-1233", 1012, "MHITM12", "FOCAL NEUROLOGICAL SYMPTOMS", "MHIS-NACC", "", "ABSENT", "", "0", 0, "", "", "", "", "", 1.0, "SCREENING 1", -7, "TREATMENT", "2013-03-08", -13]
["CDISCPILOT01", "QS", "01-704-1233", 1013, "MHITM13", "FOCAL NEUROLOGICAL SIGNS", "MHIS-NACC", "", "ABSENT", "", "0", 0, "", "", "", "", "", 1.0, "SCREENING 1", -7, "TREATMENT", "2013-03-08", -13]
["CDISCPILOT01", "QS", "01-704-1241", 1001, "MHITM01", "ABRUPT ONSET", "MHIS-NACC", "", "ABSENT", "", "0", 0, "", "", "", "", "", 1.0, "SCREENING 1", -7, "TREATMENT", "2013-08-14", -11]
["CDISCPILOT01", "QS", "01-704-1241", 1002, "MHITM02", "STEPWISE DETERIORATION", "MHIS-NACC", "", "ABSENT", "", "0", 0, "", "", "", "", "", 1.0, "SCREENING 1", -7, "TREATMENT", "2013-08-14", -11]
["CDISCPILOT01", "QS", "01-704-1241", 1003, "MHITM03", "FLUCTUATING COURSE", "MHIS-NACC", "", "ABSENT", "", "0", 0, "", "", "", "", "", 1.0, "SCREENING 1", -7, "TREATMENT", "2013-08-14", -11]
["CDISCPILOT01", "QS", "01-704-1241", 1004, "MHITM04", "NOCTURNAL CONFUSION", "MHIS-NACC", "", "ABSENT", "", "0", 0, "", "", "", "", "", 1.0, "SCREENING 1", -7, "TREATMENT", "2013-08-14", -11]
["CDISCPILOT01", "QS", "01-704-1241", 1005, "MHITM05", "RELATIVE PRESERVATION OF PERSONALITY", "MHIS-NACC", "", "ABSENT", "", "0", 0, "", "", "", "", "", 1.0, "SCREENING 1", -7, "TREATMENT", "2013-08-14", -11]
["CDISCPILOT01", "QS", "01-704-1241", 1006, "MHITM06", "DEPRESSION", "MHIS-NACC", "", "ABSENT", "", "0", 0, "", "", "", "", "", 1.0, "SCREENING 1", -7, "TREATMENT", "2013-08-14", -11]
["CDISCPILOT01", "QS", "01-704-1241", 1007, "MHITM07", "SOMATIC COMPLAINTS", "MHIS-NACC", "", "ABSENT", "", "0", 0, "", "", "", "", "", 1.0, "SCREENING 1", -7, "TREATMENT", "2013-08-14", -11]
["CDISCPILOT01", "QS", "01-704-1241", 1008, "MHITM08", "EMOTIONAL INCONTINENCE", "MHIS-NACC", "", "ABSENT", "", "0", 0, "", "", "", "", "", 1.0, "SCREENING 1", -7, "TREATMENT", "2013-08-14", -11]
["CDISCPILOT01", "QS", "01-704-1241", 1009, "MHITM09", "HISTORY OF HYPERTENSION", "MHIS-NACC", "", "PRESENT", "", "1", 1, "", "", "", "", "", 1.0, "SCREENING 1", -7, "TREATMENT", "2013-08-14", -11]
["CDISCPILOT01", "QS", "01-704-1241", 1010, "MHITM10", "HISTORY OF STROKES", "MHIS-NACC", "", "ABSENT", "", "0", 0, "", "", "", "", "", 1.0, "SCREENING 1", -7, "TREATMENT", "2013-08-14", -11]
["CDISCPILOT01", "QS", "01-704-1241", 1011, "MHITM11", "EVIDENCE OF ASSOCIATED ATHEROSCLEROSIS", "MHIS-NACC", "", "ABSENT", "", "0", 0, "", "", "", "", "", 1.0, "SCREENING 1", -7, "TREATMENT", "2013-08-14", -11]
["CDISCPILOT01", "QS", "01-704-1241", 1012, "MHITM12", "FOCAL NEUROLOGICAL SYMPTOMS", "MHIS-NACC", "", "ABSENT", "", "0", 0, "", "", "", "", "", 1.0, "SCREENING 1", -7, "TREATMENT", "2013-08-14", -11]
["CDISCPILOT01", "QS", "01-704-1241", 1013, "MHITM13", "FOCAL NEUROLOGICAL SIGNS", "MHIS-NACC", "", "ABSENT", "", "0", 0, "", "", "", "", "", 1.0, "SCREENING 1", -7, "TREATMENT", "2013-08-14", -11]
["CDISCPILOT01", "QS", "01-704-1260", 1001, "MHITM01", "ABRUPT ONSET", "MHIS-NACC", "", "ABSENT", "", "0", 0, "", "", "", "", "", 1.0, "SCREENING 1", -7, "TREATMENT", "2012-08-23", -7]
["CDISCPILOT01", "QS", "01-704-1260", 1002, "MHITM02", "STEPWISE DETERIORATION", "MHIS-NACC", "", "ABSENT", "", "0", 0, "", "", "", "", "", 1.0, "SCREENING 1", -7, "TREATMENT", "2012-08-23", -7]
["CDISCPILOT01", "QS", "01-704-1260", 1003, "MHITM03", "FLUCTUATING COURSE", "MHIS-NACC", "", "ABSENT", "", "0", 0, "", "", "", "", "", 1.0, "SCREENING 1", -7, "TREATMENT", "2012-08-23", -7]
["CDISCPILOT01", "QS", "01-704-1260", 1004, "MHITM04", "NOCTURNAL CONFUSION", "MHIS-NACC", "", "ABSENT", "", "0", 0, "", "", "", "", "", 1.0, "SCREENING 1", -7, "TREATMENT", "2012-08-23", -7]
["CDISCPILOT01", "QS", "01-704-1260", 1005, "MHITM05", "RELATIVE PRESERVATION OF PERSONALITY", "MHIS-NACC", "", "ABSENT", "", "0", 0, "", "", "", "", "", 1.0, "SCREENING 1", -7, "TREATMENT", "2012-08-23", -7]
["CDISCPILOT01", "QS", "01-704-1260", 1006, "MHITM06", "DEPRESSION", "MHIS-NACC", "", "ABSENT", "", "0", 0, "", "", "", "", "", 1.0, "SCREENING 1", -7, "TREATMENT", "2012-08-23", -7]
["CDISCPILOT01", "QS", "01-704-1260", 1007, "MHITM07", "SOMATIC COMPLAINTS", "MHIS-NACC", "", "ABSENT", "", "0", 0, "", "", "", "", "", 1.0, "SCREENING 1", -7, "TREATMENT", "2012-08-23", -7]
["CDISCPILOT01", "QS", "01-704-1260", 1008, "MHITM08", "EMOTIONAL INCONTINENCE", "MHIS-NACC", "", "ABSENT", "", "0", 0, "", "", "", "", "", 1.0, "SCREENING 1", -7, "TREATMENT", "2012-08-23", -7]
["CDISCPILOT01", "QS", "01-704-1260", 1009, "MHITM09", "HISTORY OF HYPERTENSION", "MHIS-NACC", "", "ABSENT", "", "0", 0, "", "", "", "", "", 1.0, "SCREENING 1", -7, "TREATMENT", "2012-08-23", -7]
["CDISCPILOT01", "QS", "01-704-1260", 1010, "MHITM10", "HISTORY OF STROKES", "MHIS-NACC", "", "ABSENT", "", "0", 0, "", "", "", "", "", 1.0, "SCREENING 1", -7, "TREATMENT", "2012-08-23", -7]
["CDISCPILOT01", "QS", "01-704-1260", 1011, "MHITM11", "EVIDENCE OF ASSOCIATED ATHEROSCLEROSIS", "MHIS-NACC", "", "ABSENT", "", "0", 0, "", "", "", "", "", 1.0, "SCREENING 1", -7, "TREATMENT", "2012-08-23", -7]
["CDISCPILOT01", "QS", "01-704-1260", 1012, "MHITM12", "FOCAL NEUROLOGICAL SYMPTOMS", "MHIS-NACC", "", "ABSENT", "", "0", 0, "", "", "", "", "", 1.0, "SCREENING 1", -7, "TREATMENT", "2012-08-23", -7]
["CDISCPILOT01", "QS", "01-704-1260", 1013, "MHITM13", "FOCAL NEUROLOGICAL SIGNS", "MHIS-NACC", "", "ABSENT", "", "0", 0, "", "", "", "", "", 1.0, "SCREENING 1", -7, "TREATMENT", "2012-08-23", -7]
["CDISCPILOT01", "QS", "01-704-1266", 1001, "MHITM01", "ABRUPT ONSET", "MHIS-NACC", "", "ABSENT", "", "0", 0, "", "", "", "", "", 1.0, "SCREENING 1", -7, "TREATMENT", "2013-10-05", -8]
["CDISCPILOT01", "QS", "01-704-1266", 1002, "MHITM02", "STEPWISE DETERIORATION", "MHIS-NACC", "", "ABSENT", "", "0", 0, "", "", "", "", "", 1.0, "SCREENING 1", -7, "TREATMENT", "2013-10-05", -8]
["CDISCPILOT01", "QS", "01-704-1266", 1003, "MHITM03", "FLUCTUATING COURSE", "MHIS-NACC", "", "ABSENT", "", "0", 0, "", "", "", "", "", 1.0, "SCREENING 1", -7, "TREATMENT", "2013-10-05", -8]
["CDISCPILOT01", "QS", "01-704-1266", 1004, "MHITM04", "NOCTURNAL CONFUSION", "MHIS-NACC", "", "ABSENT", "", "0", 0, "", "", "", "", "", 1.0, "SCREENING 1", -7, "TREATMENT", "2013-10-05", -8]
["CDISCPILOT01", "QS", "01-704-1266", 1005, "MHITM05", "RELATIVE PRESERVATION OF PERSONALITY", "MHIS-NACC", "", "ABSENT", "", "0", 0, "", "", "", "", "", 1.0, "SCREENING 1", -7, "TREATMENT", "2013-10-05", -8]
