{"datasetJSONCreationDateTime": "2025-10-13T16:28:55", "datasetJSONVersion": "1.1.0", "fileOID": "UpdatedCDISCPILOT.CDISC SDTM.3.2.QSMM", "studyOID": "UpdatedCDISCPILOT.CDISC SDTM.3.2", "metaDataVersionOID": "MDV.UpdatedCDISCPILOT.CDISC SDTM.3.2", "itemGroupOID": "{QSMM", "records": 1524, "name": "QSMM", "label": "Questionnaires", "columns": [{"itemOID": "IT.QSMM.STUDYID", "name": "STUDYID", "label": "Study Identifier", "dataType": "string", "length": 12, "keySequence": 1}, {"itemOID": "IT.QSMM.DOMAIN", "name": "DOMAIN", "label": "Domain Abbreviation", "dataType": "string", "length": 2}, {"itemOID": "IT.QSMM.USUBJID", "name": "USUBJID", "label": "Unique Subject Identifier", "dataType": "string", "length": 11, "keySequence": 2}, {"itemOID": "IT.QSMM.QSSEQ", "name": "QSSEQ", "label": "Sequence Number", "dataType": "integer", "length": 8}, {"itemOID": "IT.QSMM.QSTESTCD", "name": "QSTESTCD", "label": "Question Short Name", "dataType": "string", "length": 8, "keySequence": 3}, {"itemOID": "IT.QSMM.QSTEST", "name": "QSTEST", "label": "Question Name", "dataType": "string", "length": 40}, {"itemOID": "IT.QSMM.QSCAT", "name": "QSCAT", "label": "Category of Question", "dataType": "string", "length": 70}, {"itemOID": "IT.QSMM.QSSCAT", "name": "QSSCAT", "label": "Subcategory for Question", "dataType": "string", "length": 26}, {"itemOID": "IT.QSMM.QSORRES", "name": "QSORRES", "label": "Finding in Original Units", "dataType": "string", "length": 20}, {"itemOID": "IT.QSMM.QSORRESU", "name": "QSORRESU", "label": "Original Units", "dataType": "string", "length": 7}, {"itemOID": "IT.QSMM.QSSTRESC", "name": "QSSTRESC", "label": "Character Result/Finding in Std Format", "dataType": "string", "length": 4}, {"itemOID": "IT.QSMM.QSSTRESN", "name": "QSSTRESN", "label": "Numeric Finding in Standard Units", "dataType": "integer", "length": 8}, {"itemOID": "IT.QSMM.QSSTRESU", "name": "QSSTRESU", "label": "Standard Units", "dataType": "string", "length": 7}, {"itemOID": "IT.QSMM.QSSTAT", "name": "QSSTAT", "label": "Completion Status", "dataType": "string", "length": 8}, {"itemOID": "IT.QSMM.QSREASND", "name": "QSREASND", "label": "Reason Not Performed", "dataType": "string", "length": 17}, {"itemOID": "IT.QSMM.QSBLFL", "name": "QSBLFL", "label": "Baseline Flag", "dataType": "string", "length": 1}, {"itemOID": "IT.QSMM.QSDRVFL", "name": "QSDRVFL", "label": "Derived Flag", "dataType": "string", "length": 1}, {"itemOID": "IT.QSMM.VISITNUM", "name": "VISITNUM", "label": "Visit Number", "dataType": "double", "length": 8, "keySequence": 4}, {"itemOID": "IT.QSMM.VISIT", "name": "VISIT", "label": "Visit Name", "dataType": "string", "length": 19}, {"itemOID": "IT.QSMM.VISITDY", "name": "VISITDY", "label": "Planned Study Day of Visit", "dataType": "integer", "length": 8}, {"itemOID": "IT.QSMM.EPOCH", "name": "EPOCH", "label": "Epoch", "dataType": "string", "length": 9}, {"itemOID": "IT.QSMM.QSDTC", "name": "QSDTC", "label": "Date/Time of Finding", "dataType": "string", "length": 10}, {"itemOID": "IT.QSMM.QSDY", "name": "QSDY", "label": "Study Day of Finding", "dataType": "integer", "length": 8}], "rows": [["CDISCPILOT01", "QS", "01-701-1015", 2001, "MMITM01", "WHAT IS THE (YEAR) (SEASON) (DATE) ?", "MMSE", "ORIENTATION", "4", "", "4", 4, "", "", "", "", "", 1.0, "SCREENING 1", -7, "TREATMENT", "2013-12-26", -7], ["CDISCPILOT01", "QS", "01-701-1015", 2002, "MMITM02", "WHERE ARE WE: (STATE) (COUNTRY) (TOWN) ?", "MMSE", "ORIENTATION", "4", "", "4", 4, "", "", "", "", "", 1.0, "SCREENING 1", -7, "TREATMENT", "2013-12-26", -7], ["CDISCPILOT01", "QS", "01-701-1015", 2003, "MMITM03", "NAME 3 OBJECTS: 1 SECOND TO SAY EACH.", "MMSE", "REGISTRATION", "3", "", "3", 3, "", "", "", "", "", 1.0, "SCREENING 1", -7, "TREATMENT", "2013-12-26", -7], ["CDISCPILOT01", "QS", "01-701-1015", 2004, "MMITM04", "SERIAL 7'S. 1 POINT FOR EACH CORRECT.", "MMSE", "ATTENTION AND CALCULATI", "3", "", "3", 3, "", "", "", "", "", 1.0, "SCREENING 1", -7, "TREATMENT", "2013-12-26", -7], ["CDISCPILOT01", "QS", "01-701-1015", 2005, "MMITM05", "ASK FOR THE 3 OBJECTS REPEATED ABOVE.", "MMSE", "RECALL", "2", "", "2", 2, "", "", "", "", "", 1.0, "SCREENING 1", -7, "TREATMENT", "2013-12-26", -7], ["CDISCPILOT01", "QS", "01-701-1015", 2006, "MMITM06", "NAME A PENCIL, AND WATCH (2 POINTS)", "MMSE", "LANGUAGE", "7", "", "7", 7, "", "", "", "", "", 1.0, "SCREENING 1", -7, "TREATMENT", "2013-12-26", -7], ["CDISCPILOT01", "QS", "01-701-1023", 2001, "MMITM01", "WHAT IS THE (YEAR) (SEASON) (DATE) ?", "MMSE", "ORIENTATION", "4", "", "4", 4, "", "", "", "", "", 1.0, "SCREENING 1", -7, "TREATMENT", "2012-07-22", -14], ["CDISCPILOT01", "QS", "01-701-1023", 2002, "MMITM02", "WHERE ARE WE: (STATE) (COUNTRY) (TOWN) ?", "MMSE", "ORIENTATION", "4", "", "4", 4, "", "", "", "", "", 1.0, "SCREENING 1", -7, "TREATMENT", "2012-07-22", -14], ["CDISCPILOT01", "QS", "01-701-1023", 2003, "MMITM03", "NAME 3 OBJECTS: 1 SECOND TO SAY EACH.", "MMSE", "REGISTRATION", "3", "", "3", 3, "", "", "", "", "", 1.0, "SCREENING 1", -7, "TREATMENT", "2012-07-22", -14], ["CDISCPILOT01", "QS", "01-701-1023", 2004, "MMITM04", "SERIAL 7'S. 1 POINT FOR EACH CORRECT.", "MMSE", "ATTENTION AND CALCULATI", "4", "", "4", 4, "", "", "", "", "", 1.0, "SCREENING 1", -7, "TREATMENT", "2012-07-22", -14], ["CDISCPILOT01", "QS", "01-701-1023", 2005, "MMITM05", "ASK FOR THE 3 OBJECTS REPEATED ABOVE.", "MMSE", "RECALL", "2", "", "2", 2, "", "", "", "", "", 1.0, "SCREENING 1", -7, "TREATMENT", "2012-07-22", -14], ["CDISCPILOT01", "QS", "01-701-1023", 2006, "MMITM06", "NAME A PENCIL, AND WATCH (2 POINTS)", "MMSE", "LANGUAGE", "6", "", "6", 6, "", "", "", "", "", 1.0, "SCREENING 1", -7, "TREATMENT", "2012-07-22", -14], ["CDISCPILOT01", "QS", "01-701-1028", 2001, "MMITM01", "WHAT IS THE (YEAR) (SEASON) (DATE) ?", "MMSE", "ORIENTATION", "3", "", "3", 3, "", "", "", "", "", 1.0, "SCREENING 1", -7, "TREATMENT", "2013-07-11", -8], ["CDISCPILOT01", "QS", "01-701-1028", 2002, "MMITM02", "WHERE ARE WE: (STATE) (COUNTRY) (TOWN) ?", "MMSE", "ORIENTATION", "4", "", "4", 4, "", "", "", "", "", 1.0, "SCREENING 1", -7, "TREATMENT", "2013-07-11", -8], ["CDISCPILOT01", "QS", "01-701-1028", 2003, "MMITM03", "NAME 3 OBJECTS: 1 SECOND TO SAY EACH.", "MMSE", "REGISTRATION", "3", "", "3", 3, "", "", "", "", "", 1.0, "SCREENING 1", -7, "TREATMENT", "2013-07-11", -8], ["CDISCPILOT01", "QS", "01-701-1028", 2004, "MMITM04", "SERIAL 7'S. 1 POINT FOR EACH CORRECT.", "MMSE", "ATTENTION AND CALCULATI", "4", "", "4", 4, "", "", "", "", "", 1.0, "SCREENING 1", -7, "TREATMENT", "2013-07-11", -8], ["CDISCPILOT01", "QS", "01-701-1028", 2005, "MMITM05", "ASK FOR THE 3 OBJECTS REPEATED ABOVE.", "MMSE", "RECALL", "2", "", "2", 2, "", "", "", "", "", 1.0, "SCREENING 1", -7, "TREATMENT", "2013-07-11", -8], ["CDISCPILOT01", "QS", "01-701-1028", 2006, "MMITM06", "NAME A PENCIL, AND WATCH (2 POINTS)", "MMSE", "LANGUAGE", "7", "", "7", 7, "", "", "", "", "", 1.0, "SCREENING 1", -7, "TREATMENT", "2013-07-11", -8], ["CDISCPILOT01", "QS", "01-701-1033", 2001, "MMITM01", "WHAT IS THE (YEAR) (SEASON) (DATE) ?", "MMSE", "ORIENTATION", "4", "", "4", 4, "", "", "", "", "", 1.0, "SCREENING 1", -7, "TREATMENT", "2014-03-10", -8], ["CDISCPILOT01", "QS", "01-701-1033", 2002, "MMITM02", "WHERE ARE WE: (STATE) (COUNTRY) (TOWN) ?", "MMSE", "ORIENTATION", "4", "", "4", 4, "", "", "", "", "", 1.0, "SCREENING 1", -7, "TREATMENT", "2014-03-10", -8], ["CDISCPILOT01", "QS", "01-701-1033", 2003, "MMITM03", "NAME 3 OBJECTS: 1 SECOND TO SAY EACH.", "MMSE", "REGISTRATION", "3", "", "3", 3, "", "", "", "", "", 1.0, "SCREENING 1", -7, "TREATMENT", "2014-03-10", -8], ["CDISCPILOT01", "QS", "01-701-1033", 2004, "MMITM04", "SERIAL 7'S. 1 POINT FOR EACH CORRECT.", "MMSE", "ATTENTION AND CALCULATI", "4", "", "4", 4, "", "", "", "", "", 1.0, "SCREENING 1", -7, "TREATMENT", "2014-03-10", -8], ["CDISCPILOT01", "QS", "01-701-1033", 2005, "MMITM05", "ASK FOR THE 3 OBJECTS REPEATED ABOVE.", "MMSE", "RECALL", "1", "", "1", 1, "", "", "", "", "", 1.0, "SCREENING 1", -7, "TREATMENT", "2014-03-10", -8], ["CDISCPILOT01", "QS", "01-701-1033", 2006, "MMITM06", "NAME A PENCIL, AND WATCH (2 POINTS)", "MMSE", "LANGUAGE", "7", "", "7", 7, "", "", "", "", "", 1.0, "SCREENING 1", -7, "TREATMENT", "2014-03-10", -8], ["CDISCPILOT01", "QS", "01-701-1034", 2001, "MMITM01", "WHAT IS THE (YEAR) (SEASON) (DATE) ?", "MMSE", "ORIENTATION", "5", "", "5", 5, "", "", "", "", "", 1.0, "SCREENING 1", -7, "TREATMENT", "2014-06-24", -7], ["CDISCPILOT01", "QS", "01-701-1034", 2002, "MMITM02", "WHERE ARE WE: (STATE) (COUNTRY) (TOWN) ?", "MMSE", "ORIENTATION", "3", "", "3", 3, "", "", "", "", "", 1.0, "SCREENING 1", -7, "TREATMENT", "2014-06-24", -7], ["CDISCPILOT01", "QS", "01-701-1034", 2003, "MMITM03", "NAME 3 OBJECTS: 1 SECOND TO SAY EACH.", "MMSE", "REGISTRATION", "3", "", "3", 3, "", "", "", "", "", 1.0, "SCREENING 1", -7, "TREATMENT", "2014-06-24", -7], ["CDISCPILOT01", "QS", "01-701-1034", 2004, "MMITM04", "SERIAL 7'S. 1 POINT FOR EACH CORRECT.", "MMSE", "ATTENTION AND CALCULATI", "2", "", "2", 2, "", "", "", "", "", 1.0, "SCREENING 1", -7, "TREATMENT", "2014-06-24", -7], ["CDISCPILOT01", "QS", "01-701-1034", 2005, "MMITM05", "ASK FOR THE 3 OBJECTS REPEATED ABOVE.", "MMSE", "RECALL", "0", "", "0", 0, "", "", "", "", "", 1.0, "SCREENING 1", -7, "TREATMENT", "2014-06-24", -7], ["CDISCPILOT01", "QS", "01-701-1034", 2006, "MMITM06", "NAME A PENCIL, AND WATCH (2 POINTS)", "MMSE", "LANGUAGE", "8", "", "8", 8, "", "", "", "", "", 1.0, "SCREENING 1", -7, "TREATMENT", "2014-06-24", -7], ["CDISCPILOT01", "QS", "01-701-1047", 2001, "MMITM01", "WHAT IS THE (YEAR) (SEASON) (DATE) ?", "MMSE", "ORIENTATION", "5", "", "5", 5, "", "", "", "", "", 1.0, "SCREENING 1", -7, "TREATMENT", "2013-01-22", -21], ["CDISCPILOT01", "QS", "01-701-1047", 2002, "MMITM02", "WHERE ARE WE: (STATE) (COUNTRY) (TOWN) ?", "MMSE", "ORIENTATION", "2", "", "2", 2, "", "", "", "", "", 1.0, "SCREENING 1", -7, "TREATMENT", "2013-01-22", -21], ["CDISCPILOT01", "QS", "01-701-1047", 2003, "MMITM03", "NAME 3 OBJECTS: 1 SECOND TO SAY EACH.", "MMSE", "REGISTRATION", "3", "", "3", 3, "", "", "", "", "", 1.0, "SCREENING 1", -7, "TREATMENT", "2013-01-22", -21], ["CDISCPILOT01", "QS", "01-701-1047", 2004, "MMITM04", "SERIAL 7'S. 1 POINT FOR EACH CORRECT.", "MMSE", "ATTENTION AND CALCULATI", "4", "", "4", 4, "", "", "", "", "", 1.0, "SCREENING 1", -7, "TREATMENT", "2013-01-22", -21], ["CDISCPILOT01", "QS", "01-701-1047", 2005, "MMITM05", "ASK FOR THE 3 OBJECTS REPEATED ABOVE.", "MMSE", "RECALL", "1", "", "1", 1, "", "", "", "", "", 1.0, "SCREENING 1", -7, "TREATMENT", "2013-01-22", -21], ["CDISCPILOT01", "QS", "01-701-1047", 2006, "MMITM06", "NAME A PENCIL, AND WATCH (2 POINTS)", "MMSE", "LANGUAGE", "8", "", "8", 8, "", "", "", "", "", 1.0, "SCREENING 1", -7, "TREATMENT", "2013-01-22", -21], ["CDISCPILOT01", "QS", "01-701-1097", 2001, "MMITM01", "WHAT IS THE (YEAR) (SEASON) (DATE) ?", "MMSE", "ORIENTATION", "1", "", "1", 1, "", "", "", "", "", 1.0, "SCREENING 1", -7, "TREATMENT", "2013-12-23", -9], ["CDISCPILOT01", "QS", "01-701-1097", 2002, "MMITM02", "WHERE ARE WE: (STATE) (COUNTRY) (TOWN) ?", "MMSE", "ORIENTATION", "0", "", "0", 0, "", "", "", "", "", 1.0, "SCREENING 1", -7, "TREATMENT", "2013-12-23", -9], ["CDISCPILOT01", "QS", "01-701-1097", 2003, "MMITM03", "NAME 3 OBJECTS: 1 SECOND TO SAY EACH.", "MMSE", "REGISTRATION", "3", "", "3", 3, "", "", "", "", "", 1.0, "SCREENING 1", -7, "TREATMENT", "2013-12-23", -9], ["CDISCPILOT01", "QS", "01-701-1097", 2004, "MMITM04", "SERIAL 7'S. 1 POINT FOR EACH CORRECT.", "MMSE", "ATTENTION AND CALCULATI", "0", "", "0", 0, "", "", "", "", "", 1.0, "SCREENING 1", -7, "TREATMENT", "2013-12-23", -9], ["CDISCPILOT01", "QS", "01-701-1097", 2005, "MMITM05", "ASK FOR THE 3 OBJECTS REPEATED ABOVE.", "MMSE", "RECALL", "0", "", "0", 0, "", "", "", "", "", 1.0, "SCREENING 1", -7, "TREATMENT", "2013-12-23", -9], ["CDISCPILOT01", "QS", "01-701-1097", 2006, "MMITM06", "NAME A PENCIL, AND WATCH (2 POINTS)", "MMSE", "LANGUAGE", "6", "", "6", 6, "", "", "", "", "", 1.0, "SCREENING 1", -7, "TREATMENT", "2013-12-23", -9], ["CDISCPILOT01", "QS", "01-701-1111", 2001, "MMITM01", "WHAT IS THE (YEAR) (SEASON) (DATE) ?", "MMSE", "ORIENTATION", "4", "", "4", 4, "", "", "", "", "", 1.0, "SCREENING 1", -7, "TREATMENT", "2012-08-25", -13], ["CDISCPILOT01", "QS", "01-701-1111", 2002, "MMITM02", "WHERE ARE WE: (STATE) (COUNTRY) (TOWN) ?", "MMSE", "ORIENTATION", "5", "", "5", 5, "", "", "", "", "", 1.0, "SCREENING 1", -7, "TREATMENT", "2012-08-25", -13], ["CDISCPILOT01", "QS", "01-701-1111", 2003, "MMITM03", "NAME 3 OBJECTS: 1 SECOND TO SAY EACH.", "MMSE", "REGISTRATION", "3", "", "3", 3, "", "", "", "", "", 1.0, "SCREENING 1", -7, "TREATMENT", "2012-08-25", -13], ["CDISCPILOT01", "QS", "01-701-1111", 2004, "MMITM04", "SERIAL 7'S. 1 POINT FOR EACH CORRECT.", "MMSE", "ATTENTION AND CALCULATI", "4", "", "4", 4, "", "", "", "", "", 1.0, "SCREENING 1", -7, "TREATMENT", "2012-08-25", -13], ["CDISCPILOT01", "QS", "01-701-1111", 2005, "MMITM05", "ASK FOR THE 3 OBJECTS REPEATED ABOVE.", "MMSE", "RECALL", "0", "", "0", 0, "", "", "", "", "", 1.0, "SCREENING 1", -7, "TREATMENT", "2012-08-25", -13], ["CDISCPILOT01", "QS", "01-701-1111", 2006, "MMITM06", "NAME A PENCIL, AND WATCH (2 POINTS)", "MMSE", "LANGUAGE", "7", "", "7", 7, "", "", "", "", "", 1.0, "SCREENING 1", -7, "TREATMENT", "2012-08-25", -13], ["CDISCPILOT01", "QS", "01-701-1115", 2001, "MMITM01", "WHAT IS THE (YEAR) (SEASON) (DATE) ?", "MMSE", "ORIENTATION", "4", "", "4", 4, "", "", "", "", "", 1.0, "SCREENING 1", -7, "TREATMENT", "2012-11-23", -7], ["CDISCPILOT01", "QS", "01-701-1115", 2002, "MMITM02", "WHERE ARE WE: (STATE) (COUNTRY) (TOWN) ?", "MMSE", "ORIENTATION", "2", "", "2", 2, "", "", "", "", "", 1.0, "SCREENING 1", -7, "TREATMENT", "2012-11-23", -7], ["CDISCPILOT01", "QS", "01-701-1115", 2003, "MMITM03", "NAME 3 OBJECTS: 1 SECOND TO SAY EACH.", "MMSE", "REGISTRATION", "3", "", "3", 3, "", "", "", "", "", 1.0, "SCREENING 1", -7, "TREATMENT", "2012-11-23", -7], ["CDISCPILOT01", "QS", "01-701-1115", 2004, "MMITM04", "SERIAL 7'S. 1 POINT FOR EACH CORRECT.", "MMSE", "ATTENTION AND CALCULATI", "3", "", "3", 3, "", "", "", "", "", 1.0, "SCREENING 1", -7, "TREATMENT", "2012-11-23", -7], ["CDISCPILOT01", "QS", "01-701-1115", 2005, "MMITM05", "ASK FOR THE 3 OBJECTS REPEATED ABOVE.", "MMSE", "RECALL", "1", "", "1", 1, "", "", "", "", "", 1.0, "SCREENING 1", -7, "TREATMENT", "2012-11-23", -7], ["CDISCPILOT01", "QS", "01-701-1115", 2006, "MMITM06", "NAME A PENCIL, AND WATCH (2 POINTS)", "MMSE", "LANGUAGE", "7", "", "7", 7, "", "", "", "", "", 1.0, "SCREENING 1", -7, "TREATMENT", "2012-11-23", -7], ["CDISCPILOT01", "QS", "01-701-1118", 2001, "MMITM01", "WHAT IS THE (YEAR) (SEASON) (DATE) ?", "MMSE", "ORIENTATION", "3", "", "3", 3, "", "", "", "", "", 1.0, "SCREENING 1", -7, "TREATMENT", "2014-02-27", -13], ["CDISCPILOT01", "QS", "01-701-1118", 2002, "MMITM02", "WHERE ARE WE: (STATE) (COUNTRY) (TOWN) ?", "MMSE", "ORIENTATION", "4", "", "4", 4, "", "", "", "", "", 1.0, "SCREENING 1", -7, "TREATMENT", "2014-02-27", -13], ["CDISCPILOT01", "QS", "01-701-1118", 2003, "MMITM03", "NAME 3 OBJECTS: 1 SECOND TO SAY EACH.", "MMSE", "REGISTRATION", "3", "", "3", 3, "", "", "", "", "", 1.0, "SCREENING 1", -7, "TREATMENT", "2014-02-27", -13], ["CDISCPILOT01", "QS", "01-701-1118", 2004, "MMITM04", "SERIAL 7'S. 1 POINT FOR EACH CORRECT.", "MMSE", "ATTENTION AND CALCULATI", "2", "", "2", 2, "", "", "", "", "", 1.0, "SCREENING 1", -7, "TREATMENT", "2014-02-27", -13], ["CDISCPILOT01", "QS", "01-701-1118", 2005, "MMITM05", "ASK FOR THE 3 OBJECTS REPEATED ABOVE.", "MMSE", "RECALL", "1", "", "1", 1, "", "", "", "", "", 1.0, "SCREENING 1", -7, "TREATMENT", "2014-02-27", -13], ["CDISCPILOT01", "QS", "01-701-1118", 2006, "MMITM06", "NAME A PENCIL, AND WATCH (2 POINTS)", "MMSE", "LANGUAGE", "7", "", "7", 7, "", "", "", "", "", 1.0, "SCREENING 1", -7, "TREATMENT", "2014-02-27", -13], ["CDISCPILOT01", "QS", "01-701-1130", 2001, "MMITM01", "WHAT IS THE (YEAR) (SEASON) (DATE) ?", "MMSE", "ORIENTATION", "1", "", "1", 1, "", "", "", "", "", 1.0, "SCREENING 1", -7, "TREATMENT", "2014-02-09", -6], ["CDISCPILOT01", "QS", "01-701-1130", 2002, "MMITM02", "WHERE ARE WE: (STATE) (COUNTRY) (TOWN) ?", "MMSE", "ORIENTATION", "4", "", "4", 4, "", "", "", "", "", 1.0, "SCREENING 1", -7, "TREATMENT", "2014-02-09", -6], ["CDISCPILOT01", "QS", "01-701-1130", 2003, "MMITM03", "NAME 3 OBJECTS: 1 SECOND TO SAY EACH.", "MMSE", "REGISTRATION", "3", "", "3", 3, "", "", "", "", "", 1.0, "SCREENING 1", -7, "TREATMENT", "2014-02-09", -6], ["CDISCPILOT01", "QS", "01-701-1130", 2004, "MMITM04", "SERIAL 7'S. 1 POINT FOR EACH CORRECT.", "MMSE", "ATTENTION AND CALCULATI", "5", "", "5", 5, "", "", "", "", "", 1.0, "SCREENING 1", -7, "TREATMENT", "2014-02-09", -6], ["CDISCPILOT01", "QS", "01-701-1130", 2005, "MMITM05", "ASK FOR THE 3 OBJECTS REPEATED ABOVE.", "MMSE", "RECALL", "0", "", "0", 0, "", "", "", "", "", 1.0, "SCREENING 1", -7, "TREATMENT", "2014-02-09", -6], ["CDISCPILOT01", "QS", "01-701-1130", 2006, "MMITM06", "NAME A PENCIL, AND WATCH (2 POINTS)", "MMSE", "LANGUAGE", "6", "", "6", 6, "", "", "", "", "", 1.0, "SCREENING 1", -7, "TREATMENT", "2014-02-09", -6], ["CDISCPILOT01", "QS", "01-701-1133", 2001, "MMITM01", "WHAT IS THE (YEAR) (SEASON) (DATE) ?", "MMSE", "ORIENTATION", "1", "", "1", 1, "", "", "", "", "", 1.0, "SCREENING 1", -7, "TREATMENT", "2012-10-23", -5], ["CDISCPILOT01", "QS", "01-701-1133", 2002, "MMITM02", "WHERE ARE WE: (STATE) (COUNTRY) (TOWN) ?", "MMSE", "ORIENTATION", "5", "", "5", 5, "", "", "", "", "", 1.0, "SCREENING 1", -7, "TREATMENT", "2012-10-23", -5], ["CDISCPILOT01", "QS", "01-701-1133", 2003, "MMITM03", "NAME 3 OBJECTS: 1 SECOND TO SAY EACH.", "MMSE", "REGISTRATION", "3", "", "3", 3, "", "", "", "", "", 1.0, "SCREENING 1", -7, "TREATMENT", "2012-10-23", -5], ["CDISCPILOT01", "QS", "01-701-1133", 2004, "MMITM04", "SERIAL 7'S. 1 POINT FOR EACH CORRECT.", "MMSE", "ATTENTION AND CALCULATI", "5", "", "5", 5, "", "", "", "", "", 1.0, "SCREENING 1", -7, "TREATMENT", "2012-10-23", -5], ["CDISCPILOT01", "QS", "01-701-1133", 2005, "MMITM05", "ASK FOR THE 3 OBJECTS REPEATED ABOVE.", "MMSE", "RECALL", "0", "", "0", 0, "", "", "", "", "", 1.0, "SCREENING 1", -7, "TREATMENT", "2012-10-23", -5], ["CDISCPILOT01", "QS", "01-701-1133", 2006, "MMITM06", "NAME A PENCIL, AND WATCH (2 POINTS)", "MMSE", "LANGUAGE", "7", "", "7", 7, "", "", "", "", "", 1.0, "SCREENING 1", -7, "TREATMENT", "2012-10-23", -5], ["CDISCPILOT01", "QS", "01-701-1146", 2001, "MMITM01", "WHAT IS THE (YEAR) (SEASON) (DATE) ?", "MMSE", "ORIENTATION", "4", "", "4", 4, "", "", "", "", "", 1.0, "SCREENING 1", -7, "TREATMENT", "2013-05-07", -13], ["CDISCPILOT01", "QS", "01-701-1146", 2002, "MMITM02", "WHERE ARE WE: (STATE) (COUNTRY) (TOWN) ?", "MMSE", "ORIENTATION", "4", "", "4", 4, "", "", "", "", "", 1.0, "SCREENING 1", -7, "TREATMENT", "2013-05-07", -13], ["CDISCPILOT01", "QS", "01-701-1146", 2003, "MMITM03", "NAME 3 OBJECTS: 1 SECOND TO SAY EACH.", "MMSE", "REGISTRATION", "3", "", "3", 3, "", "", "", "", "", 1.0, "SCREENING 1", -7, "TREATMENT", "2013-05-07", -13], ["CDISCPILOT01", "QS", "01-701-1146", 2004, "MMITM04", "SERIAL 7'S. 1 POINT FOR EACH CORRECT.", "MMSE", "ATTENTION AND CALCULATI", "5", "", "5", 5, "", "", "", "", "", 1.0, "SCREENING 1", -7, "TREATMENT", "2013-05-07", -13], ["CDISCPILOT01", "QS", "01-701-1146", 2005, "MMITM05", "ASK FOR THE 3 OBJECTS REPEATED ABOVE.", "MMSE", "RECALL", "2", "", "2", 2, "", "", "", "", "", 1.0, "SCREENING 1", -7, "TREATMENT", "2013-05-07", -13], ["CDISCPILOT01", "QS", "01-701-1146", 2006, "MMITM06", "NAME A PENCIL, AND WATCH (2 POINTS)", "MMSE", "LANGUAGE", "4", "", "4", 4, "", "", "", "", "", 1.0, "SCREENING 1", -7, "TREATMENT", "2013-05-07", -13], ["CDISCPILOT01", "QS", "01-701-1148", 2001, "MMITM01", "WHAT IS THE (YEAR) (SEASON) (DATE) ?", "MMSE", "ORIENTATION", "3", "", "3", 3, "", "", "", "", "", 1.0, "SCREENING 1", -7, "TREATMENT", "2013-08-14", -9], ["CDISCPILOT01", "QS", "01-701-1148", 2002, "MMITM02", "WHERE ARE WE: (STATE) (COUNTRY) (TOWN) ?", "MMSE", "ORIENTATION", "3", "", "3", 3, "", "", "", "", "", 1.0, "SCREENING 1", -7, "TREATMENT", "2013-08-14", -9], ["CDISCPILOT01", "QS", "01-701-1148", 2003, "MMITM03", "NAME 3 OBJECTS: 1 SECOND TO SAY EACH.", "MMSE", "REGISTRATION", "3", "", "3", 3, "", "", "", "", "", 1.0, "SCREENING 1", -7, "TREATMENT", "2013-08-14", -9], ["CDISCPILOT01", "QS", "01-701-1148", 2004, "MMITM04", "SERIAL 7'S. 1 POINT FOR EACH CORRECT.", "MMSE", "ATTENTION AND CALCULATI", "3", "", "3", 3, "", "", "", "", "", 1.0, "SCREENING 1", -7, "TREATMENT", "2013-08-14", -9], ["CDISCPILOT01", "QS", "01-701-1148", 2005, "MMITM05", "ASK FOR THE 3 OBJECTS REPEATED ABOVE.", "MMSE", "RECALL", "0", "", "0", 0, "", "", "", "", "", 1.0, "SCREENING 1", -7, "TREATMENT", "2013-08-14", -9], ["CDISCPILOT01", "QS", "01-701-1148", 2006, "MMITM06", "NAME A PENCIL, AND WATCH (2 POINTS)", "MMSE", "LANGUAGE", "9", "", "9", 9, "", "", "", "", "", 1.0, "SCREENING 1", -7, "TREATMENT", "2013-08-14", -9], ["CDISCPILOT01", "QS", "01-701-1153", 2001, "MMITM01", "WHAT IS THE (YEAR) (SEASON) (DATE) ?", "MMSE", "ORIENTATION", "0", "", "0", 0, "", "", "", "", "", 1.0, "SCREENING 1", -7, "TREATMENT", "2013-09-06", -17], ["CDISCPILOT01", "QS", "01-701-1153", 2002, "MMITM02", "WHERE ARE WE: (STATE) (COUNTRY) (TOWN) ?", "MMSE", "ORIENTATION", "0", "", "0", 0, "", "", "", "", "", 1.0, "SCREENING 1", -7, "TREATMENT", "2013-09-06", -17], ["CDISCPILOT01", "QS", "01-701-1153", 2003, "MMITM03", "NAME 3 OBJECTS: 1 SECOND TO SAY EACH.", "MMSE", "REGISTRATION", "3", "", "3", 3, "", "", "", "", "", 1.0, "SCREENING 1", -7, "TREATMENT", "2013-09-06", -17], ["CDISCPILOT01", "QS", "01-701-1153", 2004, "MMITM04", "SERIAL 7'S. 1 POINT FOR EACH CORRECT.", "MMSE", "ATTENTION AND CALCULATI", "2", "", "2", 2, "", "", "", "", "", 1.0, "SCREENING 1", -7, "TREATMENT", "2013-09-06", -17], ["CDISCPILOT01", "QS", "01-701-1153", 2005, "MMITM05", "ASK FOR THE 3 OBJECTS REPEATED ABOVE.", "MMSE", "RECALL", "0", "", "0", 0, "", "", "", "", "", 1.0, "SCREENING 1", -7, "TREATMENT", "2013-09-06", -17], ["CDISCPILOT01", "QS", "01-701-1153", 2006, "MMITM06", "NAME A PENCIL, AND WATCH (2 POINTS)", "MMSE", "LANGUAGE", "5", "", "5", 5, "", "", "", "", "", 1.0, "SCREENING 1", -7, "TREATMENT", "2013-09-06", -17], ["CDISCPILOT01", "QS", "01-701-1180", 2001, "MMITM01", "WHAT IS THE (YEAR) (SEASON) (DATE) ?", "MMSE", "ORIENTATION", "3", "", "3", 3, "", "", "", "", "", 1.0, "SCREENING 1", -7, "TREATMENT", "2013-01-28", -15], ["CDISCPILOT01", "QS", "01-701-1180", 2002, "MMITM02", "WHERE ARE WE: (STATE) (COUNTRY) (TOWN) ?", "MMSE", "ORIENTATION", "3", "", "3", 3, "", "", "", "", "", 1.0, "SCREENING 1", -7, "TREATMENT", "2013-01-28", -15], ["CDISCPILOT01", "QS", "01-701-1180", 2003, "MMITM03", "NAME 3 OBJECTS: 1 SECOND TO SAY EACH.", "MMSE", "REGISTRATION", "3", "", "3", 3, "", "", "", "", "", 1.0, "SCREENING 1", -7, "TREATMENT", "2013-01-28", -15], ["CDISCPILOT01", "QS", "01-701-1180", 2004, "MMITM04", "SERIAL 7'S. 1 POINT FOR EACH CORRECT.", "MMSE", "ATTENTION AND CALCULATI", "3", "", "3", 3, "", "", "", "", "", 1.0, "SCREENING 1", -7, "TREATMENT", "2013-01-28", -15], ["CDISCPILOT01", "QS", "01-701-1180", 2005, "MMITM05", "ASK FOR THE 3 OBJECTS REPEATED ABOVE.", "MMSE", "RECALL", "0", "", "0", 0, "", "", "", "", "", 1.0, "SCREENING 1", -7, "TREATMENT", "2013-01-28", -15], ["CDISCPILOT01", "QS", "01-701-1180", 2006, "MMITM06", "NAME A PENCIL, AND WATCH (2 POINTS)", "MMSE", "LANGUAGE", "7", "", "7", 7, "", "", "", "", "", 1.0, "SCREENING 1", -7, "TREATMENT", "2013-01-28", -15], ["CDISCPILOT01", "QS", "01-701-1181", 2001, "MMITM01", "WHAT IS THE (YEAR) (SEASON) (DATE) ?", "MMSE", "ORIENTATION", "0", "", "0", 0, "", "", "", "", "", 1.0, "SCREENING 1", -7, "TREATMENT", "2013-11-26", -9], ["CDISCPILOT01", "QS", "01-701-1181", 2002, "MMITM02", "WHERE ARE WE: (STATE) (COUNTRY) (TOWN) ?", "MMSE", "ORIENTATION", "1", "", "1", 1, "", "", "", "", "", 1.0, "SCREENING 1", -7, "TREATMENT", "2013-11-26", -9], ["CDISCPILOT01", "QS", "01-701-1181", 2003, "MMITM03", "NAME 3 OBJECTS: 1 SECOND TO SAY EACH.", "MMSE", "REGISTRATION", "3", "", "3", 3, "", "", "", "", "", 1.0, "SCREENING 1", -7, "TREATMENT", "2013-11-26", -9], ["CDISCPILOT01", "QS", "01-701-1181", 2004, "MMITM04", "SERIAL 7'S. 1 POINT FOR EACH CORRECT.", "MMSE", "ATTENTION AND CALCULATI", "0", "", "0", 0, "", "", "", "", "", 1.0, "SCREENING 1", -7, "TREATMENT", "2013-11-26", -9], ["CDISCPILOT01", "QS", "01-701-1181", 2005, "MMITM05", "ASK FOR THE 3 OBJECTS REPEATED ABOVE.", "MMSE", "RECALL", "0", "", "0", 0, "", "", "", "", "", 1.0, "SCREENING 1", -7, "TREATMENT", "2013-11-26", -9], ["CDISCPILOT01", "QS", "01-701-1181", 2006, "MMITM06", "NAME A PENCIL, AND WATCH (2 POINTS)", "MMSE", "LANGUAGE", "6", "", "6", 6, "", "", "", "", "", 1.0, "SCREENING 1", -7, "TREATMENT", "2013-11-26", -9], ["CDISCPILOT01", "QS", "01-701-1188", 2001, "MMITM01", "WHAT IS THE (YEAR) (SEASON) (DATE) ?", "MMSE", "ORIENTATION", "5", "", "5", 5, "", "", "", "", "", 1.0, "SCREENING 1", -7, "TREATMENT", "2013-02-03", -12], ["CDISCPILOT01", "QS", "01-701-1188", 2002, "MMITM02", "WHERE ARE WE: (STATE) (COUNTRY) (TOWN) ?", "MMSE", "ORIENTATION", "4", "", "4", 4, "", "", "", "", "", 1.0, "SCREENING 1", -7, "TREATMENT", "2013-02-03", -12], ["CDISCPILOT01", "QS", "01-701-1188", 2003, "MMITM03", "NAME 3 OBJECTS: 1 SECOND TO SAY EACH.", "MMSE", "REGISTRATION", "3", "", "3", 3, "", "", "", "", "", 1.0, "SCREENING 1", -7, "TREATMENT", "2013-02-03", -12], ["CDISCPILOT01", "QS", "01-701-1188", 2004, "MMITM04", "SERIAL 7'S. 1 POINT FOR EACH CORRECT.", "MMSE", "ATTENTION AND CALCULATI", "5", "", "5", 5, "", "", "", "", "", 1.0, "SCREENING 1", -7, "TREATMENT", "2013-02-03", -12], ["CDISCPILOT01", "QS", "01-701-1188", 2005, "MMITM05", "ASK FOR THE 3 OBJECTS REPEATED ABOVE.", "MMSE", "RECALL", "1", "", "1", 1, "", "", "", "", "", 1.0, "SCREENING 1", -7, "TREATMENT", "2013-02-03", -12], ["CDISCPILOT01", "QS", "01-701-1188", 2006, "MMITM06", "NAME A PENCIL, AND WATCH (2 POINTS)", "MMSE", "LANGUAGE", "5", "", "5", 5, "", "", "", "", "", 1.0, "SCREENING 1", -7, "TREATMENT", "2013-02-03", -12], ["CDISCPILOT01", "QS", "01-701-1192", 2001, "MMITM01", "WHAT IS THE (YEAR) (SEASON) (DATE) ?", "MMSE", "ORIENTATION", "2", "", "2", 2, "", "", "", "", "", 1.0, "SCREENING 1", -7, "TREATMENT", "2012-07-08", -14], ["CDISCPILOT01", "QS", "01-701-1192", 2002, "MMITM02", "WHERE ARE WE: (STATE) (COUNTRY) (TOWN) ?", "MMSE", "ORIENTATION", "4", "", "4", 4, "", "", "", "", "", 1.0, "SCREENING 1", -7, "TREATMENT", "2012-07-08", -14], ["CDISCPILOT01", "QS", "01-701-1192", 2003, "MMITM03", "NAME 3 OBJECTS: 1 SECOND TO SAY EACH.", "MMSE", "REGISTRATION", "3", "", "3", 3, "", "", "", "", "", 1.0, "SCREENING 1", -7, "TREATMENT", "2012-07-08", -14], ["CDISCPILOT01", "QS", "01-701-1192", 2004, "MMITM04", "SERIAL 7'S. 1 POINT FOR EACH CORRECT.", "MMSE", "ATTENTION AND CALCULATI", "5", "", "5", 5, "", "", "", "", "", 1.0, "SCREENING 1", -7, "TREATMENT", "2012-07-08", -14], ["CDISCPILOT01", "QS", "01-701-1192", 2005, "MMITM05", "ASK FOR THE 3 OBJECTS REPEATED ABOVE.", "MMSE", "RECALL", "1", "", "1", 1, "", "", "", "", "", 1.0, "SCREENING 1", -7, "TREATMENT", "2012-07-08", -14], ["CDISCPILOT01", "QS", "01-701-1192", 2006, "MMITM06", "NAME A PENCIL, AND WATCH (2 POINTS)", "MMSE", "LANGUAGE", "8", "", "8", 8, "", "", "", "", "", 1.0, "SCREENING 1", -7, "TREATMENT", "2012-07-08", -14], ["CDISCPILOT01", "QS", "01-701-1203", 2001, "MMITM01", "WHAT IS THE (YEAR) (SEASON) (DATE) ?", "MMSE", "ORIENTATION", "1", "", "1", 1, "", "", "", "", "", 1.0, "SCREENING 1", -7, "TREATMENT", "2013-01-25", -8], ["CDISCPILOT01", "QS", "01-701-1203", 2002, "MMITM02", "WHERE ARE WE: (STATE) (COUNTRY) (TOWN) ?", "MMSE", "ORIENTATION", "3", "", "3", 3, "", "", "", "", "", 1.0, "SCREENING 1", -7, "TREATMENT", "2013-01-25", -8], ["CDISCPILOT01", "QS", "01-701-1203", 2003, "MMITM03", "NAME 3 OBJECTS: 1 SECOND TO SAY EACH.", "MMSE", "REGISTRATION", "3", "", "3", 3, "", "", "", "", "", 1.0, "SCREENING 1", -7, "TREATMENT", "2013-01-25", -8], ["CDISCPILOT01", "QS", "01-701-1203", 2004, "MMITM04", "SERIAL 7'S. 1 POINT FOR EACH CORRECT.", "MMSE", "ATTENTION AND CALCULATI", "5", "", "5", 5, "", "", "", "", "", 1.0, "SCREENING 1", -7, "TREATMENT", "2013-01-25", -8], ["CDISCPILOT01", "QS", "01-701-1203", 2005, "MMITM05", "ASK FOR THE 3 OBJECTS REPEATED ABOVE.", "MMSE", "RECALL", "0", "", "0", 0, "", "", "", "", "", 1.0, "SCREENING 1", -7, "TREATMENT", "2013-01-25", -8], ["CDISCPILOT01", "QS", "01-701-1203", 2006, "MMITM06", "NAME A PENCIL, AND WATCH (2 POINTS)", "MMSE", "LANGUAGE", "9", "", "9", 9, "", "", "", "", "", 1.0, "SCREENING 1", -7, "TREATMENT", "2013-01-25", -8], ["CDISCPILOT01", "QS", "01-701-1211", 2001, "MMITM01", "WHAT IS THE (YEAR) (SEASON) (DATE) ?", "MMSE", "ORIENTATION", "0", "", "0", 0, "", "", "", "", "", 1.0, "SCREENING 1", -7, "TREATMENT", "2012-10-30", -16], ["CDISCPILOT01", "QS", "01-701-1211", 2002, "MMITM02", "WHERE ARE WE: (STATE) (COUNTRY) (TOWN) ?", "MMSE", "ORIENTATION", "3", "", "3", 3, "", "", "", "", "", 1.0, "SCREENING 1", -7, "TREATMENT", "2012-10-30", -16], ["CDISCPILOT01", "QS", "01-701-1211", 2003, "MMITM03", "NAME 3 OBJECTS: 1 SECOND TO SAY EACH.", "MMSE", "REGISTRATION", "3", "", "3", 3, "", "", "", "", "", 1.0, "SCREENING 1", -7, "TREATMENT", "2012-10-30", -16], ["CDISCPILOT01", "QS", "01-701-1211", 2004, "MMITM04", "SERIAL 7'S. 1 POINT FOR EACH CORRECT.", "MMSE", "ATTENTION AND CALCULATI", "0", "", "0", 0, "", "", "", "", "", 1.0, "SCREENING 1", -7, "TREATMENT", "2012-10-30", -16], ["CDISCPILOT01", "QS", "01-701-1211", 2005, "MMITM05", "ASK FOR THE 3 OBJECTS REPEATED ABOVE.", "MMSE", "RECALL", "0", "", "0", 0, "", "", "", "", "", 1.0, "SCREENING 1", -7, "TREATMENT", "2012-10-30", -16], ["CDISCPILOT01", "QS", "01-701-1211", 2006, "MMITM06", "NAME A PENCIL, AND WATCH (2 POINTS)", "MMSE", "LANGUAGE", "6", "", "6", 6, "", "", "", "", "", 1.0, "SCREENING 1", -7, "TREATMENT", "2012-10-30", -16], ["CDISCPILOT01", "QS", "01-701-1234", 2001, "MMITM01", "WHAT IS THE (YEAR) (SEASON) (DATE) ?", "MMSE", "ORIENTATION", "3", "", "3", 3, "", "", "", "", "", 1.0, "SCREENING 1", -7, "TREATMENT", "2013-03-20", -10], ["CDISCPILOT01", "QS", "01-701-1234", 2002, "MMITM02", "WHERE ARE WE: (STATE) (COUNTRY) (TOWN) ?", "MMSE", "ORIENTATION", "3", "", "3", 3, "", "", "", "", "", 1.0, "SCREENING 1", -7, "TREATMENT", "2013-03-20", -10], ["CDISCPILOT01", "QS", "01-701-1234", 2003, "MMITM03", "NAME 3 OBJECTS: 1 SECOND TO SAY EACH.", "MMSE", "REGISTRATION", "3", "", "3", 3, "", "", "", "", "", 1.0, "SCREENING 1", -7, "TREATMENT", "2013-03-20", -10], ["CDISCPILOT01", "QS", "01-701-1234", 2004, "MMITM04", "SERIAL 7'S. 1 POINT FOR EACH CORRECT.", "MMSE", "ATTENTION AND CALCULATI", "3", "", "3", 3, "", "", "", "", "", 1.0, "SCREENING 1", -7, "TREATMENT", "2013-03-20", -10], ["CDISCPILOT01", "QS", "01-701-1234", 2005, "MMITM05", "ASK FOR THE 3 OBJECTS REPEATED ABOVE.", "MMSE", "RECALL", "1", "", "1", 1, "", "", "", "", "", 1.0, "SCREENING 1", -7, "TREATMENT", "2013-03-20", -10], ["CDISCPILOT01", "QS", "01-701-1234", 2006, "MMITM06", "NAME A PENCIL, AND WATCH (2 POINTS)", "MMSE", "LANGUAGE", "7", "", "7", 7, "", "", "", "", "", 1.0, "SCREENING 1", -7, "TREATMENT", "2013-03-20", -10], ["CDISCPILOT01", "QS", "01-701-1239", 2001, "MMITM01", "WHAT IS THE (YEAR) (SEASON) (DATE) ?", "MMSE", "ORIENTATION", "4", "", "4", 4, "", "", "", "", "", 1.0, "SCREENING 1", -7, "TREATMENT", "2013-12-28", -14], ["CDISCPILOT01", "QS", "01-701-1239", 2002, "MMITM02", "WHERE ARE WE: (STATE) (COUNTRY) (TOWN) ?", "MMSE", "ORIENTATION", "4", "", "4", 4, "", "", "", "", "", 1.0, "SCREENING 1", -7, "TREATMENT", "2013-12-28", -14], ["CDISCPILOT01", "QS", "01-701-1239", 2003, "MMITM03", "NAME 3 OBJECTS: 1 SECOND TO SAY EACH.", "MMSE", "REGISTRATION", "3", "", "3", 3, "", "", "", "", "", 1.0, "SCREENING 1", -7, "TREATMENT", "2013-12-28", -14], ["CDISCPILOT01", "QS", "01-701-1239", 2004, "MMITM04", "SERIAL 7'S. 1 POINT FOR EACH CORRECT.", "MMSE", "ATTENTION AND CALCULATI", "3", "", "3", 3, "", "", "", "", "", 1.0, "SCREENING 1", -7, "TREATMENT", "2013-12-28", -14], ["CDISCPILOT01", "QS", "01-701-1239", 2005, "MMITM05", "ASK FOR THE 3 OBJECTS REPEATED ABOVE.", "MMSE", "RECALL", "2", "", "2", 2, "", "", "", "", "", 1.0, "SCREENING 1", -7, "TREATMENT", "2013-12-28", -14], ["CDISCPILOT01", "QS", "01-701-1239", 2006, "MMITM06", "NAME A PENCIL, AND WATCH (2 POINTS)", "MMSE", "LANGUAGE", "7", "", "7", 7, "", "", "", "", "", 1.0, "SCREENING 1", -7, "TREATMENT", "2013-12-28", -14], ["CDISCPILOT01", "QS", "01-701-1275", 2001, "MMITM01", "WHAT IS THE (YEAR) (SEASON) (DATE) ?", "MMSE", "ORIENTATION", "5", "", "5", 5, "", "", "", "", "", 1.0, "SCREENING 1", -7, "TREATMENT", "2014-01-25", -13], ["CDISCPILOT01", "QS", "01-701-1275", 2002, "MMITM02", "WHERE ARE WE: (STATE) (COUNTRY) (TOWN) ?", "MMSE", "ORIENTATION", "5", "", "5", 5, "", "", "", "", "", 1.0, "SCREENING 1", -7, "TREATMENT", "2014-01-25", -13], ["CDISCPILOT01", "QS", "01-701-1275", 2003, "MMITM03", "NAME 3 OBJECTS: 1 SECOND TO SAY EACH.", "MMSE", "REGISTRATION", "3", "", "3", 3, "", "", "", "", "", 1.0, "SCREENING 1", -7, "TREATMENT", "2014-01-25", -13], ["CDISCPILOT01", "QS", "01-701-1275", 2004, "MMITM04", "SERIAL 7'S. 1 POINT FOR EACH CORRECT.", "MMSE", "ATTENTION AND CALCULATI", "2", "", "2", 2, "", "", "", "", "", 1.0, "SCREENING 1", -7, "TREATMENT", "2014-01-25", -13], ["CDISCPILOT01", "QS", "01-701-1275", 2005, "MMITM05", "ASK FOR THE 3 OBJECTS REPEATED ABOVE.", "MMSE", "RECALL", "1", "", "1", 1, "", "", "", "", "", 1.0, "SCREENING 1", -7, "TREATMENT", "2014-01-25", -13], ["CDISCPILOT01", "QS", "01-701-1275", 2006, "MMITM06", "NAME A PENCIL, AND WATCH (2 POINTS)", "MMSE", "LANGUAGE", "6", "", "6", 6, "", "", "", "", "", 1.0, "SCREENING 1", -7, "TREATMENT", "2014-01-25", -13], ["CDISCPILOT01", "QS", "01-701-1287", 2001, "MMITM01", "WHAT IS THE (YEAR) (SEASON) (DATE) ?", "MMSE", "ORIENTATION", "5", "", "5", 5, "", "", "", "", "", 1.0, "SCREENING 1", -7, "TREATMENT", "2014-01-17", -8], ["CDISCPILOT01", "QS", "01-701-1287", 2002, "MMITM02", "WHERE ARE WE: (STATE) (COUNTRY) (TOWN) ?", "MMSE", "ORIENTATION", "5", "", "5", 5, "", "", "", "", "", 1.0, "SCREENING 1", -7, "TREATMENT", "2014-01-17", -8], ["CDISCPILOT01", "QS", "01-701-1287", 2003, "MMITM03", "NAME 3 OBJECTS: 1 SECOND TO SAY EACH.", "MMSE", "REGISTRATION", "3", "", "3", 3, "", "", "", "", "", 1.0, "SCREENING 1", -7, "TREATMENT", "2014-01-17", -8], ["CDISCPILOT01", "QS", "01-701-1287", 2004, "MMITM04", "SERIAL 7'S. 1 POINT FOR EACH CORRECT.", "MMSE", "ATTENTION AND CALCULATI", "2", "", "2", 2, "", "", "", "", "", 1.0, "SCREENING 1", -7, "TREATMENT", "2014-01-17", -8], ["CDISCPILOT01", "QS", "01-701-1287", 2005, "MMITM05", "ASK FOR THE 3 OBJECTS REPEATED ABOVE.", "MMSE", "RECALL", "0", "", "0", 0, "", "", "", "", "", 1.0, "SCREENING 1", -7, "TREATMENT", "2014-01-17", -8], ["CDISCPILOT01", "QS", "01-701-1287", 2006, "MMITM06", "NAME A PENCIL, AND WATCH (2 POINTS)", "MMSE", "LANGUAGE", "7", "", "7", 7, "", "", "", "", "", 1.0, "SCREENING 1", -7, "TREATMENT", "2014-01-17", -8], ["CDISCPILOT01", "QS", "01-701-1294", 2001, "MMITM01", "WHAT IS THE (YEAR) (SEASON) (DATE) ?", "MMSE", "ORIENTATION", "5", "", "5", 5, "", "", "", "", "", 1.0, "SCREENING 1", -7, "TREATMENT", "2013-03-17", -7], ["CDISCPILOT01", "QS", "01-701-1294", 2002, "MMITM02", "WHERE ARE WE: (STATE) (COUNTRY) (TOWN) ?", "MMSE", "ORIENTATION", "3", "", "3", 3, "", "", "", "", "", 1.0, "SCREENING 1", -7, "TREATMENT", "2013-03-17", -7], ["CDISCPILOT01", "QS", "01-701-1294", 2003, "MMITM03", "NAME 3 OBJECTS: 1 SECOND TO SAY EACH.", "MMSE", "REGISTRATION", "3", "", "3", 3, "", "", "", "", "", 1.0, "SCREENING 1", -7, "TREATMENT", "2013-03-17", -7], ["CDISCPILOT01", "QS", "01-701-1294", 2004, "MMITM04", "SERIAL 7'S. 1 POINT FOR EACH CORRECT.", "MMSE", "ATTENTION AND CALCULATI", "2", "", "2", 2, "", "", "", "", "", 1.0, "SCREENING 1", -7, "TREATMENT", "2013-03-17", -7], ["CDISCPILOT01", "QS", "01-701-1294", 2005, "MMITM05", "ASK FOR THE 3 OBJECTS REPEATED ABOVE.", "MMSE", "RECALL", "1", "", "1", 1, "", "", "", "", "", 1.0, "SCREENING 1", -7, "TREATMENT", "2013-03-17", -7], ["CDISCPILOT01", "QS", "01-701-1294", 2006, "MMITM06", "NAME A PENCIL, AND WATCH (2 POINTS)", "MMSE", "LANGUAGE", "9", "", "9", 9, "", "", "", "", "", 1.0, "SCREENING 1", -7, "TREATMENT", "2013-03-17", -7], ["CDISCPILOT01", "QS", "01-701-1302", 2001, "MMITM01", "WHAT IS THE (YEAR) (SEASON) (DATE) ?", "MMSE", "ORIENTATION", "4", "", "4", 4, "", "", "", "", "", 1.0, "SCREENING 1", -7, "TREATMENT", "2013-08-20", -9], ["CDISCPILOT01", "QS", "01-701-1302", 2002, "MMITM02", "WHERE ARE WE: (STATE) (COUNTRY) (TOWN) ?", "MMSE", "ORIENTATION", "3", "", "3", 3, "", "", "", "", "", 1.0, "SCREENING 1", -7, "TREATMENT", "2013-08-20", -9], ["CDISCPILOT01", "QS", "01-701-1302", 2003, "MMITM03", "NAME 3 OBJECTS: 1 SECOND TO SAY EACH.", "MMSE", "REGISTRATION", "3", "", "3", 3, "", "", "", "", "", 1.0, "SCREENING 1", -7, "TREATMENT", "2013-08-20", -9], ["CDISCPILOT01", "QS", "01-701-1302", 2004, "MMITM04", "SERIAL 7'S. 1 POINT FOR EACH CORRECT.", "MMSE", "ATTENTION AND CALCULATI", "4", "", "4", 4, "", "", "", "", "", 1.0, "SCREENING 1", -7, "TREATMENT", "2013-08-20", -9], ["CDISCPILOT01", "QS", "01-701-1302", 2005, "MMITM05", "ASK FOR THE 3 OBJECTS REPEATED ABOVE.", "MMSE", "RECALL", "1", "", "1", 1, "", "", "", "", "", 1.0, "SCREENING 1", -7, "TREATMENT", "2013-08-20", -9], ["CDISCPILOT01", "QS", "01-701-1302", 2006, "MMITM06", "NAME A PENCIL, AND WATCH (2 POINTS)", "MMSE", "LANGUAGE", "8", "", "8", 8, "", "", "", "", "", 1.0, "SCREENING 1", -7, "TREATMENT", "2013-08-20", -9], ["CDISCPILOT01", "QS", "01-701-1317", 2001, "MMITM01", "WHAT IS THE (YEAR) (SEASON) (DATE) ?", "MMSE", "ORIENTATION", "4", "", "4", 4, "", "", "", "", "", 1.0, "SCREENING 1", -7, "TREATMENT", "2014-05-10", -12], ["CDISCPILOT01", "QS", "01-701-1317", 2002, "MMITM02", "WHERE ARE WE: (STATE) (COUNTRY) (TOWN) ?", "MMSE", "ORIENTATION", "3", "", "3", 3, "", "", "", "", "", 1.0, "SCREENING 1", -7, "TREATMENT", "2014-05-10", -12], ["CDISCPILOT01", "QS", "01-701-1317", 2003, "MMITM03", "NAME 3 OBJECTS: 1 SECOND TO SAY EACH.", "MMSE", "REGISTRATION", "3", "", "3", 3, "", "", "", "", "", 1.0, "SCREENING 1", -7, "TREATMENT", "2014-05-10", -12], ["CDISCPILOT01", "QS", "01-701-1317", 2004, "MMITM04", "SERIAL 7'S. 1 POINT FOR EACH CORRECT.", "MMSE", "ATTENTION AND CALCULATI", "2", "", "2", 2, "", "", "", "", "", 1.0, "SCREENING 1", -7, "TREATMENT", "2014-05-10", -12], ["CDISCPILOT01", "QS", "01-701-1317", 2005, "MMITM05", "ASK FOR THE 3 OBJECTS REPEATED ABOVE.", "MMSE", "RECALL", "0", "", "0", 0, "", "", "", "", "", 1.0, "SCREENING 1", -7, "TREATMENT", "2014-05-10", -12], ["CDISCPILOT01", "QS", "01-701-1317", 2006, "MMITM06", "NAME A PENCIL, AND WATCH (2 POINTS)", "MMSE", "LANGUAGE", "8", "", "8", 8, "", "", "", "", "", 1.0, "SCREENING 1", -7, "TREATMENT", "2014-05-10", -12], ["CDISCPILOT01", "QS", "01-701-1324", 2001, "MMITM01", "WHAT IS THE (YEAR) (SEASON) (DATE) ?", "MMSE", "ORIENTATION", "3", "", "3", 3, "", "", "", "", "", 1.0, "SCREENING 1", -7, "TREATMENT", "2012-09-16", -16], ["CDISCPILOT01", "QS", "01-701-1324", 2002, "MMITM02", "WHERE ARE WE: (STATE) (COUNTRY) (TOWN) ?", "MMSE", "ORIENTATION", "3", "", "3", 3, "", "", "", "", "", 1.0, "SCREENING 1", -7, "TREATMENT", "2012-09-16", -16], ["CDISCPILOT01", "QS", "01-701-1324", 2003, "MMITM03", "NAME 3 OBJECTS: 1 SECOND TO SAY EACH.", "MMSE", "REGISTRATION", "3", "", "3", 3, "", "", "", "", "", 1.0, "SCREENING 1", -7, "TREATMENT", "2012-09-16", -16], ["CDISCPILOT01", "QS", "01-701-1324", 2004, "MMITM04", "SERIAL 7'S. 1 POINT FOR EACH CORRECT.", "MMSE", "ATTENTION AND CALCULATI", "5", "", "5", 5, "", "", "", "", "", 1.0, "SCREENING 1", -7, "TREATMENT", "2012-09-16", -16], ["CDISCPILOT01", "QS", "01-701-1324", 2005, "MMITM05", "ASK FOR THE 3 OBJECTS REPEATED ABOVE.", "MMSE", "RECALL", "0", "", "0", 0, "", "", "", "", "", 1.0, "SCREENING 1", -7, "TREATMENT", "2012-09-16", -16], ["CDISCPILOT01", "QS", "01-701-1324", 2006, "MMITM06", "NAME A PENCIL, AND WATCH (2 POINTS)", "MMSE", "LANGUAGE", "9", "", "9", 9, "", "", "", "", "", 1.0, "SCREENING 1", -7, "TREATMENT", "2012-09-16", -16], ["CDISCPILOT01", "QS", "01-701-1341", 2001, "MMITM01", "WHAT IS THE (YEAR) (SEASON) (DATE) ?", "MMSE", "ORIENTATION", "4", "", "4", 4, "", "", "", "", "", 1.0, "SCREENING 1", -7, "TREATMENT", "2012-12-22", -14], ["CDISCPILOT01", "QS", "01-701-1341", 2002, "MMITM02", "WHERE ARE WE: (STATE) (COUNTRY) (TOWN) ?", "MMSE", "ORIENTATION", "5", "", "5", 5, "", "", "", "", "", 1.0, "SCREENING 1", -7, "TREATMENT", "2012-12-22", -14], ["CDISCPILOT01", "QS", "01-701-1341", 2003, "MMITM03", "NAME 3 OBJECTS: 1 SECOND TO SAY EACH.", "MMSE", "REGISTRATION", "2", "", "2", 2, "", "", "", "", "", 1.0, "SCREENING 1", -7, "TREATMENT", "2012-12-22", -14], ["CDISCPILOT01", "QS", "01-701-1341", 2004, "MMITM04", "SERIAL 7'S. 1 POINT FOR EACH CORRECT.", "MMSE", "ATTENTION AND CALCULATI", "2", "", "2", 2, "", "", "", "", "", 1.0, "SCREENING 1", -7, "TREATMENT", "2012-12-22", -14], ["CDISCPILOT01", "QS", "01-701-1341", 2005, "MMITM05", "ASK FOR THE 3 OBJECTS REPEATED ABOVE.", "MMSE", "RECALL", "2", "", "2", 2, "", "", "", "", "", 1.0, "SCREENING 1", -7, "TREATMENT", "2012-12-22", -14], ["CDISCPILOT01", "QS", "01-701-1341", 2006, "MMITM06", "NAME A PENCIL, AND WATCH (2 POINTS)", "MMSE", "LANGUAGE", "8", "", "8", 8, "", "", "", "", "", 1.0, "SCREENING 1", -7, "TREATMENT", "2012-12-22", -14], ["CDISCPILOT01", "QS", "01-701-1345", 2001, "MMITM01", "WHAT IS THE (YEAR) (SEASON) (DATE) ?", "MMSE", "ORIENTATION", "2", "", "2", 2, "", "", "", "", "", 1.0, "SCREENING 1", -7, "TREATMENT", "2013-10-01", -7], ["CDISCPILOT01", "QS", "01-701-1345", 2002, "MMITM02", "WHERE ARE WE: (STATE) (COUNTRY) (TOWN) ?", "MMSE", "ORIENTATION", "3", "", "3", 3, "", "", "", "", "", 1.0, "SCREENING 1", -7, "TREATMENT", "2013-10-01", -7], ["CDISCPILOT01", "QS", "01-701-1345", 2003, "MMITM03", "NAME 3 OBJECTS: 1 SECOND TO SAY EACH.", "MMSE", "REGISTRATION", "3", "", "3", 3, "", "", "", "", "", 1.0, "SCREENING 1", -7, "TREATMENT", "2013-10-01", -7], ["CDISCPILOT01", "QS", "01-701-1345", 2004, "MMITM04", "SERIAL 7'S. 1 POINT FOR EACH CORRECT.", "MMSE", "ATTENTION AND CALCULATI", "5", "", "5", 5, "", "", "", "", "", 1.0, "SCREENING 1", -7, "TREATMENT", "2013-10-01", -7], ["CDISCPILOT01", "QS", "01-701-1345", 2005, "MMITM05", "ASK FOR THE 3 OBJECTS REPEATED ABOVE.", "MMSE", "RECALL", "2", "", "2", 2, "", "", "", "", "", 1.0, "SCREENING 1", -7, "TREATMENT", "2013-10-01", -7], ["CDISCPILOT01", "QS", "01-701-1345", 2006, "MMITM06", "NAME A PENCIL, AND WATCH (2 POINTS)", "MMSE", "LANGUAGE", "8", "", "8", 8, "", "", "", "", "", 1.0, "SCREENING 1", -7, "TREATMENT", "2013-10-01", -7], ["CDISCPILOT01", "QS", "01-701-1360", 2001, "MMITM01", "WHAT IS THE (YEAR) (SEASON) (DATE) ?", "MMSE", "ORIENTATION", "5", "", "5", 5, "", "", "", "", "", 1.0, "SCREENING 1", -7, "TREATMENT", "2013-07-24", -7], ["CDISCPILOT01", "QS", "01-701-1360", 2002, "MMITM02", "WHERE ARE WE: (STATE) (COUNTRY) (TOWN) ?", "MMSE", "ORIENTATION", "3", "", "3", 3, "", "", "", "", "", 1.0, "SCREENING 1", -7, "TREATMENT", "2013-07-24", -7], ["CDISCPILOT01", "QS", "01-701-1360", 2003, "MMITM03", "NAME 3 OBJECTS: 1 SECOND TO SAY EACH.", "MMSE", "REGISTRATION", "3", "", "3", 3, "", "", "", "", "", 1.0, "SCREENING 1", -7, "TREATMENT", "2013-07-24", -7], ["CDISCPILOT01", "QS", "01-701-1360", 2004, "MMITM04", "SERIAL 7'S. 1 POINT FOR EACH CORRECT.", "MMSE", "ATTENTION AND CALCULATI", "4", "", "4", 4, "", "", "", "", "", 1.0, "SCREENING 1", -7, "TREATMENT", "2013-07-24", -7], ["CDISCPILOT01", "QS", "01-701-1360", 2005, "MMITM05", "ASK FOR THE 3 OBJECTS REPEATED ABOVE.", "MMSE", "RECALL", "1", "", "1", 1, "", "", "", "", "", 1.0, "SCREENING 1", -7, "TREATMENT", "2013-07-24", -7], ["CDISCPILOT01", "QS", "01-701-1360", 2006, "MMITM06", "NAME A PENCIL, AND WATCH (2 POINTS)", "MMSE", "LANGUAGE", "7", "", "7", 7, "", "", "", "", "", 1.0, "SCREENING 1", -7, "TREATMENT", "2013-07-24", -7], ["CDISCPILOT01", "QS", "01-701-1363", 2001, "MMITM01", "WHAT IS THE (YEAR) (SEASON) (DATE) ?", "MMSE", "ORIENTATION", "3", "", "3", 3, "", "", "", "", "", 1.0, "SCREENING 1", -7, "TREATMENT", "2013-05-20", -10], ["CDISCPILOT01", "QS", "01-701-1363", 2002, "MMITM02", "WHERE ARE WE: (STATE) (COUNTRY) (TOWN) ?", "MMSE", "ORIENTATION", "5", "", "5", 5, "", "", "", "", "", 1.0, "SCREENING 1", -7, "TREATMENT", "2013-05-20", -10], ["CDISCPILOT01", "QS", "01-701-1363", 2003, "MMITM03", "NAME 3 OBJECTS: 1 SECOND TO SAY EACH.", "MMSE", "REGISTRATION", "3", "", "3", 3, "", "", "", "", "", 1.0, "SCREENING 1", -7, "TREATMENT", "2013-05-20", -10], ["CDISCPILOT01", "QS", "01-701-1363", 2004, "MMITM04", "SERIAL 7'S. 1 POINT FOR EACH CORRECT.", "MMSE", "ATTENTION AND CALCULATI", "4", "", "4", 4, "", "", "", "", "", 1.0, "SCREENING 1", -7, "TREATMENT", "2013-05-20", -10], ["CDISCPILOT01", "QS", "01-701-1363", 2005, "MMITM05", "ASK FOR THE 3 OBJECTS REPEATED ABOVE.", "MMSE", "RECALL", "0", "", "0", 0, "", "", "", "", "", 1.0, "SCREENING 1", -7, "TREATMENT", "2013-05-20", -10], ["CDISCPILOT01", "QS", "01-701-1363", 2006, "MMITM06", "NAME A PENCIL, AND WATCH (2 POINTS)", "MMSE", "LANGUAGE", "7", "", "7", 7, "", "", "", "", "", 1.0, "SCREENING 1", -7, "TREATMENT", "2013-05-20", -10], ["CDISCPILOT01", "QS", "01-701-1383", 2001, "MMITM01", "WHAT IS THE (YEAR) (SEASON) (DATE) ?", "MMSE", "ORIENTATION", "1", "", "1", 1, "", "", "", "", "", 1.0, "SCREENING 1", -7, "TREATMENT", "2013-01-22", -13], ["CDISCPILOT01", "QS", "01-701-1383", 2002, "MMITM02", "WHERE ARE WE: (STATE) (COUNTRY) (TOWN) ?", "MMSE", "ORIENTATION", "5", "", "5", 5, "", "", "", "", "", 1.0, "SCREENING 1", -7, "TREATMENT", "2013-01-22", -13], ["CDISCPILOT01", "QS", "01-701-1383", 2003, "MMITM03", "NAME 3 OBJECTS: 1 SECOND TO SAY EACH.", "MMSE", "REGISTRATION", "3", "", "3", 3, "", "", "", "", "", 1.0, "SCREENING 1", -7, "TREATMENT", "2013-01-22", -13], ["CDISCPILOT01", "QS", "01-701-1383", 2004, "MMITM04", "SERIAL 7'S. 1 POINT FOR EACH CORRECT.", "MMSE", "ATTENTION AND CALCULATI", "5", "", "5", 5, "", "", "", "", "", 1.0, "SCREENING 1", -7, "TREATMENT", "2013-01-22", -13], ["CDISCPILOT01", "QS", "01-701-1383", 2005, "MMITM05", "ASK FOR THE 3 OBJECTS REPEATED ABOVE.", "MMSE", "RECALL", "0", "", "0", 0, "", "", "", "", "", 1.0, "SCREENING 1", -7, "TREATMENT", "2013-01-22", -13], ["CDISCPILOT01", "QS", "01-701-1383", 2006, "MMITM06", "NAME A PENCIL, AND WATCH (2 POINTS)", "MMSE", "LANGUAGE", "8", "", "8", 8, "", "", "", "", "", 1.0, "SCREENING 1", -7, "TREATMENT", "2013-01-22", -13], ["CDISCPILOT01", "QS", "01-701-1387", 2001, "MMITM01", "WHAT IS THE (YEAR) (SEASON) (DATE) ?", "MMSE", "ORIENTATION", "0", "", "0", 0, "", "", "", "", "", 1.0, "SCREENING 1", -7, "TREATMENT", "2014-02-23", -17], ["CDISCPILOT01", "QS", "01-701-1387", 2002, "MMITM02", "WHERE ARE WE: (STATE) (COUNTRY) (TOWN) ?", "MMSE", "ORIENTATION", "0", "", "0", 0, "", "", "", "", "", 1.0, "SCREENING 1", -7, "TREATMENT", "2014-02-23", -17], ["CDISCPILOT01", "QS", "01-701-1387", 2003, "MMITM03", "NAME 3 OBJECTS: 1 SECOND TO SAY EACH.", "MMSE", "REGISTRATION", "3", "", "3", 3, "", "", "", "", "", 1.0, "SCREENING 1", -7, "TREATMENT", "2014-02-23", -17], ["CDISCPILOT01", "QS", "01-701-1387", 2004, "MMITM04", "SERIAL 7'S. 1 POINT FOR EACH CORRECT.", "MMSE", "ATTENTION AND CALCULATI", "4", "", "4", 4, "", "", "", "", "", 1.0, "SCREENING 1", -7, "TREATMENT", "2014-02-23", -17], ["CDISCPILOT01", "QS", "01-701-1387", 2005, "MMITM05", "ASK FOR THE 3 OBJECTS REPEATED ABOVE.", "MMSE", "RECALL", "0", "", "0", 0, "", "", "", "", "", 1.0, "SCREENING 1", -7, "TREATMENT", "2014-02-23", -17], ["CDISCPILOT01", "QS", "01-701-1387", 2006, "MMITM06", "NAME A PENCIL, AND WATCH (2 POINTS)", "MMSE", "LANGUAGE", "4", "", "4", 4, "", "", "", "", "", 1.0, "SCREENING 1", -7, "TREATMENT", "2014-02-23", -17], ["CDISCPILOT01", "QS", "01-701-1392", 2001, "MMITM01", "WHAT IS THE (YEAR) (SEASON) (DATE) ?", "MMSE", "ORIENTATION", "2", "", "2", 2, "", "", "", "", "", 1.0, "SCREENING 1", -7, "TREATMENT", "2012-10-17", -11], ["CDISCPILOT01", "QS", "01-701-1392", 2002, "MMITM02", "WHERE ARE WE: (STATE) (COUNTRY) (TOWN) ?", "MMSE", "ORIENTATION", "5", "", "5", 5, "", "", "", "", "", 1.0, "SCREENING 1", -7, "TREATMENT", "2012-10-17", -11], ["CDISCPILOT01", "QS", "01-701-1392", 2003, "MMITM03", "NAME 3 OBJECTS: 1 SECOND TO SAY EACH.", "MMSE", "REGISTRATION", "3", "", "3", 3, "", "", "", "", "", 1.0, "SCREENING 1", -7, "TREATMENT", "2012-10-17", -11], ["CDISCPILOT01", "QS", "01-701-1392", 2004, "MMITM04", "SERIAL 7'S. 1 POINT FOR EACH CORRECT.", "MMSE", "ATTENTION AND CALCULATI", "5", "", "5", 5, "", "", "", "", "", 1.0, "SCREENING 1", -7, "TREATMENT", "2012-10-17", -11], ["CDISCPILOT01", "QS", "01-701-1392", 2005, "MMITM05", "ASK FOR THE 3 OBJECTS REPEATED ABOVE.", "MMSE", "RECALL", "0", "", "0", 0, "", "", "", "", "", 1.0, "SCREENING 1", -7, "TREATMENT", "2012-10-17", -11], ["CDISCPILOT01", "QS", "01-701-1392", 2006, "MMITM06", "NAME A PENCIL, AND WATCH (2 POINTS)", "MMSE", "LANGUAGE", "8", "", "8", 8, "", "", "", "", "", 1.0, "SCREENING 1", -7, "TREATMENT", "2012-10-17", -11], ["CDISCPILOT01", "QS", "01-701-1415", 2001, "MMITM01", "WHAT IS THE (YEAR) (SEASON) (DATE) ?", "MMSE", "ORIENTATION", "1", "", "1", 1, "", "", "", "", "", 1.0, "SCREENING 1", -7, "TREATMENT", "2013-09-15", -8], ["CDISCPILOT01", "QS", "01-701-1415", 2002, "MMITM02", "WHERE ARE WE: (STATE) (COUNTRY) (TOWN) ?", "MMSE", "ORIENTATION", "2", "", "2", 2, "", "", "", "", "", 1.0, "SCREENING 1", -7, "TREATMENT", "2013-09-15", -8], ["CDISCPILOT01", "QS", "01-701-1415", 2003, "MMITM03", "NAME 3 OBJECTS: 1 SECOND TO SAY EACH.", "MMSE", "REGISTRATION", "3", "", "3", 3, "", "", "", "", "", 1.0, "SCREENING 1", -7, "TREATMENT", "2013-09-15", -8], ["CDISCPILOT01", "QS", "01-701-1415", 2004, "MMITM04", "SERIAL 7'S. 1 POINT FOR EACH CORRECT.", "MMSE", "ATTENTION AND CALCULATI", "4", "", "4", 4, "", "", "", "", "", 1.0, "SCREENING 1", -7, "TREATMENT", "2013-09-15", -8], ["CDISCPILOT01", "QS", "01-701-1415", 2005, "MMITM05", "ASK FOR THE 3 OBJECTS REPEATED ABOVE.", "MMSE", "RECALL", "0", "", "0", 0, "", "", "", "", "", 1.0, "SCREENING 1", -7, "TREATMENT", "2013-09-15", -8], ["CDISCPILOT01", "QS", "01-701-1415", 2006, "MMITM06", "NAME A PENCIL, AND WATCH (2 POINTS)", "MMSE", "LANGUAGE", "8", "", "8", 8, "", "", "", "", "", 1.0, "SCREENING 1", -7, "TREATMENT", "2013-09-15", -8], ["CDISCPILOT01", "QS", "01-701-1429", 2001, "MMITM01", "WHAT IS THE (YEAR) (SEASON) (DATE) ?", "MMSE", "ORIENTATION", "2", "", "2", 2, "", "", "", "", "", 1.0, "SCREENING 1", -7, "TREATMENT", "2013-02-25", -22], ["CDISCPILOT01", "QS", "01-701-1429", 2002, "MMITM02", "WHERE ARE WE: (STATE) (COUNTRY) (TOWN) ?", "MMSE", "ORIENTATION", "0", "", "0", 0, "", "", "", "", "", 1.0, "SCREENING 1", -7, "TREATMENT", "2013-02-25", -22], ["CDISCPILOT01", "QS", "01-701-1429", 2003, "MMITM03", "NAME 3 OBJECTS: 1 SECOND TO SAY EACH.", "MMSE", "REGISTRATION", "3", "", "3", 3, "", "", "", "", "", 1.0, "SCREENING 1", -7, "TREATMENT", "2013-02-25", -22], ["CDISCPILOT01", "QS", "01-701-1429", 2004, "MMITM04", "SERIAL 7'S. 1 POINT FOR EACH CORRECT.", "MMSE", "ATTENTION AND CALCULATI", "4", "", "4", 4, "", "", "", "", "", 1.0, "SCREENING 1", -7, "TREATMENT", "2013-02-25", -22], ["CDISCPILOT01", "QS", "01-701-1429", 2005, "MMITM05", "ASK FOR THE 3 OBJECTS REPEATED ABOVE.", "MMSE", "RECALL", "0", "", "0", 0, "", "", "", "", "", 1.0, "SCREENING 1", -7, "TREATMENT", "2013-02-25", -22], ["CDISCPILOT01", "QS", "01-701-1429", 2006, "MMITM06", "NAME A PENCIL, AND WATCH (2 POINTS)", "MMSE", "LANGUAGE", "8", "", "8", 8, "", "", "", "", "", 1.0, "SCREENING 1", -7, "TREATMENT", "2013-02-25", -22], ["CDISCPILOT01", "QS", "01-701-1440", 2001, "MMITM01", "WHAT IS THE (YEAR) (SEASON) (DATE) ?", "MMSE", "ORIENTATION", "1", "", "1", 1, "", "", "", "", "", 1.0, "SCREENING 1", -7, "TREATMENT", "2013-07-24", -15], ["CDISCPILOT01", "QS", "01-701-1440", 2002, "MMITM02", "WHERE ARE WE: (STATE) (COUNTRY) (TOWN) ?", "MMSE", "ORIENTATION", "4", "", "4", 4, "", "", "", "", "", 1.0, "SCREENING 1", -7, "TREATMENT", "2013-07-24", -15], ["CDISCPILOT01", "QS", "01-701-1440", 2003, "MMITM03", "NAME 3 OBJECTS: 1 SECOND TO SAY EACH.", "MMSE", "REGISTRATION", "3", "", "3", 3, "", "", "", "", "", 1.0, "SCREENING 1", -7, "TREATMENT", "2013-07-24", -15], ["CDISCPILOT01", "QS", "01-701-1440", 2004, "MMITM04", "SERIAL 7'S. 1 POINT FOR EACH CORRECT.", "MMSE", "ATTENTION AND CALCULATI", "5", "", "5", 5, "", "", "", "", "", 1.0, "SCREENING 1", -7, "TREATMENT", "2013-07-24", -15], ["CDISCPILOT01", "QS", "01-701-1440", 2005, "MMITM05", "ASK FOR THE 3 OBJECTS REPEATED ABOVE.", "MMSE", "RECALL", "0", "", "0", 0, "", "", "", "", "", 1.0, "SCREENING 1", -7, "TREATMENT", "2013-07-24", -15], ["CDISCPILOT01", "QS", "01-701-1440", 2006, "MMITM06", "NAME A PENCIL, AND WATCH (2 POINTS)", "MMSE", "LANGUAGE", "9", "", "9", 9, "", "", "", "", "", 1.0, "SCREENING 1", -7, "TREATMENT", "2013-07-24", -15], ["CDISCPILOT01", "QS", "01-701-1442", 2001, "MMITM01", "WHAT IS THE (YEAR) (SEASON) (DATE) ?", "MMSE", "ORIENTATION", "1", "", "1", 1, "", "", "", "", "", 1.0, "SCREENING 1", -7, "TREATMENT", "2013-10-17", -9], ["CDISCPILOT01", "QS", "01-701-1442", 2002, "MMITM02", "WHERE ARE WE: (STATE) (COUNTRY) (TOWN) ?", "MMSE", "ORIENTATION", "3", "", "3", 3, "", "", "", "", "", 1.0, "SCREENING 1", -7, "TREATMENT", "2013-10-17", -9], ["CDISCPILOT01", "QS", "01-701-1442", 2003, "MMITM03", "NAME 3 OBJECTS: 1 SECOND TO SAY EACH.", "MMSE", "REGISTRATION", "2", "", "2", 2, "", "", "", "", "", 1.0, "SCREENING 1", -7, "TREATMENT", "2013-10-17", -9], ["CDISCPILOT01", "QS", "01-701-1442", 2004, "MMITM04", "SERIAL 7'S. 1 POINT FOR EACH CORRECT.", "MMSE", "ATTENTION AND CALCULATI", "2", "", "2", 2, "", "", "", "", "", 1.0, "SCREENING 1", -7, "TREATMENT", "2013-10-17", -9], ["CDISCPILOT01", "QS", "01-701-1442", 2005, "MMITM05", "ASK FOR THE 3 OBJECTS REPEATED ABOVE.", "MMSE", "RECALL", "1", "", "1", 1, "", "", "", "", "", 1.0, "SCREENING 1", -7, "TREATMENT", "2013-10-17", -9], ["CDISCPILOT01", "QS", "01-701-1442", 2006, "MMITM06", "NAME A PENCIL, AND WATCH (2 POINTS)", "MMSE", "LANGUAGE", "6", "", "6", 6, "", "", "", "", "", 1.0, "SCREENING 1", -7, "TREATMENT", "2013-10-17", -9], ["CDISCPILOT01", "QS", "01-701-1444", 2001, "MMITM01", "WHAT IS THE (YEAR) (SEASON) (DATE) ?", "MMSE", "ORIENTATION", "5", "", "5", 5, "", "", "", "", "", 1.0, "SCREENING 1", -7, "TREATMENT", "2012-12-31", -5], ["CDISCPILOT01", "QS", "01-701-1444", 2002, "MMITM02", "WHERE ARE WE: (STATE) (COUNTRY) (TOWN) ?", "MMSE", "ORIENTATION", "3", "", "3", 3, "", "", "", "", "", 1.0, "SCREENING 1", -7, "TREATMENT", "2012-12-31", -5], ["CDISCPILOT01", "QS", "01-701-1444", 2003, "MMITM03", "NAME 3 OBJECTS: 1 SECOND TO SAY EACH.", "MMSE", "REGISTRATION", "3", "", "3", 3, "", "", "", "", "", 1.0, "SCREENING 1", -7, "TREATMENT", "2012-12-31", -5], ["CDISCPILOT01", "QS", "01-701-1444", 2004, "MMITM04", "SERIAL 7'S. 1 POINT FOR EACH CORRECT.", "MMSE", "ATTENTION AND CALCULATI", "5", "", "5", 5, "", "", "", "", "", 1.0, "SCREENING 1", -7, "TREATMENT", "2012-12-31", -5], ["CDISCPILOT01", "QS", "01-701-1444", 2005, "MMITM05", "ASK FOR THE 3 OBJECTS REPEATED ABOVE.", "MMSE", "RECALL", "1", "", "1", 1, "", "", "", "", "", 1.0, "SCREENING 1", -7, "TREATMENT", "2012-12-31", -5], ["CDISCPILOT01", "QS", "01-701-1444", 2006, "MMITM06", "NAME A PENCIL, AND WATCH (2 POINTS)", "MMSE", "LANGUAGE", "6", "", "6", 6, "", "", "", "", "", 1.0, "SCREENING 1", -7, "TREATMENT", "2012-12-31", -5], ["CDISCPILOT01", "QS", "01-702-1082", 2001, "MMITM01", "WHAT IS THE (YEAR) (SEASON) (DATE) ?", "MMSE", "ORIENTATION", "3", "", "3", 3, "", "", "", "", "", 1.0, "SCREENING 1", -7, "TREATMENT", "2013-07-03", -23], ["CDISCPILOT01", "QS", "01-702-1082", 2002, "MMITM02", "WHERE ARE WE: (STATE) (COUNTRY) (TOWN) ?", "MMSE", "ORIENTATION", "5", "", "5", 5, "", "", "", "", "", 1.0, "SCREENING 1", -7, "TREATMENT", "2013-07-03", -23], ["CDISCPILOT01", "QS", "01-702-1082", 2003, "MMITM03", "NAME 3 OBJECTS: 1 SECOND TO SAY EACH.", "MMSE", "REGISTRATION", "3", "", "3", 3, "", "", "", "", "", 1.0, "SCREENING 1", -7, "TREATMENT", "2013-07-03", -23], ["CDISCPILOT01", "QS", "01-702-1082", 2004, "MMITM04", "SERIAL 7'S. 1 POINT FOR EACH CORRECT.", "MMSE", "ATTENTION AND CALCULATI", "4", "", "4", 4, "", "", "", "", "", 1.0, "SCREENING 1", -7, "TREATMENT", "2013-07-03", -23], ["CDISCPILOT01", "QS", "01-702-1082", 2005, "MMITM05", "ASK FOR THE 3 OBJECTS REPEATED ABOVE.", "MMSE", "RECALL", "1", "", "1", 1, "", "", "", "", "", 1.0, "SCREENING 1", -7, "TREATMENT", "2013-07-03", -23], ["CDISCPILOT01", "QS", "01-702-1082", 2006, "MMITM06", "NAME A PENCIL, AND WATCH (2 POINTS)", "MMSE", "LANGUAGE", "7", "", "7", 7, "", "", "", "", "", 1.0, "SCREENING 1", -7, "TREATMENT", "2013-07-03", -23], ["CDISCPILOT01", "QS", "01-703-1042", 2001, "MMITM01", "WHAT IS THE (YEAR) (SEASON) (DATE) ?", "MMSE", "ORIENTATION", "4", "", "4", 4, "", "", "", "", "", 1.0, "SCREENING 1", -7, "TREATMENT", "2013-02-23", -7], ["CDISCPILOT01", "QS", "01-703-1042", 2002, "MMITM02", "WHERE ARE WE: (STATE) (COUNTRY) (TOWN) ?", "MMSE", "ORIENTATION", "3", "", "3", 3, "", "", "", "", "", 1.0, "SCREENING 1", -7, "TREATMENT", "2013-02-23", -7], ["CDISCPILOT01", "QS", "01-703-1042", 2003, "MMITM03", "NAME 3 OBJECTS: 1 SECOND TO SAY EACH.", "MMSE", "REGISTRATION", "3", "", "3", 3, "", "", "", "", "", 1.0, "SCREENING 1", -7, "TREATMENT", "2013-02-23", -7], ["CDISCPILOT01", "QS", "01-703-1042", 2004, "MMITM04", "SERIAL 7'S. 1 POINT FOR EACH CORRECT.", "MMSE", "ATTENTION AND CALCULATI", "5", "", "5", 5, "", "", "", "", "", 1.0, "SCREENING 1", -7, "TREATMENT", "2013-02-23", -7], ["CDISCPILOT01", "QS", "01-703-1042", 2005, "MMITM05", "ASK FOR THE 3 OBJECTS REPEATED ABOVE.", "MMSE", "RECALL", "0", "", "0", 0, "", "", "", "", "", 1.0, "SCREENING 1", -7, "TREATMENT", "2013-02-23", -7], ["CDISCPILOT01", "QS", "01-703-1042", 2006, "MMITM06", "NAME A PENCIL, AND WATCH (2 POINTS)", "MMSE", "LANGUAGE", "8", "", "8", 8, "", "", "", "", "", 1.0, "SCREENING 1", -7, "TREATMENT", "2013-02-23", -7], ["CDISCPILOT01", "QS", "01-703-1076", 2001, "MMITM01", "WHAT IS THE (YEAR) (SEASON) (DATE) ?", "MMSE", "ORIENTATION", "4", "", "4", 4, "", "", "", "", "", 1.0, "SCREENING 1", -7, "TREATMENT", "2013-10-17", -8], ["CDISCPILOT01", "QS", "01-703-1076", 2002, "MMITM02", "WHERE ARE WE: (STATE) (COUNTRY) (TOWN) ?", "MMSE", "ORIENTATION", "5", "", "5", 5, "", "", "", "", "", 1.0, "SCREENING 1", -7, "TREATMENT", "2013-10-17", -8], ["CDISCPILOT01", "QS", "01-703-1076", 2003, "MMITM03", "NAME 3 OBJECTS: 1 SECOND TO SAY EACH.", "MMSE", "REGISTRATION", "3", "", "3", 3, "", "", "", "", "", 1.0, "SCREENING 1", -7, "TREATMENT", "2013-10-17", -8], ["CDISCPILOT01", "QS", "01-703-1076", 2004, "MMITM04", "SERIAL 7'S. 1 POINT FOR EACH CORRECT.", "MMSE", "ATTENTION AND CALCULATI", "2", "", "2", 2, "", "", "", "", "", 1.0, "SCREENING 1", -7, "TREATMENT", "2013-10-17", -8], ["CDISCPILOT01", "QS", "01-703-1076", 2005, "MMITM05", "ASK FOR THE 3 OBJECTS REPEATED ABOVE.", "MMSE", "RECALL", "0", "", "0", 0, "", "", "", "", "", 1.0, "SCREENING 1", -7, "TREATMENT", "2013-10-17", -8], ["CDISCPILOT01", "QS", "01-703-1076", 2006, "MMITM06", "NAME A PENCIL, AND WATCH (2 POINTS)", "MMSE", "LANGUAGE", "9", "", "9", 9, "", "", "", "", "", 1.0, "SCREENING 1", -7, "TREATMENT", "2013-10-17", -8], ["CDISCPILOT01", "QS", "01-703-1086", 2001, "MMITM01", "WHAT IS THE (YEAR) (SEASON) (DATE) ?", "MMSE", "ORIENTATION", "0", "", "0", 0, "", "", "", "", "", 1.0, "SCREENING 1", -7, "TREATMENT", "2012-08-22", -11], ["CDISCPILOT01", "QS", "01-703-1086", 2002, "MMITM02", "WHERE ARE WE: (STATE) (COUNTRY) (TOWN) ?", "MMSE", "ORIENTATION", "3", "", "3", 3, "", "", "", "", "", 1.0, "SCREENING 1", -7, "TREATMENT", "2012-08-22", -11], ["CDISCPILOT01", "QS", "01-703-1086", 2003, "MMITM03", "NAME 3 OBJECTS: 1 SECOND TO SAY EACH.", "MMSE", "REGISTRATION", "3", "", "3", 3, "", "", "", "", "", 1.0, "SCREENING 1", -7, "TREATMENT", "2012-08-22", -11], ["CDISCPILOT01", "QS", "01-703-1086", 2004, "MMITM04", "SERIAL 7'S. 1 POINT FOR EACH CORRECT.", "MMSE", "ATTENTION AND CALCULATI", "3", "", "3", 3, "", "", "", "", "", 1.0, "SCREENING 1", -7, "TREATMENT", "2012-08-22", -11], ["CDISCPILOT01", "QS", "01-703-1086", 2005, "MMITM05", "ASK FOR THE 3 OBJECTS REPEATED ABOVE.", "MMSE", "RECALL", "0", "", "0", 0, "", "", "", "", "", 1.0, "SCREENING 1", -7, "TREATMENT", "2012-08-22", -11], ["CDISCPILOT01", "QS", "01-703-1086", 2006, "MMITM06", "NAME A PENCIL, AND WATCH (2 POINTS)", "MMSE", "LANGUAGE", "8", "", "8", 8, "", "", "", "", "", 1.0, "SCREENING 1", -7, "TREATMENT", "2012-08-22", -11], ["CDISCPILOT01", "QS", "01-703-1096", 2001, "MMITM01", "WHAT IS THE (YEAR) (SEASON) (DATE) ?", "MMSE", "ORIENTATION", "4", "", "4", 4, "", "", "", "", "", 1.0, "SCREENING 1", -7, "TREATMENT", "2012-12-19", -37], ["CDISCPILOT01", "QS", "01-703-1096", 2002, "MMITM02", "WHERE ARE WE: (STATE) (COUNTRY) (TOWN) ?", "MMSE", "ORIENTATION", "3", "", "3", 3, "", "", "", "", "", 1.0, "SCREENING 1", -7, "TREATMENT", "2012-12-19", -37], ["CDISCPILOT01", "QS", "01-703-1096", 2003, "MMITM03", "NAME 3 OBJECTS: 1 SECOND TO SAY EACH.", "MMSE", "REGISTRATION", "3", "", "3", 3, "", "", "", "", "", 1.0, "SCREENING 1", -7, "TREATMENT", "2012-12-19", -37], ["CDISCPILOT01", "QS", "01-703-1096", 2004, "MMITM04", "SERIAL 7'S. 1 POINT FOR EACH CORRECT.", "MMSE", "ATTENTION AND CALCULATI", "5", "", "5", 5, "", "", "", "", "", 1.0, "SCREENING 1", -7, "TREATMENT", "2012-12-19", -37], ["CDISCPILOT01", "QS", "01-703-1096", 2005, "MMITM05", "ASK FOR THE 3 OBJECTS REPEATED ABOVE.", "MMSE", "RECALL", "0", "", "0", 0, "", "", "", "", "", 1.0, "SCREENING 1", -7, "TREATMENT", "2012-12-19", -37], ["CDISCPILOT01", "QS", "01-703-1096", 2006, "MMITM06", "NAME A PENCIL, AND WATCH (2 POINTS)", "MMSE", "LANGUAGE", "7", "", "7", 7, "", "", "", "", "", 1.0, "SCREENING 1", -7, "TREATMENT", "2012-12-19", -37], ["CDISCPILOT01", "QS", "01-703-1100", 2001, "MMITM01", "WHAT IS THE (YEAR) (SEASON) (DATE) ?", "MMSE", "ORIENTATION", "2", "", "2", 2, "", "", "", "", "", 1.0, "SCREENING 1", -7, "TREATMENT", "2013-02-28", -13], ["CDISCPILOT01", "QS", "01-703-1100", 2002, "MMITM02", "WHERE ARE WE: (STATE) (COUNTRY) (TOWN) ?", "MMSE", "ORIENTATION", "3", "", "3", 3, "", "", "", "", "", 1.0, "SCREENING 1", -7, "TREATMENT", "2013-02-28", -13], ["CDISCPILOT01", "QS", "01-703-1100", 2003, "MMITM03", "NAME 3 OBJECTS: 1 SECOND TO SAY EACH.", "MMSE", "REGISTRATION", "3", "", "3", 3, "", "", "", "", "", 1.0, "SCREENING 1", -7, "TREATMENT", "2013-02-28", -13], ["CDISCPILOT01", "QS", "01-703-1100", 2004, "MMITM04", "SERIAL 7'S. 1 POINT FOR EACH CORRECT.", "MMSE", "ATTENTION AND CALCULATI", "5", "", "5", 5, "", "", "", "", "", 1.0, "SCREENING 1", -7, "TREATMENT", "2013-02-28", -13], ["CDISCPILOT01", "QS", "01-703-1100", 2005, "MMITM05", "ASK FOR THE 3 OBJECTS REPEATED ABOVE.", "MMSE", "RECALL", "0", "", "0", 0, "", "", "", "", "", 1.0, "SCREENING 1", -7, "TREATMENT", "2013-02-28", -13], ["CDISCPILOT01", "QS", "01-703-1100", 2006, "MMITM06", "NAME A PENCIL, AND WATCH (2 POINTS)", "MMSE", "LANGUAGE", "9", "", "9", 9, "", "", "", "", "", 1.0, "SCREENING 1", -7, "TREATMENT", "2013-02-28", -13], ["CDISCPILOT01", "QS", "01-703-1119", 2001, "MMITM01", "WHAT IS THE (YEAR) (SEASON) (DATE) ?", "MMSE", "ORIENTATION", "0", "", "0", 0, "", "", "", "", "", 1.0, "SCREENING 1", -7, "TREATMENT", "2013-02-02", -18], ["CDISCPILOT01", "QS", "01-703-1119", 2002, "MMITM02", "WHERE ARE WE: (STATE) (COUNTRY) (TOWN) ?", "MMSE", "ORIENTATION", "2", "", "2", 2, "", "", "", "", "", 1.0, "SCREENING 1", -7, "TREATMENT", "2013-02-02", -18], ["CDISCPILOT01", "QS", "01-703-1119", 2003, "MMITM03", "NAME 3 OBJECTS: 1 SECOND TO SAY EACH.", "MMSE", "REGISTRATION", "3", "", "3", 3, "", "", "", "", "", 1.0, "SCREENING 1", -7, "TREATMENT", "2013-02-02", -18], ["CDISCPILOT01", "QS", "01-703-1119", 2004, "MMITM04", "SERIAL 7'S. 1 POINT FOR EACH CORRECT.", "MMSE", "ATTENTION AND CALCULATI", "3", "", "3", 3, "", "", "", "", "", 1.0, "SCREENING 1", -7, "TREATMENT", "2013-02-02", -18], ["CDISCPILOT01", "QS", "01-703-1119", 2005, "MMITM05", "ASK FOR THE 3 OBJECTS REPEATED ABOVE.", "MMSE", "RECALL", "0", "", "0", 0, "", "", "", "", "", 1.0, "SCREENING 1", -7, "TREATMENT", "2013-02-02", -18], ["CDISCPILOT01", "QS", "01-703-1119", 2006, "MMITM06", "NAME A PENCIL, AND WATCH (2 POINTS)", "MMSE", "LANGUAGE", "6", "", "6", 6, "", "", "", "", "", 1.0, "SCREENING 1", -7, "TREATMENT", "2013-02-02", -18], ["CDISCPILOT01", "QS", "01-703-1175", 2001, "MMITM01", "WHAT IS THE (YEAR) (SEASON) (DATE) ?", "MMSE", "ORIENTATION", "1", "", "1", 1, "", "", "", "", "", 1.0, "SCREENING 1", -7, "TREATMENT", "2013-12-13", -7], ["CDISCPILOT01", "QS", "01-703-1175", 2002, "MMITM02", "WHERE ARE WE: (STATE) (COUNTRY) (TOWN) ?", "MMSE", "ORIENTATION", "2", "", "2", 2, "", "", "", "", "", 1.0, "SCREENING 1", -7, "TREATMENT", "2013-12-13", -7], ["CDISCPILOT01", "QS", "01-703-1175", 2003, "MMITM03", "NAME 3 OBJECTS: 1 SECOND TO SAY EACH.", "MMSE", "REGISTRATION", "3", "", "3", 3, "", "", "", "", "", 1.0, "SCREENING 1", -7, "TREATMENT", "2013-12-13", -7], ["CDISCPILOT01", "QS", "01-703-1175", 2004, "MMITM04", "SERIAL 7'S. 1 POINT FOR EACH CORRECT.", "MMSE", "ATTENTION AND CALCULATI", "0", "", "0", 0, "", "", "", "", "", 1.0, "SCREENING 1", -7, "TREATMENT", "2013-12-13", -7], ["CDISCPILOT01", "QS", "01-703-1175", 2005, "MMITM05", "ASK FOR THE 3 OBJECTS REPEATED ABOVE.", "MMSE", "RECALL", "0", "", "0", 0, "", "", "", "", "", 1.0, "SCREENING 1", -7, "TREATMENT", "2013-12-13", -7], ["CDISCPILOT01", "QS", "01-703-1175", 2006, "MMITM06", "NAME A PENCIL, AND WATCH (2 POINTS)", "MMSE", "LANGUAGE", "5", "", "5", 5, "", "", "", "", "", 1.0, "SCREENING 1", -7, "TREATMENT", "2013-12-13", -7], ["CDISCPILOT01", "QS", "01-703-1182", 2001, "MMITM01", "WHAT IS THE (YEAR) (SEASON) (DATE) ?", "MMSE", "ORIENTATION", "3", "", "3", 3, "", "", "", "", "", 1.0, "SCREENING 1", -7, "TREATMENT", "2013-10-08", -9], ["CDISCPILOT01", "QS", "01-703-1182", 2002, "MMITM02", "WHERE ARE WE: (STATE) (COUNTRY) (TOWN) ?", "MMSE", "ORIENTATION", "3", "", "3", 3, "", "", "", "", "", 1.0, "SCREENING 1", -7, "TREATMENT", "2013-10-08", -9], ["CDISCPILOT01", "QS", "01-703-1182", 2003, "MMITM03", "NAME 3 OBJECTS: 1 SECOND TO SAY EACH.", "MMSE", "REGISTRATION", "3", "", "3", 3, "", "", "", "", "", 1.0, "SCREENING 1", -7, "TREATMENT", "2013-10-08", -9], ["CDISCPILOT01", "QS", "01-703-1182", 2004, "MMITM04", "SERIAL 7'S. 1 POINT FOR EACH CORRECT.", "MMSE", "ATTENTION AND CALCULATI", "5", "", "5", 5, "", "", "", "", "", 1.0, "SCREENING 1", -7, "TREATMENT", "2013-10-08", -9], ["CDISCPILOT01", "QS", "01-703-1182", 2005, "MMITM05", "ASK FOR THE 3 OBJECTS REPEATED ABOVE.", "MMSE", "RECALL", "0", "", "0", 0, "", "", "", "", "", 1.0, "SCREENING 1", -7, "TREATMENT", "2013-10-08", -9], ["CDISCPILOT01", "QS", "01-703-1182", 2006, "MMITM06", "NAME A PENCIL, AND WATCH (2 POINTS)", "MMSE", "LANGUAGE", "8", "", "8", 8, "", "", "", "", "", 1.0, "SCREENING 1", -7, "TREATMENT", "2013-10-08", -9], ["CDISCPILOT01", "QS", "01-703-1197", 2001, "MMITM01", "WHAT IS THE (YEAR) (SEASON) (DATE) ?", "MMSE", "ORIENTATION", "0", "", "0", 0, "", "", "", "", "", 1.0, "SCREENING 1", -7, "TREATMENT", "2013-06-01", -15], ["CDISCPILOT01", "QS", "01-703-1197", 2002, "MMITM02", "WHERE ARE WE: (STATE) (COUNTRY) (TOWN) ?", "MMSE", "ORIENTATION", "3", "", "3", 3, "", "", "", "", "", 1.0, "SCREENING 1", -7, "TREATMENT", "2013-06-01", -15], ["CDISCPILOT01", "QS", "01-703-1197", 2003, "MMITM03", "NAME 3 OBJECTS: 1 SECOND TO SAY EACH.", "MMSE", "REGISTRATION", "3", "", "3", 3, "", "", "", "", "", 1.0, "SCREENING 1", -7, "TREATMENT", "2013-06-01", -15], ["CDISCPILOT01", "QS", "01-703-1197", 2004, "MMITM04", "SERIAL 7'S. 1 POINT FOR EACH CORRECT.", "MMSE", "ATTENTION AND CALCULATI", "0", "", "0", 0, "", "", "", "", "", 1.0, "SCREENING 1", -7, "TREATMENT", "2013-06-01", -15], ["CDISCPILOT01", "QS", "01-703-1197", 2005, "MMITM05", "ASK FOR THE 3 OBJECTS REPEATED ABOVE.", "MMSE", "RECALL", "0", "", "0", 0, "", "", "", "", "", 1.0, "SCREENING 1", -7, "TREATMENT", "2013-06-01", -15], ["CDISCPILOT01", "QS", "01-703-1197", 2006, "MMITM06", "NAME A PENCIL, AND WATCH (2 POINTS)", "MMSE", "LANGUAGE", "6", "", "6", 6, "", "", "", "", "", 1.0, "SCREENING 1", -7, "TREATMENT", "2013-06-01", -15], ["CDISCPILOT01", "QS", "01-703-1210", 2001, "MMITM01", "WHAT IS THE (YEAR) (SEASON) (DATE) ?", "MMSE", "ORIENTATION", "0", "", "0", 0, "", "", "", "", "", 1.0, "SCREENING 1", -7, "TREATMENT", "2013-03-08", -8], ["CDISCPILOT01", "QS", "01-703-1210", 2002, "MMITM02", "WHERE ARE WE: (STATE) (COUNTRY) (TOWN) ?", "MMSE", "ORIENTATION", "2", "", "2", 2, "", "", "", "", "", 1.0, "SCREENING 1", -7, "TREATMENT", "2013-03-08", -8], ["CDISCPILOT01", "QS", "01-703-1210", 2003, "MMITM03", "NAME 3 OBJECTS: 1 SECOND TO SAY EACH.", "MMSE", "REGISTRATION", "3", "", "3", 3, "", "", "", "", "", 1.0, "SCREENING 1", -7, "TREATMENT", "2013-03-08", -8], ["CDISCPILOT01", "QS", "01-703-1210", 2004, "MMITM04", "SERIAL 7'S. 1 POINT FOR EACH CORRECT.", "MMSE", "ATTENTION AND CALCULATI", "5", "", "5", 5, "", "", "", "", "", 1.0, "SCREENING 1", -7, "TREATMENT", "2013-03-08", -8], ["CDISCPILOT01", "QS", "01-703-1210", 2005, "MMITM05", "ASK FOR THE 3 OBJECTS REPEATED ABOVE.", "MMSE", "RECALL", "3", "", "3", 3, "", "", "", "", "", 1.0, "SCREENING 1", -7, "TREATMENT", "2013-03-08", -8], ["CDISCPILOT01", "QS", "01-703-1210", 2006, "MMITM06", "NAME A PENCIL, AND WATCH (2 POINTS)", "MMSE", "LANGUAGE", "6", "", "6", 6, "", "", "", "", "", 1.0, "SCREENING 1", -7, "TREATMENT", "2013-03-08", -8], ["CDISCPILOT01", "QS", "01-703-1258", 2001, "MMITM01", "WHAT IS THE (YEAR) (SEASON) (DATE) ?", "MMSE", "ORIENTATION", "1", "", "1", 1, "", "", "", "", "", 1.0, "SCREENING 1", -7, "TREATMENT", "2012-07-10", -10], ["CDISCPILOT01", "QS", "01-703-1258", 2002, "MMITM02", "WHERE ARE WE: (STATE) (COUNTRY) (TOWN) ?", "MMSE", "ORIENTATION", "1", "", "1", 1, "", "", "", "", "", 1.0, "SCREENING 1", -7, "TREATMENT", "2012-07-10", -10], ["CDISCPILOT01", "QS", "01-703-1258", 2003, "MMITM03", "NAME 3 OBJECTS: 1 SECOND TO SAY EACH.", "MMSE", "REGISTRATION", "3", "", "3", 3, "", "", "", "", "", 1.0, "SCREENING 1", -7, "TREATMENT", "2012-07-10", -10], ["CDISCPILOT01", "QS", "01-703-1258", 2004, "MMITM04", "SERIAL 7'S. 1 POINT FOR EACH CORRECT.", "MMSE", "ATTENTION AND CALCULATI", "0", "", "0", 0, "", "", "", "", "", 1.0, "SCREENING 1", -7, "TREATMENT", "2012-07-10", -10], ["CDISCPILOT01", "QS", "01-703-1258", 2005, "MMITM05", "ASK FOR THE 3 OBJECTS REPEATED ABOVE.", "MMSE", "RECALL", "0", "", "0", 0, "", "", "", "", "", 1.0, "SCREENING 1", -7, "TREATMENT", "2012-07-10", -10], ["CDISCPILOT01", "QS", "01-703-1258", 2006, "MMITM06", "NAME A PENCIL, AND WATCH (2 POINTS)", "MMSE", "LANGUAGE", "8", "", "8", 8, "", "", "", "", "", 1.0, "SCREENING 1", -7, "TREATMENT", "2012-07-10", -10], ["CDISCPILOT01", "QS", "01-703-1279", 2001, "MMITM01", "WHAT IS THE (YEAR) (SEASON) (DATE) ?", "MMSE", "ORIENTATION", "1", "", "1", 1, "", "", "", "", "", 1.0, "SCREENING 1", -7, "TREATMENT", "2013-04-27", -16], ["CDISCPILOT01", "QS", "01-703-1279", 2002, "MMITM02", "WHERE ARE WE: (STATE) (COUNTRY) (TOWN) ?", "MMSE", "ORIENTATION", "1", "", "1", 1, "", "", "", "", "", 1.0, "SCREENING 1", -7, "TREATMENT", "2013-04-27", -16], ["CDISCPILOT01", "QS", "01-703-1279", 2003, "MMITM03", "NAME 3 OBJECTS: 1 SECOND TO SAY EACH.", "MMSE", "REGISTRATION", "3", "", "3", 3, "", "", "", "", "", 1.0, "SCREENING 1", -7, "TREATMENT", "2013-04-27", -16], ["CDISCPILOT01", "QS", "01-703-1279", 2004, "MMITM04", "SERIAL 7'S. 1 POINT FOR EACH CORRECT.", "MMSE", "ATTENTION AND CALCULATI", "2", "", "2", 2, "", "", "", "", "", 1.0, "SCREENING 1", -7, "TREATMENT", "2013-04-27", -16], ["CDISCPILOT01", "QS", "01-703-1279", 2005, "MMITM05", "ASK FOR THE 3 OBJECTS REPEATED ABOVE.", "MMSE", "RECALL", "0", "", "0", 0, "", "", "", "", "", 1.0, "SCREENING 1", -7, "TREATMENT", "2013-04-27", -16], ["CDISCPILOT01", "QS", "01-703-1279", 2006, "MMITM06", "NAME A PENCIL, AND WATCH (2 POINTS)", "MMSE", "LANGUAGE", "7", "", "7", 7, "", "", "", "", "", 1.0, "SCREENING 1", -7, "TREATMENT", "2013-04-27", -16], ["CDISCPILOT01", "QS", "01-703-1295", 2001, "MMITM01", "WHAT IS THE (YEAR) (SEASON) (DATE) ?", "MMSE", "ORIENTATION", "3", "", "3", 3, "", "", "", "", "", 1.0, "SCREENING 1", -7, "TREATMENT", "2013-10-24", -28], ["CDISCPILOT01", "QS", "01-703-1295", 2002, "MMITM02", "WHERE ARE WE: (STATE) (COUNTRY) (TOWN) ?", "MMSE", "ORIENTATION", "2", "", "2", 2, "", "", "", "", "", 1.0, "SCREENING 1", -7, "TREATMENT", "2013-10-24", -28], ["CDISCPILOT01", "QS", "01-703-1295", 2003, "MMITM03", "NAME 3 OBJECTS: 1 SECOND TO SAY EACH.", "MMSE", "REGISTRATION", "3", "", "3", 3, "", "", "", "", "", 1.0, "SCREENING 1", -7, "TREATMENT", "2013-10-24", -28], ["CDISCPILOT01", "QS", "01-703-1295", 2004, "MMITM04", "SERIAL 7'S. 1 POINT FOR EACH CORRECT.", "MMSE", "ATTENTION AND CALCULATI", "5", "", "5", 5, "", "", "", "", "", 1.0, "SCREENING 1", -7, "TREATMENT", "2013-10-24", -28], ["CDISCPILOT01", "QS", "01-703-1295", 2005, "MMITM05", "ASK FOR THE 3 OBJECTS REPEATED ABOVE.", "MMSE", "RECALL", "0", "", "0", 0, "", "", "", "", "", 1.0, "SCREENING 1", -7, "TREATMENT", "2013-10-24", -28], ["CDISCPILOT01", "QS", "01-703-1295", 2006, "MMITM06", "NAME A PENCIL, AND WATCH (2 POINTS)", "MMSE", "LANGUAGE", "7", "", "7", 7, "", "", "", "", "", 1.0, "SCREENING 1", -7, "TREATMENT", "2013-10-24", -28], ["CDISCPILOT01", "QS", "01-703-1299", 2001, "MMITM01", "WHAT IS THE (YEAR) (SEASON) (DATE) ?", "MMSE", "ORIENTATION", "4", "", "4", 4, "", "", "", "", "", 1.0, "SCREENING 1", -7, "TREATMENT", "2012-09-07", -5], ["CDISCPILOT01", "QS", "01-703-1299", 2002, "MMITM02", "WHERE ARE WE: (STATE) (COUNTRY) (TOWN) ?", "MMSE", "ORIENTATION", "4", "", "4", 4, "", "", "", "", "", 1.0, "SCREENING 1", -7, "TREATMENT", "2012-09-07", -5], ["CDISCPILOT01", "QS", "01-703-1299", 2003, "MMITM03", "NAME 3 OBJECTS: 1 SECOND TO SAY EACH.", "MMSE", "REGISTRATION", "3", "", "3", 3, "", "", "", "", "", 1.0, "SCREENING 1", -7, "TREATMENT", "2012-09-07", -5], ["CDISCPILOT01", "QS", "01-703-1299", 2004, "MMITM04", "SERIAL 7'S. 1 POINT FOR EACH CORRECT.", "MMSE", "ATTENTION AND CALCULATI", "5", "", "5", 5, "", "", "", "", "", 1.0, "SCREENING 1", -7, "TREATMENT", "2012-09-07", -5], ["CDISCPILOT01", "QS", "01-703-1299", 2005, "MMITM05", "ASK FOR THE 3 OBJECTS REPEATED ABOVE.", "MMSE", "RECALL", "0", "", "0", 0, "", "", "", "", "", 1.0, "SCREENING 1", -7, "TREATMENT", "2012-09-07", -5], ["CDISCPILOT01", "QS", "01-703-1299", 2006, "MMITM06", "NAME A PENCIL, AND WATCH (2 POINTS)", "MMSE", "LANGUAGE", "7", "", "7", 7, "", "", "", "", "", 1.0, "SCREENING 1", -7, "TREATMENT", "2012-09-07", -5], ["CDISCPILOT01", "QS", "01-703-1335", 2001, "MMITM01", "WHAT IS THE (YEAR) (SEASON) (DATE) ?", "MMSE", "ORIENTATION", "0", "", "0", 0, "", "", "", "", "", 1.0, "SCREENING 1", -7, "TREATMENT", "2014-02-28", -17], ["CDISCPILOT01", "QS", "01-703-1335", 2002, "MMITM02", "WHERE ARE WE: (STATE) (COUNTRY) (TOWN) ?", "MMSE", "ORIENTATION", "2", "", "2", 2, "", "", "", "", "", 1.0, "SCREENING 1", -7, "TREATMENT", "2014-02-28", -17], ["CDISCPILOT01", "QS", "01-703-1335", 2003, "MMITM03", "NAME 3 OBJECTS: 1 SECOND TO SAY EACH.", "MMSE", "REGISTRATION", "3", "", "3", 3, "", "", "", "", "", 1.0, "SCREENING 1", -7, "TREATMENT", "2014-02-28", -17], ["CDISCPILOT01", "QS", "01-703-1335", 2004, "MMITM04", "SERIAL 7'S. 1 POINT FOR EACH CORRECT.", "MMSE", "ATTENTION AND CALCULATI", "0", "", "0", 0, "", "", "", "", "", 1.0, "SCREENING 1", -7, "TREATMENT", "2014-02-28", -17], ["CDISCPILOT01", "QS", "01-703-1335", 2005, "MMITM05", "ASK FOR THE 3 OBJECTS REPEATED ABOVE.", "MMSE", "RECALL", "0", "", "0", 0, "", "", "", "", "", 1.0, "SCREENING 1", -7, "TREATMENT", "2014-02-28", -17], ["CDISCPILOT01", "QS", "01-703-1335", 2006, "MMITM06", "NAME A PENCIL, AND WATCH (2 POINTS)", "MMSE", "LANGUAGE", "5", "", "5", 5, "", "", "", "", "", 1.0, "SCREENING 1", -7, "TREATMENT", "2014-02-28", -17], ["CDISCPILOT01", "QS", "01-703-1379", 2001, "MMITM01", "WHAT IS THE (YEAR) (SEASON) (DATE) ?", "MMSE", "ORIENTATION", "1", "", "1", 1, "", "", "", "", "", 1.0, "SCREENING 1", -7, "TREATMENT", "2013-09-12", -10], ["CDISCPILOT01", "QS", "01-703-1379", 2002, "MMITM02", "WHERE ARE WE: (STATE) (COUNTRY) (TOWN) ?", "MMSE", "ORIENTATION", "0", "", "0", 0, "", "", "", "", "", 1.0, "SCREENING 1", -7, "TREATMENT", "2013-09-12", -10], ["CDISCPILOT01", "QS", "01-703-1379", 2003, "MMITM03", "NAME 3 OBJECTS: 1 SECOND TO SAY EACH.", "MMSE", "REGISTRATION", "3", "", "3", 3, "", "", "", "", "", 1.0, "SCREENING 1", -7, "TREATMENT", "2013-09-12", -10], ["CDISCPILOT01", "QS", "01-703-1379", 2004, "MMITM04", "SERIAL 7'S. 1 POINT FOR EACH CORRECT.", "MMSE", "ATTENTION AND CALCULATI", "1", "", "1", 1, "", "", "", "", "", 1.0, "SCREENING 1", -7, "TREATMENT", "2013-09-12", -10], ["CDISCPILOT01", "QS", "01-703-1379", 2005, "MMITM05", "ASK FOR THE 3 OBJECTS REPEATED ABOVE.", "MMSE", "RECALL", "0", "", "0", 0, "", "", "", "", "", 1.0, "SCREENING 1", -7, "TREATMENT", "2013-09-12", -10], ["CDISCPILOT01", "QS", "01-703-1379", 2006, "MMITM06", "NAME A PENCIL, AND WATCH (2 POINTS)", "MMSE", "LANGUAGE", "7", "", "7", 7, "", "", "", "", "", 1.0, "SCREENING 1", -7, "TREATMENT", "2013-09-12", -10], ["CDISCPILOT01", "QS", "01-703-1403", 2001, "MMITM01", "WHAT IS THE (YEAR) (SEASON) (DATE) ?", "MMSE", "ORIENTATION", "3", "", "3", 3, "", "", "", "", "", 1.0, "SCREENING 1", -7, "TREATMENT", "2012-12-05", -7], ["CDISCPILOT01", "QS", "01-703-1403", 2002, "MMITM02", "WHERE ARE WE: (STATE) (COUNTRY) (TOWN) ?", "MMSE", "ORIENTATION", "4", "", "4", 4, "", "", "", "", "", 1.0, "SCREENING 1", -7, "TREATMENT", "2012-12-05", -7], ["CDISCPILOT01", "QS", "01-703-1403", 2003, "MMITM03", "NAME 3 OBJECTS: 1 SECOND TO SAY EACH.", "MMSE", "REGISTRATION", "3", "", "3", 3, "", "", "", "", "", 1.0, "SCREENING 1", -7, "TREATMENT", "2012-12-05", -7], ["CDISCPILOT01", "QS", "01-703-1403", 2004, "MMITM04", "SERIAL 7'S. 1 POINT FOR EACH CORRECT.", "MMSE", "ATTENTION AND CALCULATI", "5", "", "5", 5, "", "", "", "", "", 1.0, "SCREENING 1", -7, "TREATMENT", "2012-12-05", -7], ["CDISCPILOT01", "QS", "01-703-1403", 2005, "MMITM05", "ASK FOR THE 3 OBJECTS REPEATED ABOVE.", "MMSE", "RECALL", "0", "", "0", 0, "", "", "", "", "", 1.0, "SCREENING 1", -7, "TREATMENT", "2012-12-05", -7], ["CDISCPILOT01", "QS", "01-703-1403", 2006, "MMITM06", "NAME A PENCIL, AND WATCH (2 POINTS)", "MMSE", "LANGUAGE", "8", "", "8", 8, "", "", "", "", "", 1.0, "SCREENING 1", -7, "TREATMENT", "2012-12-05", -7], ["CDISCPILOT01", "QS", "01-703-1439", 2001, "MMITM01", "WHAT IS THE (YEAR) (SEASON) (DATE) ?", "MMSE", "ORIENTATION", "3", "", "3", 3, "", "", "", "", "", 1.0, "SCREENING 1", -7, "TREATMENT", "2014-03-04", -8], ["CDISCPILOT01", "QS", "01-703-1439", 2002, "MMITM02", "WHERE ARE WE: (STATE) (COUNTRY) (TOWN) ?", "MMSE", "ORIENTATION", "2", "", "2", 2, "", "", "", "", "", 1.0, "SCREENING 1", -7, "TREATMENT", "2014-03-04", -8], ["CDISCPILOT01", "QS", "01-703-1439", 2003, "MMITM03", "NAME 3 OBJECTS: 1 SECOND TO SAY EACH.", "MMSE", "REGISTRATION", "3", "", "3", 3, "", "", "", "", "", 1.0, "SCREENING 1", -7, "TREATMENT", "2014-03-04", -8], ["CDISCPILOT01", "QS", "01-703-1439", 2004, "MMITM04", "SERIAL 7'S. 1 POINT FOR EACH CORRECT.", "MMSE", "ATTENTION AND CALCULATI", "1", "", "1", 1, "", "", "", "", "", 1.0, "SCREENING 1", -7, "TREATMENT", "2014-03-04", -8], ["CDISCPILOT01", "QS", "01-703-1439", 2005, "MMITM05", "ASK FOR THE 3 OBJECTS REPEATED ABOVE.", "MMSE", "RECALL", "0", "", "0", 0, "", "", "", "", "", 1.0, "SCREENING 1", -7, "TREATMENT", "2014-03-04", -8], ["CDISCPILOT01", "QS", "01-703-1439", 2006, "MMITM06", "NAME A PENCIL, AND WATCH (2 POINTS)", "MMSE", "LANGUAGE", "7", "", "7", 7, "", "", "", "", "", 1.0, "SCREENING 1", -7, "TREATMENT", "2014-03-04", -8], ["CDISCPILOT01", "QS", "01-704-1008", 2001, "MMITM01", "WHAT IS THE (YEAR) (SEASON) (DATE) ?", "MMSE", "ORIENTATION", "5", "", "5", 5, "", "", "", "", "", 1.0, "SCREENING 1", -7, "TREATMENT", "2013-01-06", -7], ["CDISCPILOT01", "QS", "01-704-1008", 2002, "MMITM02", "WHERE ARE WE: (STATE) (COUNTRY) (TOWN) ?", "MMSE", "ORIENTATION", "3", "", "3", 3, "", "", "", "", "", 1.0, "SCREENING 1", -7, "TREATMENT", "2013-01-06", -7], ["CDISCPILOT01", "QS", "01-704-1008", 2003, "MMITM03", "NAME 3 OBJECTS: 1 SECOND TO SAY EACH.", "MMSE", "REGISTRATION", "3", "", "3", 3, "", "", "", "", "", 1.0, "SCREENING 1", -7, "TREATMENT", "2013-01-06", -7], ["CDISCPILOT01", "QS", "01-704-1008", 2004, "MMITM04", "SERIAL 7'S. 1 POINT FOR EACH CORRECT.", "MMSE", "ATTENTION AND CALCULATI", "3", "", "3", 3, "", "", "", "", "", 1.0, "SCREENING 1", -7, "TREATMENT", "2013-01-06", -7], ["CDISCPILOT01", "QS", "01-704-1008", 2005, "MMITM05", "ASK FOR THE 3 OBJECTS REPEATED ABOVE.", "MMSE", "RECALL", "2", "", "2", 2, "", "", "", "", "", 1.0, "SCREENING 1", -7, "TREATMENT", "2013-01-06", -7], ["CDISCPILOT01", "QS", "01-704-1008", 2006, "MMITM06", "NAME A PENCIL, AND WATCH (2 POINTS)", "MMSE", "LANGUAGE", "5", "", "5", 5, "", "", "", "", "", 1.0, "SCREENING 1", -7, "TREATMENT", "2013-01-06", -7], ["CDISCPILOT01", "QS", "01-704-1009", 2001, "MMITM01", "WHAT IS THE (YEAR) (SEASON) (DATE) ?", "MMSE", "ORIENTATION", "3", "", "3", 3, "", "", "", "", "", 1.0, "SCREENING 1", -7, "TREATMENT", "2013-08-20", -7], ["CDISCPILOT01", "QS", "01-704-1009", 2002, "MMITM02", "WHERE ARE WE: (STATE) (COUNTRY) (TOWN) ?", "MMSE", "ORIENTATION", "2", "", "2", 2, "", "", "", "", "", 1.0, "SCREENING 1", -7, "TREATMENT", "2013-08-20", -7], ["CDISCPILOT01", "QS", "01-704-1009", 2003, "MMITM03", "NAME 3 OBJECTS: 1 SECOND TO SAY EACH.", "MMSE", "REGISTRATION", "3", "", "3", 3, "", "", "", "", "", 1.0, "SCREENING 1", -7, "TREATMENT", "2013-08-20", -7], ["CDISCPILOT01", "QS", "01-704-1009", 2004, "MMITM04", "SERIAL 7'S. 1 POINT FOR EACH CORRECT.", "MMSE", "ATTENTION AND CALCULATI", "5", "", "5", 5, "", "", "", "", "", 1.0, "SCREENING 1", -7, "TREATMENT", "2013-08-20", -7], ["CDISCPILOT01", "QS", "01-704-1009", 2005, "MMITM05", "ASK FOR THE 3 OBJECTS REPEATED ABOVE.", "MMSE", "RECALL", "0", "", "0", 0, "", "", "", "", "", 1.0, "SCREENING 1", -7, "TREATMENT", "2013-08-20", -7], ["CDISCPILOT01", "QS", "01-704-1009", 2006, "MMITM06", "NAME A PENCIL, AND WATCH (2 POINTS)", "MMSE", "LANGUAGE", "8", "", "8", 8, "", "", "", "", "", 1.0, "SCREENING 1", -7, "TREATMENT", "2013-08-20", -7], ["CDISCPILOT01", "QS", "01-704-1010", 2001, "MMITM01", "WHAT IS THE (YEAR) (SEASON) (DATE) ?", "MMSE", "ORIENTATION", "1", "", "1", 1, "", "", "", "", "", 1.0, "SCREENING 1", -7, "TREATMENT", "2014-02-08", -13], ["CDISCPILOT01", "QS", "01-704-1010", 2002, "MMITM02", "WHERE ARE WE: (STATE) (COUNTRY) (TOWN) ?", "MMSE", "ORIENTATION", "1", "", "1", 1, "", "", "", "", "", 1.0, "SCREENING 1", -7, "TREATMENT", "2014-02-08", -13], ["CDISCPILOT01", "QS", "01-704-1010", 2003, "MMITM03", "NAME 3 OBJECTS: 1 SECOND TO SAY EACH.", "MMSE", "REGISTRATION", "3", "", "3", 3, "", "", "", "", "", 1.0, "SCREENING 1", -7, "TREATMENT", "2014-02-08", -13], ["CDISCPILOT01", "QS", "01-704-1010", 2004, "MMITM04", "SERIAL 7'S. 1 POINT FOR EACH CORRECT.", "MMSE", "ATTENTION AND CALCULATI", "4", "", "4", 4, "", "", "", "", "", 1.0, "SCREENING 1", -7, "TREATMENT", "2014-02-08", -13], ["CDISCPILOT01", "QS", "01-704-1010", 2005, "MMITM05", "ASK FOR THE 3 OBJECTS REPEATED ABOVE.", "MMSE", "RECALL", "0", "", "0", 0, "", "", "", "", "", 1.0, "SCREENING 1", -7, "TREATMENT", "2014-02-08", -13], ["CDISCPILOT01", "QS", "01-704-1010", 2006, "MMITM06", "NAME A PENCIL, AND WATCH (2 POINTS)", "MMSE", "LANGUAGE", "8", "", "8", 8, "", "", "", "", "", 1.0, "SCREENING 1", -7, "TREATMENT", "2014-02-08", -13], ["CDISCPILOT01", "QS", "01-704-1017", 2001, "MMITM01", "WHAT IS THE (YEAR) (SEASON) (DATE) ?", "MMSE", "ORIENTATION", "1", "", "1", 1, "", "", "", "", "", 1.0, "SCREENING 1", -7, "TREATMENT", "2013-09-20", -16], ["CDISCPILOT01", "QS", "01-704-1017", 2002, "MMITM02", "WHERE ARE WE: (STATE) (COUNTRY) (TOWN) ?", "MMSE", "ORIENTATION", "3", "", "3", 3, "", "", "", "", "", 1.0, "SCREENING 1", -7, "TREATMENT", "2013-09-20", -16], ["CDISCPILOT01", "QS", "01-704-1017", 2003, "MMITM03", "NAME 3 OBJECTS: 1 SECOND TO SAY EACH.", "MMSE", "REGISTRATION", "3", "", "3", 3, "", "", "", "", "", 1.0, "SCREENING 1", -7, "TREATMENT", "2013-09-20", -16], ["CDISCPILOT01", "QS", "01-704-1017", 2004, "MMITM04", "SERIAL 7'S. 1 POINT FOR EACH CORRECT.", "MMSE", "ATTENTION AND CALCULATI", "5", "", "5", 5, "", "", "", "", "", 1.0, "SCREENING 1", -7, "TREATMENT", "2013-09-20", -16], ["CDISCPILOT01", "QS", "01-704-1017", 2005, "MMITM05", "ASK FOR THE 3 OBJECTS REPEATED ABOVE.", "MMSE", "RECALL", "0", "", "0", 0, "", "", "", "", "", 1.0, "SCREENING 1", -7, "TREATMENT", "2013-09-20", -16], ["CDISCPILOT01", "QS", "01-704-1017", 2006, "MMITM06", "NAME A PENCIL, AND WATCH (2 POINTS)", "MMSE", "LANGUAGE", "9", "", "9", 9, "", "", "", "", "", 1.0, "SCREENING 1", -7, "TREATMENT", "2013-09-20", -16], ["CDISCPILOT01", "QS", "01-704-1025", 2001, "MMITM01", "WHAT IS THE (YEAR) (SEASON) (DATE) ?", "MMSE", "ORIENTATION", "2", "", "2", 2, "", "", "", "", "", 1.0, "SCREENING 1", -7, "TREATMENT", "2013-09-18", -9], ["CDISCPILOT01", "QS", "01-704-1025", 2002, "MMITM02", "WHERE ARE WE: (STATE) (COUNTRY) (TOWN) ?", "MMSE", "ORIENTATION", "1", "", "1", 1, "", "", "", "", "", 1.0, "SCREENING 1", -7, "TREATMENT", "2013-09-18", -9], ["CDISCPILOT01", "QS", "01-704-1025", 2003, "MMITM03", "NAME 3 OBJECTS: 1 SECOND TO SAY EACH.", "MMSE", "REGISTRATION", "3", "", "3", 3, "", "", "", "", "", 1.0, "SCREENING 1", -7, "TREATMENT", "2013-09-18", -9], ["CDISCPILOT01", "QS", "01-704-1025", 2004, "MMITM04", "SERIAL 7'S. 1 POINT FOR EACH CORRECT.", "MMSE", "ATTENTION AND CALCULATI", "4", "", "4", 4, "", "", "", "", "", 1.0, "SCREENING 1", -7, "TREATMENT", "2013-09-18", -9], ["CDISCPILOT01", "QS", "01-704-1025", 2005, "MMITM05", "ASK FOR THE 3 OBJECTS REPEATED ABOVE.", "MMSE", "RECALL", "1", "", "1", 1, "", "", "", "", "", 1.0, "SCREENING 1", -7, "TREATMENT", "2013-09-18", -9], ["CDISCPILOT01", "QS", "01-704-1025", 2006, "MMITM06", "NAME A PENCIL, AND WATCH (2 POINTS)", "MMSE", "LANGUAGE", "6", "", "6", 6, "", "", "", "", "", 1.0, "SCREENING 1", -7, "TREATMENT", "2013-09-18", -9], ["CDISCPILOT01", "QS", "01-704-1065", 2001, "MMITM01", "WHAT IS THE (YEAR) (SEASON) (DATE) ?", "MMSE", "ORIENTATION", "2", "", "2", 2, "", "", "", "", "", 1.0, "SCREENING 1", -7, "TREATMENT", "2013-10-17", -7], ["CDISCPILOT01", "QS", "01-704-1065", 2002, "MMITM02", "WHERE ARE WE: (STATE) (COUNTRY) (TOWN) ?", "MMSE", "ORIENTATION", "2", "", "2", 2, "", "", "", "", "", 1.0, "SCREENING 1", -7, "TREATMENT", "2013-10-17", -7], ["CDISCPILOT01", "QS", "01-704-1065", 2003, "MMITM03", "NAME 3 OBJECTS: 1 SECOND TO SAY EACH.", "MMSE", "REGISTRATION", "3", "", "3", 3, "", "", "", "", "", 1.0, "SCREENING 1", -7, "TREATMENT", "2013-10-17", -7], ["CDISCPILOT01", "QS", "01-704-1065", 2004, "MMITM04", "SERIAL 7'S. 1 POINT FOR EACH CORRECT.", "MMSE", "ATTENTION AND CALCULATI", "5", "", "5", 5, "", "", "", "", "", 1.0, "SCREENING 1", -7, "TREATMENT", "2013-10-17", -7], ["CDISCPILOT01", "QS", "01-704-1065", 2005, "MMITM05", "ASK FOR THE 3 OBJECTS REPEATED ABOVE.", "MMSE", "RECALL", "0", "", "0", 0, "", "", "", "", "", 1.0, "SCREENING 1", -7, "TREATMENT", "2013-10-17", -7], ["CDISCPILOT01", "QS", "01-704-1065", 2006, "MMITM06", "NAME A PENCIL, AND WATCH (2 POINTS)", "MMSE", "LANGUAGE", "8", "", "8", 8, "", "", "", "", "", 1.0, "SCREENING 1", -7, "TREATMENT", "2013-10-17", -7], ["CDISCPILOT01", "QS", "01-704-1074", 2001, "MMITM01", "WHAT IS THE (YEAR) (SEASON) (DATE) ?", "MMSE", "ORIENTATION", "0", "", "0", 0, "", "", "", "", "", 1.0, "SCREENING 1", -7, "TREATMENT", "2014-01-19", -3], ["CDISCPILOT01", "QS", "01-704-1074", 2002, "MMITM02", "WHERE ARE WE: (STATE) (COUNTRY) (TOWN) ?", "MMSE", "ORIENTATION", "2", "", "2", 2, "", "", "", "", "", 1.0, "SCREENING 1", -7, "TREATMENT", "2014-01-19", -3], ["CDISCPILOT01", "QS", "01-704-1074", 2003, "MMITM03", "NAME 3 OBJECTS: 1 SECOND TO SAY EACH.", "MMSE", "REGISTRATION", "3", "", "3", 3, "", "", "", "", "", 1.0, "SCREENING 1", -7, "TREATMENT", "2014-01-19", -3], ["CDISCPILOT01", "QS", "01-704-1074", 2004, "MMITM04", "SERIAL 7'S. 1 POINT FOR EACH CORRECT.", "MMSE", "ATTENTION AND CALCULATI", "5", "", "5", 5, "", "", "", "", "", 1.0, "SCREENING 1", -7, "TREATMENT", "2014-01-19", -3], ["CDISCPILOT01", "QS", "01-704-1074", 2005, "MMITM05", "ASK FOR THE 3 OBJECTS REPEATED ABOVE.", "MMSE", "RECALL", "0", "", "0", 0, "", "", "", "", "", 1.0, "SCREENING 1", -7, "TREATMENT", "2014-01-19", -3], ["CDISCPILOT01", "QS", "01-704-1074", 2006, "MMITM06", "NAME A PENCIL, AND WATCH (2 POINTS)", "MMSE", "LANGUAGE", "7", "", "7", 7, "", "", "", "", "", 1.0, "SCREENING 1", -7, "TREATMENT", "2014-01-19", -3], ["CDISCPILOT01", "QS", "01-704-1093", 2001, "MMITM01", "WHAT IS THE (YEAR) (SEASON) (DATE) ?", "MMSE", "ORIENTATION", "2", "", "2", 2, "", "", "", "", "", 1.0, "SCREENING 1", -7, "TREATMENT", "2013-02-22", -21], ["CDISCPILOT01", "QS", "01-704-1093", 2002, "MMITM02", "WHERE ARE WE: (STATE) (COUNTRY) (TOWN) ?", "MMSE", "ORIENTATION", "0", "", "0", 0, "", "", "", "", "", 1.0, "SCREENING 1", -7, "TREATMENT", "2013-02-22", -21], ["CDISCPILOT01", "QS", "01-704-1093", 2003, "MMITM03", "NAME 3 OBJECTS: 1 SECOND TO SAY EACH.", "MMSE", "REGISTRATION", "3", "", "3", 3, "", "", "", "", "", 1.0, "SCREENING 1", -7, "TREATMENT", "2013-02-22", -21], ["CDISCPILOT01", "QS", "01-704-1093", 2004, "MMITM04", "SERIAL 7'S. 1 POINT FOR EACH CORRECT.", "MMSE", "ATTENTION AND CALCULATI", "5", "", "5", 5, "", "", "", "", "", 1.0, "SCREENING 1", -7, "TREATMENT", "2013-02-22", -21], ["CDISCPILOT01", "QS", "01-704-1093", 2005, "MMITM05", "ASK FOR THE 3 OBJECTS REPEATED ABOVE.", "MMSE", "RECALL", "0", "", "0", 0, "", "", "", "", "", 1.0, "SCREENING 1", -7, "TREATMENT", "2013-02-22", -21], ["CDISCPILOT01", "QS", "01-704-1093", 2006, "MMITM06", "NAME A PENCIL, AND WATCH (2 POINTS)", "MMSE", "LANGUAGE", "8", "", "8", 8, "", "", "", "", "", 1.0, "SCREENING 1", -7, "TREATMENT", "2013-02-22", -21], ["CDISCPILOT01", "QS", "01-704-1114", 2001, "MMITM01", "WHAT IS THE (YEAR) (SEASON) (DATE) ?", "MMSE", "ORIENTATION", "2", "", "2", 2, "", "", "", "", "", 1.0, "SCREENING 1", -7, "TREATMENT", "2013-01-09", -14], ["CDISCPILOT01", "QS", "01-704-1114", 2002, "MMITM02", "WHERE ARE WE: (STATE) (COUNTRY) (TOWN) ?", "MMSE", "ORIENTATION", "2", "", "2", 2, "", "", "", "", "", 1.0, "SCREENING 1", -7, "TREATMENT", "2013-01-09", -14], ["CDISCPILOT01", "QS", "01-704-1114", 2003, "MMITM03", "NAME 3 OBJECTS: 1 SECOND TO SAY EACH.", "MMSE", "REGISTRATION", "3", "", "3", 3, "", "", "", "", "", 1.0, "SCREENING 1", -7, "TREATMENT", "2013-01-09", -14], ["CDISCPILOT01", "QS", "01-704-1114", 2004, "MMITM04", "SERIAL 7'S. 1 POINT FOR EACH CORRECT.", "MMSE", "ATTENTION AND CALCULATI", "5", "", "5", 5, "", "", "", "", "", 1.0, "SCREENING 1", -7, "TREATMENT", "2013-01-09", -14], ["CDISCPILOT01", "QS", "01-704-1114", 2005, "MMITM05", "ASK FOR THE 3 OBJECTS REPEATED ABOVE.", "MMSE", "RECALL", "0", "", "0", 0, "", "", "", "", "", 1.0, "SCREENING 1", -7, "TREATMENT", "2013-01-09", -14], ["CDISCPILOT01", "QS", "01-704-1114", 2006, "MMITM06", "NAME A PENCIL, AND WATCH (2 POINTS)", "MMSE", "LANGUAGE", "8", "", "8", 8, "", "", "", "", "", 1.0, "SCREENING 1", -7, "TREATMENT", "2013-01-09", -14], ["CDISCPILOT01", "QS", "01-704-1120", 2001, "MMITM01", "WHAT IS THE (YEAR) (SEASON) (DATE) ?", "MMSE", "ORIENTATION", "2", "", "2", 2, "", "", "", "", "", 1.0, "SCREENING 1", -7, "TREATMENT", "2013-11-18", -14], ["CDISCPILOT01", "QS", "01-704-1120", 2002, "MMITM02", "WHERE ARE WE: (STATE) (COUNTRY) (TOWN) ?", "MMSE", "ORIENTATION", "2", "", "2", 2, "", "", "", "", "", 1.0, "SCREENING 1", -7, "TREATMENT", "2013-11-18", -14], ["CDISCPILOT01", "QS", "01-704-1120", 2003, "MMITM03", "NAME 3 OBJECTS: 1 SECOND TO SAY EACH.", "MMSE", "REGISTRATION", "3", "", "3", 3, "", "", "", "", "", 1.0, "SCREENING 1", -7, "TREATMENT", "2013-11-18", -14], ["CDISCPILOT01", "QS", "01-704-1120", 2004, "MMITM04", "SERIAL 7'S. 1 POINT FOR EACH CORRECT.", "MMSE", "ATTENTION AND CALCULATI", "3", "", "3", 3, "", "", "", "", "", 1.0, "SCREENING 1", -7, "TREATMENT", "2013-11-18", -14], ["CDISCPILOT01", "QS", "01-704-1120", 2005, "MMITM05", "ASK FOR THE 3 OBJECTS REPEATED ABOVE.", "MMSE", "RECALL", "0", "", "0", 0, "", "", "", "", "", 1.0, "SCREENING 1", -7, "TREATMENT", "2013-11-18", -14], ["CDISCPILOT01", "QS", "01-704-1120", 2006, "MMITM06", "NAME A PENCIL, AND WATCH (2 POINTS)", "MMSE", "LANGUAGE", "6", "", "6", 6, "", "", "", "", "", 1.0, "SCREENING 1", -7, "TREATMENT", "2013-11-18", -14], ["CDISCPILOT01", "QS", "01-704-1127", 2001, "MMITM01", "WHAT IS THE (YEAR) (SEASON) (DATE) ?", "MMSE", "ORIENTATION", "2", "", "2", 2, "", "", "", "", "", 1.0, "SCREENING 1", -7, "TREATMENT", "2013-09-16", -16], ["CDISCPILOT01", "QS", "01-704-1127", 2002, "MMITM02", "WHERE ARE WE: (STATE) (COUNTRY) (TOWN) ?", "MMSE", "ORIENTATION", "3", "", "3", 3, "", "", "", "", "", 1.0, "SCREENING 1", -7, "TREATMENT", "2013-09-16", -16], ["CDISCPILOT01", "QS", "01-704-1127", 2003, "MMITM03", "NAME 3 OBJECTS: 1 SECOND TO SAY EACH.", "MMSE", "REGISTRATION", "3", "", "3", 3, "", "", "", "", "", 1.0, "SCREENING 1", -7, "TREATMENT", "2013-09-16", -16], ["CDISCPILOT01", "QS", "01-704-1127", 2004, "MMITM04", "SERIAL 7'S. 1 POINT FOR EACH CORRECT.", "MMSE", "ATTENTION AND CALCULATI", "5", "", "5", 5, "", "", "", "", "", 1.0, "SCREENING 1", -7, "TREATMENT", "2013-09-16", -16], ["CDISCPILOT01", "QS", "01-704-1127", 2005, "MMITM05", "ASK FOR THE 3 OBJECTS REPEATED ABOVE.", "MMSE", "RECALL", "0", "", "0", 0, "", "", "", "", "", 1.0, "SCREENING 1", -7, "TREATMENT", "2013-09-16", -16], ["CDISCPILOT01", "QS", "01-704-1127", 2006, "MMITM06", "NAME A PENCIL, AND WATCH (2 POINTS)", "MMSE", "LANGUAGE", "9", "", "9", 9, "", "", "", "", "", 1.0, "SCREENING 1", -7, "TREATMENT", "2013-09-16", -16], ["CDISCPILOT01", "QS", "01-704-1135", 2001, "MMITM01", "WHAT IS THE (YEAR) (SEASON) (DATE) ?", "MMSE", "ORIENTATION", "3", "", "3", 3, "", "", "", "", "", 1.0, "SCREENING 1", -7, "TREATMENT", "2013-10-23", -8], ["CDISCPILOT01", "QS", "01-704-1135", 2002, "MMITM02", "WHERE ARE WE: (STATE) (COUNTRY) (TOWN) ?", "MMSE", "ORIENTATION", "4", "", "4", 4, "", "", "", "", "", 1.0, "SCREENING 1", -7, "TREATMENT", "2013-10-23", -8], ["CDISCPILOT01", "QS", "01-704-1135", 2003, "MMITM03", "NAME 3 OBJECTS: 1 SECOND TO SAY EACH.", "MMSE", "REGISTRATION", "3", "", "3", 3, "", "", "", "", "", 1.0, "SCREENING 1", -7, "TREATMENT", "2013-10-23", -8], ["CDISCPILOT01", "QS", "01-704-1135", 2004, "MMITM04", "SERIAL 7'S. 1 POINT FOR EACH CORRECT.", "MMSE", "ATTENTION AND CALCULATI", "5", "", "5", 5, "", "", "", "", "", 1.0, "SCREENING 1", -7, "TREATMENT", "2013-10-23", -8], ["CDISCPILOT01", "QS", "01-704-1135", 2005, "MMITM05", "ASK FOR THE 3 OBJECTS REPEATED ABOVE.", "MMSE", "RECALL", "0", "", "0", 0, "", "", "", "", "", 1.0, "SCREENING 1", -7, "TREATMENT", "2013-10-23", -8], ["CDISCPILOT01", "QS", "01-704-1135", 2006, "MMITM06", "NAME A PENCIL, AND WATCH (2 POINTS)", "MMSE", "LANGUAGE", "8", "", "8", 8, "", "", "", "", "", 1.0, "SCREENING 1", -7, "TREATMENT", "2013-10-23", -8], ["CDISCPILOT01", "QS", "01-704-1164", 2001, "MMITM01", "WHAT IS THE (YEAR) (SEASON) (DATE) ?", "MMSE", "ORIENTATION", "0", "", "0", 0, "", "", "", "", "", 1.0, "SCREENING 1", -7, "TREATMENT", "2012-09-11", -8], ["CDISCPILOT01", "QS", "01-704-1164", 2002, "MMITM02", "WHERE ARE WE: (STATE) (COUNTRY) (TOWN) ?", "MMSE", "ORIENTATION", "2", "", "2", 2, "", "", "", "", "", 1.0, "SCREENING 1", -7, "TREATMENT", "2012-09-11", -8], ["CDISCPILOT01", "QS", "01-704-1164", 2003, "MMITM03", "NAME 3 OBJECTS: 1 SECOND TO SAY EACH.", "MMSE", "REGISTRATION", "3", "", "3", 3, "", "", "", "", "", 1.0, "SCREENING 1", -7, "TREATMENT", "2012-09-11", -8], ["CDISCPILOT01", "QS", "01-704-1164", 2004, "MMITM04", "SERIAL 7'S. 1 POINT FOR EACH CORRECT.", "MMSE", "ATTENTION AND CALCULATI", "4", "", "4", 4, "", "", "", "", "", 1.0, "SCREENING 1", -7, "TREATMENT", "2012-09-11", -8], ["CDISCPILOT01", "QS", "01-704-1164", 2005, "MMITM05", "ASK FOR THE 3 OBJECTS REPEATED ABOVE.", "MMSE", "RECALL", "0", "", "0", 0, "", "", "", "", "", 1.0, "SCREENING 1", -7, "TREATMENT", "2012-09-11", -8], ["CDISCPILOT01", "QS", "01-704-1164", 2006, "MMITM06", "NAME A PENCIL, AND WATCH (2 POINTS)", "MMSE", "LANGUAGE", "7", "", "7", 7, "", "", "", "", "", 1.0, "SCREENING 1", -7, "TREATMENT", "2012-09-11", -8], ["CDISCPILOT01", "QS", "01-704-1218", 2001, "MMITM01", "WHAT IS THE (YEAR) (SEASON) (DATE) ?", "MMSE", "ORIENTATION", "4", "", "4", 4, "", "", "", "", "", 1.0, "SCREENING 1", -7, "TREATMENT", "2012-11-11", -8], ["CDISCPILOT01", "QS", "01-704-1218", 2002, "MMITM02", "WHERE ARE WE: (STATE) (COUNTRY) (TOWN) ?", "MMSE", "ORIENTATION", "3", "", "3", 3, "", "", "", "", "", 1.0, "SCREENING 1", -7, "TREATMENT", "2012-11-11", -8], ["CDISCPILOT01", "QS", "01-704-1218", 2003, "MMITM03", "NAME 3 OBJECTS: 1 SECOND TO SAY EACH.", "MMSE", "REGISTRATION", "2", "", "2", 2, "", "", "", "", "", 1.0, "SCREENING 1", -7, "TREATMENT", "2012-11-11", -8], ["CDISCPILOT01", "QS", "01-704-1218", 2004, "MMITM04", "SERIAL 7'S. 1 POINT FOR EACH CORRECT.", "MMSE", "ATTENTION AND CALCULATI", "4", "", "4", 4, "", "", "", "", "", 1.0, "SCREENING 1", -7, "TREATMENT", "2012-11-11", -8], ["CDISCPILOT01", "QS", "01-704-1218", 2005, "MMITM05", "ASK FOR THE 3 OBJECTS REPEATED ABOVE.", "MMSE", "RECALL", "0", "", "0", 0, "", "", "", "", "", 1.0, "SCREENING 1", -7, "TREATMENT", "2012-11-11", -8], ["CDISCPILOT01", "QS", "01-704-1218", 2006, "MMITM06", "NAME A PENCIL, AND WATCH (2 POINTS)", "MMSE", "LANGUAGE", "9", "", "9", 9, "", "", "", "", "", 1.0, "SCREENING 1", -7, "TREATMENT", "2012-11-11", -8], ["CDISCPILOT01", "QS", "01-704-1233", 2001, "MMITM01", "WHAT IS THE (YEAR) (SEASON) (DATE) ?", "MMSE", "ORIENTATION", "1", "", "1", 1, "", "", "", "", "", 1.0, "SCREENING 1", -7, "TREATMENT", "2013-03-08", -13], ["CDISCPILOT01", "QS", "01-704-1233", 2002, "MMITM02", "WHERE ARE WE: (STATE) (COUNTRY) (TOWN) ?", "MMSE", "ORIENTATION", "0", "", "0", 0, "", "", "", "", "", 1.0, "SCREENING 1", -7, "TREATMENT", "2013-03-08", -13], ["CDISCPILOT01", "QS", "01-704-1233", 2003, "MMITM03", "NAME 3 OBJECTS: 1 SECOND TO SAY EACH.", "MMSE", "REGISTRATION", "1", "", "1", 1, "", "", "", "", "", 1.0, "SCREENING 1", -7, "TREATMENT", "2013-03-08", -13], ["CDISCPILOT01", "QS", "01-704-1233", 2004, "MMITM04", "SERIAL 7'S. 1 POINT FOR EACH CORRECT.", "MMSE", "ATTENTION AND CALCULATI", "5", "", "5", 5, "", "", "", "", "", 1.0, "SCREENING 1", -7, "TREATMENT", "2013-03-08", -13], ["CDISCPILOT01", "QS", "01-704-1233", 2005, "MMITM05", "ASK FOR THE 3 OBJECTS REPEATED ABOVE.", "MMSE", "RECALL", "0", "", "0", 0, "", "", "", "", "", 1.0, "SCREENING 1", -7, "TREATMENT", "2013-03-08", -13], ["CDISCPILOT01", "QS", "01-704-1233", 2006, "MMITM06", "NAME A PENCIL, AND WATCH (2 POINTS)", "MMSE", "LANGUAGE", "8", "", "8", 8, "", "", "", "", "", 1.0, "SCREENING 1", -7, "TREATMENT", "2013-03-08", -13], ["CDISCPILOT01", "QS", "01-704-1241", 2001, "MMITM01", "WHAT IS THE (YEAR) (SEASON) (DATE) ?", "MMSE", "ORIENTATION", "2", "", "2", 2, "", "", "", "", "", 1.0, "SCREENING 1", -7, "TREATMENT", "2013-08-14", -11], ["CDISCPILOT01", "QS", "01-704-1241", 2002, "MMITM02", "WHERE ARE WE: (STATE) (COUNTRY) (TOWN) ?", "MMSE", "ORIENTATION", "5", "", "5", 5, "", "", "", "", "", 1.0, "SCREENING 1", -7, "TREATMENT", "2013-08-14", -11], ["CDISCPILOT01", "QS", "01-704-1241", 2003, "MMITM03", "NAME 3 OBJECTS: 1 SECOND TO SAY EACH.", "MMSE", "REGISTRATION", "3", "", "3", 3, "", "", "", "", "", 1.0, "SCREENING 1", -7, "TREATMENT", "2013-08-14", -11], ["CDISCPILOT01", "QS", "01-704-1241", 2004, "MMITM04", "SERIAL 7'S. 1 POINT FOR EACH CORRECT.", "MMSE", "ATTENTION AND CALCULATI", "5", "", "5", 5, "", "", "", "", "", 1.0, "SCREENING 1", -7, "TREATMENT", "2013-08-14", -11], ["CDISCPILOT01", "QS", "01-704-1241", 2005, "MMITM05", "ASK FOR THE 3 OBJECTS REPEATED ABOVE.", "MMSE", "RECALL", "0", "", "0", 0, "", "", "", "", "", 1.0, "SCREENING 1", -7, "TREATMENT", "2013-08-14", -11], ["CDISCPILOT01", "QS", "01-704-1241", 2006, "MMITM06", "NAME A PENCIL, AND WATCH (2 POINTS)", "MMSE", "LANGUAGE", "6", "", "6", 6, "", "", "", "", "", 1.0, "SCREENING 1", -7, "TREATMENT", "2013-08-14", -11], ["CDISCPILOT01", "QS", "01-704-1260", 2001, "MMITM01", "WHAT IS THE (YEAR) (SEASON) (DATE) ?", "MMSE", "ORIENTATION", "0", "", "0", 0, "", "", "", "", "", 1.0, "SCREENING 1", -7, "TREATMENT", "2012-08-23", -7], ["CDISCPILOT01", "QS", "01-704-1260", 2002, "MMITM02", "WHERE ARE WE: (STATE) (COUNTRY) (TOWN) ?", "MMSE", "ORIENTATION", "1", "", "1", 1, "", "", "", "", "", 1.0, "SCREENING 1", -7, "TREATMENT", "2012-08-23", -7], ["CDISCPILOT01", "QS", "01-704-1260", 2003, "MMITM03", "NAME 3 OBJECTS: 1 SECOND TO SAY EACH.", "MMSE", "REGISTRATION", "3", "", "3", 3, "", "", "", "", "", 1.0, "SCREENING 1", -7, "TREATMENT", "2012-08-23", -7], ["CDISCPILOT01", "QS", "01-704-1260", 2004, "MMITM04", "SERIAL 7'S. 1 POINT FOR EACH CORRECT.", "MMSE", "ATTENTION AND CALCULATI", "3", "", "3", 3, "", "", "", "", "", 1.0, "SCREENING 1", -7, "TREATMENT", "2012-08-23", -7], ["CDISCPILOT01", "QS", "01-704-1260", 2005, "MMITM05", "ASK FOR THE 3 OBJECTS REPEATED ABOVE.", "MMSE", "RECALL", "0", "", "0", 0, "", "", "", "", "", 1.0, "SCREENING 1", -7, "TREATMENT", "2012-08-23", -7], ["CDISCPILOT01", "QS", "01-704-1260", 2006, "MMITM06", "NAME A PENCIL, AND WATCH (2 POINTS)", "MMSE", "LANGUAGE", "9", "", "9", 9, "", "", "", "", "", 1.0, "SCREENING 1", -7, "TREATMENT", "2012-08-23", -7], ["CDISCPILOT01", "QS", "01-704-1266", 2001, "MMITM01", "WHAT IS THE (YEAR) (SEASON) (DATE) ?", "MMSE", "ORIENTATION", "1", "", "1", 1, "", "", "", "", "", 1.0, "SCREENING 1", -7, "TREATMENT", "2013-10-05", -8], ["CDISCPILOT01", "QS", "01-704-1266", 2002, "MMITM02", "WHERE ARE WE: (STATE) (COUNTRY) (TOWN) ?", "MMSE", "ORIENTATION", "3", "", "3", 3, "", "", "", "", "", 1.0, "SCREENING 1", -7, "TREATMENT", "2013-10-05", -8], ["CDISCPILOT01", "QS", "01-704-1266", 2003, "MMITM03", "NAME 3 OBJECTS: 1 SECOND TO SAY EACH.", "MMSE", "REGISTRATION", "2", "", "2", 2, "", "", "", "", "", 1.0, "SCREENING 1", -7, "TREATMENT", "2013-10-05", -8], ["CDISCPILOT01", "QS", "01-704-1266", 2004, "MMITM04", "SERIAL 7'S. 1 POINT FOR EACH CORRECT.", "MMSE", "ATTENTION AND CALCULATI", "5", "", "5", 5, "", "", "", "", "", 1.0, "SCREENING 1", -7, "TREATMENT", "2013-10-05", -8], ["CDISCPILOT01", "QS", "01-704-1266", 2005, "MMITM05", "ASK FOR THE 3 OBJECTS REPEATED ABOVE.", "MMSE", "RECALL", "0", "", "0", 0, "", "", "", "", "", 1.0, "SCREENING 1", -7, "TREATMENT", "2013-10-05", -8], ["CDISCPILOT01", "QS", "01-704-1266", 2006, "MMITM06", "NAME A PENCIL, AND WATCH (2 POINTS)", "MMSE", "LANGUAGE", "5", "", "5", 5, "", "", "", "", "", 1.0, "SCREENING 1", -7, "TREATMENT", "2013-10-05", -8], ["CDISCPILOT01", "QS", "01-704-1323", 2001, "MMITM01", "WHAT IS THE (YEAR) (SEASON) (DATE) ?", "MMSE", "ORIENTATION", "2", "", "2", 2, "", "", "", "", "", 1.0, "SCREENING 1", -7, "TREATMENT", "2013-06-13", -25], ["CDISCPILOT01", "QS", "01-704-1323", 2002, "MMITM02", "WHERE ARE WE: (STATE) (COUNTRY) (TOWN) ?", "MMSE", "ORIENTATION", "5", "", "5", 5, "", "", "", "", "", 1.0, "SCREENING 1", -7, "TREATMENT", "2013-06-13", -25], ["CDISCPILOT01", "QS", "01-704-1323", 2003, "MMITM03", "NAME 3 OBJECTS: 1 SECOND TO SAY EACH.", "MMSE", "REGISTRATION", "3", "", "3", 3, "", "", "", "", "", 1.0, "SCREENING 1", -7, "TREATMENT", "2013-06-13", -25], ["CDISCPILOT01", "QS", "01-704-1323", 2004, "MMITM04", "SERIAL 7'S. 1 POINT FOR EACH CORRECT.", "MMSE", "ATTENTION AND CALCULATI", "5", "", "5", 5, "", "", "", "", "", 1.0, "SCREENING 1", -7, "TREATMENT", "2013-06-13", -25], ["CDISCPILOT01", "QS", "01-704-1323", 2005, "MMITM05", "ASK FOR THE 3 OBJECTS REPEATED ABOVE.", "MMSE", "RECALL", "0", "", "0", 0, "", "", "", "", "", 1.0, "SCREENING 1", -7, "TREATMENT", "2013-06-13", -25], ["CDISCPILOT01", "QS", "01-704-1323", 2006, "MMITM06", "NAME A PENCIL, AND WATCH (2 POINTS)", "MMSE", "LANGUAGE", "8", "", "8", 8, "", "", "", "", "", 1.0, "SCREENING 1", -7, "TREATMENT", "2013-06-13", -25], ["CDISCPILOT01", "QS", "01-704-1325", 2001, "MMITM01", "WHAT IS THE (YEAR) (SEASON) (DATE) ?", "MMSE", "ORIENTATION", "2", "", "2", 2, "", "", "", "", "", 1.0, "SCREENING 1", -7, "TREATMENT", "2014-04-16", -7], ["CDISCPILOT01", "QS", "01-704-1325", 2002, "MMITM02", "WHERE ARE WE: (STATE) (COUNTRY) (TOWN) ?", "MMSE", "ORIENTATION", "3", "", "3", 3, "", "", "", "", "", 1.0, "SCREENING 1", -7, "TREATMENT", "2014-04-16", -7], ["CDISCPILOT01", "QS", "01-704-1325", 2003, "MMITM03", "NAME 3 OBJECTS: 1 SECOND TO SAY EACH.", "MMSE", "REGISTRATION", "3", "", "3", 3, "", "", "", "", "", 1.0, "SCREENING 1", -7, "TREATMENT", "2014-04-16", -7], ["CDISCPILOT01", "QS", "01-704-1325", 2004, "MMITM04", "SERIAL 7'S. 1 POINT FOR EACH CORRECT.", "MMSE", "ATTENTION AND CALCULATI", "4", "", "4", 4, "", "", "", "", "", 1.0, "SCREENING 1", -7, "TREATMENT", "2014-04-16", -7], ["CDISCPILOT01", "QS", "01-704-1325", 2005, "MMITM05", "ASK FOR THE 3 OBJECTS REPEATED ABOVE.", "MMSE", "RECALL", "0", "", "0", 0, "", "", "", "", "", 1.0, "SCREENING 1", -7, "TREATMENT", "2014-04-16", -7], ["CDISCPILOT01", "QS", "01-704-1325", 2006, "MMITM06", "NAME A PENCIL, AND WATCH (2 POINTS)", "MMSE", "LANGUAGE", "6", "", "6", 6, "", "", "", "", "", 1.0, "SCREENING 1", -7, "TREATMENT", "2014-04-16", -7], ["CDISCPILOT01", "QS", "01-704-1332", 2001, "MMITM01", "WHAT IS THE (YEAR) (SEASON) (DATE) ?", "MMSE", "ORIENTATION", "5", "", "5", 5, "", "", "", "", "", 1.0, "SCREENING 1", -7, "TREATMENT", "2013-11-24", -15], ["CDISCPILOT01", "QS", "01-704-1332", 2002, "MMITM02", "WHERE ARE WE: (STATE) (COUNTRY) (TOWN) ?", "MMSE", "ORIENTATION", "2", "", "2", 2, "", "", "", "", "", 1.0, "SCREENING 1", -7, "TREATMENT", "2013-11-24", -15], ["CDISCPILOT01", "QS", "01-704-1332", 2003, "MMITM03", "NAME 3 OBJECTS: 1 SECOND TO SAY EACH.", "MMSE", "REGISTRATION", "3", "", "3", 3, "", "", "", "", "", 1.0, "SCREENING 1", -7, "TREATMENT", "2013-11-24", -15], ["CDISCPILOT01", "QS", "01-704-1332", 2004, "MMITM04", "SERIAL 7'S. 1 POINT FOR EACH CORRECT.", "MMSE", "ATTENTION AND CALCULATI", "4", "", "4", 4, "", "", "", "", "", 1.0, "SCREENING 1", -7, "TREATMENT", "2013-11-24", -15], ["CDISCPILOT01", "QS", "01-704-1332", 2005, "MMITM05", "ASK FOR THE 3 OBJECTS REPEATED ABOVE.", "MMSE", "RECALL", "0", "", "0", 0, "", "", "", "", "", 1.0, "SCREENING 1", -7, "TREATMENT", "2013-11-24", -15], ["CDISCPILOT01", "QS", "01-704-1332", 2006, "MMITM06", "NAME A PENCIL, AND WATCH (2 POINTS)", "MMSE", "LANGUAGE", "8", "", "8", 8, "", "", "", "", "", 1.0, "SCREENING 1", -7, "TREATMENT", "2013-11-24", -15], ["CDISCPILOT01", "QS", "01-704-1351", 2001, "MMITM01", "WHAT IS THE (YEAR) (SEASON) (DATE) ?", "MMSE", "ORIENTATION", "2", "", "2", 2, "", "", "", "", "", 1.0, "SCREENING 1", -7, "TREATMENT", "2013-09-26", -16], ["CDISCPILOT01", "QS", "01-704-1351", 2002, "MMITM02", "WHERE ARE WE: (STATE) (COUNTRY) (TOWN) ?", "MMSE", "ORIENTATION", "4", "", "4", 4, "", "", "", "", "", 1.0, "SCREENING 1", -7, "TREATMENT", "2013-09-26", -16], ["CDISCPILOT01", "QS", "01-704-1351", 2003, "MMITM03", "NAME 3 OBJECTS: 1 SECOND TO SAY EACH.", "MMSE", "REGISTRATION", "3", "", "3", 3, "", "", "", "", "", 1.0, "SCREENING 1", -7, "TREATMENT", "2013-09-26", -16], ["CDISCPILOT01", "QS", "01-704-1351", 2004, "MMITM04", "SERIAL 7'S. 1 POINT FOR EACH CORRECT.", "MMSE", "ATTENTION AND CALCULATI", "4", "", "4", 4, "", "", "", "", "", 1.0, "SCREENING 1", -7, "TREATMENT", "2013-09-26", -16], ["CDISCPILOT01", "QS", "01-704-1351", 2005, "MMITM05", "ASK FOR THE 3 OBJECTS REPEATED ABOVE.", "MMSE", "RECALL", "0", "", "0", 0, "", "", "", "", "", 1.0, "SCREENING 1", -7, "TREATMENT", "2013-09-26", -16], ["CDISCPILOT01", "QS", "01-704-1351", 2006, "MMITM06", "NAME A PENCIL, AND WATCH (2 POINTS)", "MMSE", "LANGUAGE", "9", "", "9", 9, "", "", "", "", "", 1.0, "SCREENING 1", -7, "TREATMENT", "2013-09-26", -16], ["CDISCPILOT01", "QS", "01-704-1388", 2001, "MMITM01", "WHAT IS THE (YEAR) (SEASON) (DATE) ?", "MMSE", "ORIENTATION", "1", "", "1", 1, "", "", "", "", "", 1.0, "SCREENING 1", -7, "TREATMENT", "2012-11-28", -9], ["CDISCPILOT01", "QS", "01-704-1388", 2002, "MMITM02", "WHERE ARE WE: (STATE) (COUNTRY) (TOWN) ?", "MMSE", "ORIENTATION", "4", "", "4", 4, "", "", "", "", "", 1.0, "SCREENING 1", -7, "TREATMENT", "2012-11-28", -9], ["CDISCPILOT01", "QS", "01-704-1388", 2003, "MMITM03", "NAME 3 OBJECTS: 1 SECOND TO SAY EACH.", "MMSE", "REGISTRATION", "2", "", "2", 2, "", "", "", "", "", 1.0, "SCREENING 1", -7, "TREATMENT", "2012-11-28", -9], ["CDISCPILOT01", "QS", "01-704-1388", 2004, "MMITM04", "SERIAL 7'S. 1 POINT FOR EACH CORRECT.", "MMSE", "ATTENTION AND CALCULATI", "5", "", "5", 5, "", "", "", "", "", 1.0, "SCREENING 1", -7, "TREATMENT", "2012-11-28", -9], ["CDISCPILOT01", "QS", "01-704-1388", 2005, "MMITM05", "ASK FOR THE 3 OBJECTS REPEATED ABOVE.", "MMSE", "RECALL", "0", "", "0", 0, "", "", "", "", "", 1.0, "SCREENING 1", -7, "TREATMENT", "2012-11-28", -9], ["CDISCPILOT01", "QS", "01-704-1388", 2006, "MMITM06", "NAME A PENCIL, AND WATCH (2 POINTS)", "MMSE", "LANGUAGE", "8", "", "8", 8, "", "", "", "", "", 1.0, "SCREENING 1", -7, "TREATMENT", "2012-11-28", -9], ["CDISCPILOT01", "QS", "01-704-1435", 2001, "MMITM01", "WHAT IS THE (YEAR) (SEASON) (DATE) ?", "MMSE", "ORIENTATION", "4", "", "4", 4, "", "", "", "", "", 1.0, "SCREENING 1", -7, "TREATMENT", "2012-11-01", -16], ["CDISCPILOT01", "QS", "01-704-1435", 2002, "MMITM02", "WHERE ARE WE: (STATE) (COUNTRY) (TOWN) ?", "MMSE", "ORIENTATION", "2", "", "2", 2, "", "", "", "", "", 1.0, "SCREENING 1", -7, "TREATMENT", "2012-11-01", -16], ["CDISCPILOT01", "QS", "01-704-1435", 2003, "MMITM03", "NAME 3 OBJECTS: 1 SECOND TO SAY EACH.", "MMSE", "REGISTRATION", "3", "", "3", 3, "", "", "", "", "", 1.0, "SCREENING 1", -7, "TREATMENT", "2012-11-01", -16], ["CDISCPILOT01", "QS", "01-704-1435", 2004, "MMITM04", "SERIAL 7'S. 1 POINT FOR EACH CORRECT.", "MMSE", "ATTENTION AND CALCULATI", "5", "", "5", 5, "", "", "", "", "", 1.0, "SCREENING 1", -7, "TREATMENT", "2012-11-01", -16], ["CDISCPILOT01", "QS", "01-704-1435", 2005, "MMITM05", "ASK FOR THE 3 OBJECTS REPEATED ABOVE.", "MMSE", "RECALL", "1", "", "1", 1, "", "", "", "", "", 1.0, "SCREENING 1", -7, "TREATMENT", "2012-11-01", -16], ["CDISCPILOT01", "QS", "01-704-1435", 2006, "MMITM06", "NAME A PENCIL, AND WATCH (2 POINTS)", "MMSE", "LANGUAGE", "5", "", "5", 5, "", "", "", "", "", 1.0, "SCREENING 1", -7, "TREATMENT", "2012-11-01", -16], ["CDISCPILOT01", "QS", "01-704-1445", 2001, "MMITM01", "WHAT IS THE (YEAR) (SEASON) (DATE) ?", "MMSE", "ORIENTATION", "3", "", "3", 3, "", "", "", "", "", 1.0, "SCREENING 1", -7, "TREATMENT", "2014-05-01", -10], ["CDISCPILOT01", "QS", "01-704-1445", 2002, "MMITM02", "WHERE ARE WE: (STATE) (COUNTRY) (TOWN) ?", "MMSE", "ORIENTATION", "3", "", "3", 3, "", "", "", "", "", 1.0, "SCREENING 1", -7, "TREATMENT", "2014-05-01", -10], ["CDISCPILOT01", "QS", "01-704-1445", 2003, "MMITM03", "NAME 3 OBJECTS: 1 SECOND TO SAY EACH.", "MMSE", "REGISTRATION", "2", "", "2", 2, "", "", "", "", "", 1.0, "SCREENING 1", -7, "TREATMENT", "2014-05-01", -10], ["CDISCPILOT01", "QS", "01-704-1445", 2004, "MMITM04", "SERIAL 7'S. 1 POINT FOR EACH CORRECT.", "MMSE", "ATTENTION AND CALCULATI", "4", "", "4", 4, "", "", "", "", "", 1.0, "SCREENING 1", -7, "TREATMENT", "2014-05-01", -10], ["CDISCPILOT01", "QS", "01-704-1445", 2005, "MMITM05", "ASK FOR THE 3 OBJECTS REPEATED ABOVE.", "MMSE", "RECALL", "3", "", "3", 3, "", "", "", "", "", 1.0, "SCREENING 1", -7, "TREATMENT", "2014-05-01", -10], ["CDISCPILOT01", "QS", "01-704-1445", 2006, "MMITM06", "NAME A PENCIL, AND WATCH (2 POINTS)", "MMSE", "LANGUAGE", "8", "", "8", 8, "", "", "", "", "", 1.0, "SCREENING 1", -7, "TREATMENT", "2014-05-01", -10], ["CDISCPILOT01", "QS", "01-705-1018", 2001, "MMITM01", "WHAT IS THE (YEAR) (SEASON) (DATE) ?", "MMSE", "ORIENTATION", "3", "", "3", 3, "", "", "", "", "", 1.0, "SCREENING 1", -7, "TREATMENT", "2013-06-30", -5], ["CDISCPILOT01", "QS", "01-705-1018", 2002, "MMITM02", "WHERE ARE WE: (STATE) (COUNTRY) (TOWN) ?", "MMSE", "ORIENTATION", "4", "", "4", 4, "", "", "", "", "", 1.0, "SCREENING 1", -7, "TREATMENT", "2013-06-30", -5], ["CDISCPILOT01", "QS", "01-705-1018", 2003, "MMITM03", "NAME 3 OBJECTS: 1 SECOND TO SAY EACH.", "MMSE", "REGISTRATION", "3", "", "3", 3, "", "", "", "", "", 1.0, "SCREENING 1", -7, "TREATMENT", "2013-06-30", -5], ["CDISCPILOT01", "QS", "01-705-1018", 2004, "MMITM04", "SERIAL 7'S. 1 POINT FOR EACH CORRECT.", "MMSE", "ATTENTION AND CALCULATI", "3", "", "3", 3, "", "", "", "", "", 1.0, "SCREENING 1", -7, "TREATMENT", "2013-06-30", -5], ["CDISCPILOT01", "QS", "01-705-1018", 2005, "MMITM05", "ASK FOR THE 3 OBJECTS REPEATED ABOVE.", "MMSE", "RECALL", "0", "", "0", 0, "", "", "", "", "", 1.0, "SCREENING 1", -7, "TREATMENT", "2013-06-30", -5], ["CDISCPILOT01", "QS", "01-705-1018", 2006, "MMITM06", "NAME A PENCIL, AND WATCH (2 POINTS)", "MMSE", "LANGUAGE", "5", "", "5", 5, "", "", "", "", "", 1.0, "SCREENING 1", -7, "TREATMENT", "2013-06-30", -5], ["CDISCPILOT01", "QS", "01-705-1031", 2001, "MMITM01", "WHAT IS THE (YEAR) (SEASON) (DATE) ?", "MMSE", "ORIENTATION", "4", "", "4", 4, "", "", "", "", "", 1.0, "SCREENING 1", -7, "TREATMENT", "2013-11-17", -10], ["CDISCPILOT01", "QS", "01-705-1031", 2002, "MMITM02", "WHERE ARE WE: (STATE) (COUNTRY) (TOWN) ?", "MMSE", "ORIENTATION", "4", "", "4", 4, "", "", "", "", "", 1.0, "SCREENING 1", -7, "TREATMENT", "2013-11-17", -10], ["CDISCPILOT01", "QS", "01-705-1031", 2003, "MMITM03", "NAME 3 OBJECTS: 1 SECOND TO SAY EACH.", "MMSE", "REGISTRATION", "3", "", "3", 3, "", "", "", "", "", 1.0, "SCREENING 1", -7, "TREATMENT", "2013-11-17", -10], ["CDISCPILOT01", "QS", "01-705-1031", 2004, "MMITM04", "SERIAL 7'S. 1 POINT FOR EACH CORRECT.", "MMSE", "ATTENTION AND CALCULATI", "0", "", "0", 0, "", "", "", "", "", 1.0, "SCREENING 1", -7, "TREATMENT", "2013-11-17", -10], ["CDISCPILOT01", "QS", "01-705-1031", 2005, "MMITM05", "ASK FOR THE 3 OBJECTS REPEATED ABOVE.", "MMSE", "RECALL", "3", "", "3", 3, "", "", "", "", "", 1.0, "SCREENING 1", -7, "TREATMENT", "2013-11-17", -10], ["CDISCPILOT01", "QS", "01-705-1031", 2006, "MMITM06", "NAME A PENCIL, AND WATCH (2 POINTS)", "MMSE", "LANGUAGE", "9", "", "9", 9, "", "", "", "", "", 1.0, "SCREENING 1", -7, "TREATMENT", "2013-11-17", -10], ["CDISCPILOT01", "QS", "01-705-1059", 2001, "MMITM01", "WHAT IS THE (YEAR) (SEASON) (DATE) ?", "MMSE", "ORIENTATION", "0", "", "0", 0, "", "", "", "", "", 1.0, "SCREENING 1", -7, "TREATMENT", "2013-08-02", -3], ["CDISCPILOT01", "QS", "01-705-1059", 2002, "MMITM02", "WHERE ARE WE: (STATE) (COUNTRY) (TOWN) ?", "MMSE", "ORIENTATION", "4", "", "4", 4, "", "", "", "", "", 1.0, "SCREENING 1", -7, "TREATMENT", "2013-08-02", -3], ["CDISCPILOT01", "QS", "01-705-1059", 2003, "MMITM03", "NAME 3 OBJECTS: 1 SECOND TO SAY EACH.", "MMSE", "REGISTRATION", "3", "", "3", 3, "", "", "", "", "", 1.0, "SCREENING 1", -7, "TREATMENT", "2013-08-02", -3], ["CDISCPILOT01", "QS", "01-705-1059", 2004, "MMITM04", "SERIAL 7'S. 1 POINT FOR EACH CORRECT.", "MMSE", "ATTENTION AND CALCULATI", "1", "", "1", 1, "", "", "", "", "", 1.0, "SCREENING 1", -7, "TREATMENT", "2013-08-02", -3], ["CDISCPILOT01", "QS", "01-705-1059", 2005, "MMITM05", "ASK FOR THE 3 OBJECTS REPEATED ABOVE.", "MMSE", "RECALL", "0", "", "0", 0, "", "", "", "", "", 1.0, "SCREENING 1", -7, "TREATMENT", "2013-08-02", -3], ["CDISCPILOT01", "QS", "01-705-1059", 2006, "MMITM06", "NAME A PENCIL, AND WATCH (2 POINTS)", "MMSE", "LANGUAGE", "8", "", "8", 8, "", "", "", "", "", 1.0, "SCREENING 1", -7, "TREATMENT", "2013-08-02", -3], ["CDISCPILOT01", "QS", "01-705-1186", 2001, "MMITM01", "WHAT IS THE (YEAR) (SEASON) (DATE) ?", "MMSE", "ORIENTATION", "0", "", "0", 0, "", "", "", "", "", 1.0, "SCREENING 1", -7, "TREATMENT", "2014-01-03", -5], ["CDISCPILOT01", "QS", "01-705-1186", 2002, "MMITM02", "WHERE ARE WE: (STATE) (COUNTRY) (TOWN) ?", "MMSE", "ORIENTATION", "2", "", "2", 2, "", "", "", "", "", 1.0, "SCREENING 1", -7, "TREATMENT", "2014-01-03", -5], ["CDISCPILOT01", "QS", "01-705-1186", 2003, "MMITM03", "NAME 3 OBJECTS: 1 SECOND TO SAY EACH.", "MMSE", "REGISTRATION", "3", "", "3", 3, "", "", "", "", "", 1.0, "SCREENING 1", -7, "TREATMENT", "2014-01-03", -5], ["CDISCPILOT01", "QS", "01-705-1186", 2004, "MMITM04", "SERIAL 7'S. 1 POINT FOR EACH CORRECT.", "MMSE", "ATTENTION AND CALCULATI", "3", "", "3", 3, "", "", "", "", "", 1.0, "SCREENING 1", -7, "TREATMENT", "2014-01-03", -5], ["CDISCPILOT01", "QS", "01-705-1186", 2005, "MMITM05", "ASK FOR THE 3 OBJECTS REPEATED ABOVE.", "MMSE", "RECALL", "0", "", "0", 0, "", "", "", "", "", 1.0, "SCREENING 1", -7, "TREATMENT", "2014-01-03", -5], ["CDISCPILOT01", "QS", "01-705-1186", 2006, "MMITM06", "NAME A PENCIL, AND WATCH (2 POINTS)", "MMSE", "LANGUAGE", "7", "", "7", 7, "", "", "", "", "", 1.0, "SCREENING 1", -7, "TREATMENT", "2014-01-03", -5], ["CDISCPILOT01", "QS", "01-705-1199", 2001, "MMITM01", "WHAT IS THE (YEAR) (SEASON) (DATE) ?", "MMSE", "ORIENTATION", "3", "", "3", 3, "", "", "", "", "", 1.0, "SCREENING 1", -7, "TREATMENT", "2013-09-11", -5], ["CDISCPILOT01", "QS", "01-705-1199", 2002, "MMITM02", "WHERE ARE WE: (STATE) (COUNTRY) (TOWN) ?", "MMSE", "ORIENTATION", "4", "", "4", 4, "", "", "", "", "", 1.0, "SCREENING 1", -7, "TREATMENT", "2013-09-11", -5], ["CDISCPILOT01", "QS", "01-705-1199", 2003, "MMITM03", "NAME 3 OBJECTS: 1 SECOND TO SAY EACH.", "MMSE", "REGISTRATION", "1", "", "1", 1, "", "", "", "", "", 1.0, "SCREENING 1", -7, "TREATMENT", "2013-09-11", -5], ["CDISCPILOT01", "QS", "01-705-1199", 2004, "MMITM04", "SERIAL 7'S. 1 POINT FOR EACH CORRECT.", "MMSE", "ATTENTION AND CALCULATI", "4", "", "4", 4, "", "", "", "", "", 1.0, "SCREENING 1", -7, "TREATMENT", "2013-09-11", -5], ["CDISCPILOT01", "QS", "01-705-1199", 2005, "MMITM05", "ASK FOR THE 3 OBJECTS REPEATED ABOVE.", "MMSE", "RECALL", "0", "", "0", 0, "", "", "", "", "", 1.0, "SCREENING 1", -7, "TREATMENT", "2013-09-11", -5], ["CDISCPILOT01", "QS", "01-705-1199", 2006, "MMITM06", "NAME A PENCIL, AND WATCH (2 POINTS)", "MMSE", "LANGUAGE", "7", "", "7", 7, "", "", "", "", "", 1.0, "SCREENING 1", -7, "TREATMENT", "2013-09-11", -5], ["CDISCPILOT01", "QS", "01-705-1280", 2001, "MMITM01", "WHAT IS THE (YEAR) (SEASON) (DATE) ?", "MMSE", "ORIENTATION", "4", "", "4", 4, "", "", "", "", "", 1.0, "SCREENING 1", -7, "TREATMENT", "2014-01-11", -6], ["CDISCPILOT01", "QS", "01-705-1280", 2002, "MMITM02", "WHERE ARE WE: (STATE) (COUNTRY) (TOWN) ?", "MMSE", "ORIENTATION", "4", "", "4", 4, "", "", "", "", "", 1.0, "SCREENING 1", -7, "TREATMENT", "2014-01-11", -6], ["CDISCPILOT01", "QS", "01-705-1280", 2003, "MMITM03", "NAME 3 OBJECTS: 1 SECOND TO SAY EACH.", "MMSE", "REGISTRATION", "3", "", "3", 3, "", "", "", "", "", 1.0, "SCREENING 1", -7, "TREATMENT", "2014-01-11", -6], ["CDISCPILOT01", "QS", "01-705-1280", 2004, "MMITM04", "SERIAL 7'S. 1 POINT FOR EACH CORRECT.", "MMSE", "ATTENTION AND CALCULATI", "5", "", "5", 5, "", "", "", "", "", 1.0, "SCREENING 1", -7, "TREATMENT", "2014-01-11", -6], ["CDISCPILOT01", "QS", "01-705-1280", 2005, "MMITM05", "ASK FOR THE 3 OBJECTS REPEATED ABOVE.", "MMSE", "RECALL", "1", "", "1", 1, "", "", "", "", "", 1.0, "SCREENING 1", -7, "TREATMENT", "2014-01-11", -6], ["CDISCPILOT01", "QS", "01-705-1280", 2006, "MMITM06", "NAME A PENCIL, AND WATCH (2 POINTS)", "MMSE", "LANGUAGE", "6", "", "6", 6, "", "", "", "", "", 1.0, "SCREENING 1", -7, "TREATMENT", "2014-01-11", -6], ["CDISCPILOT01", "QS", "01-705-1281", 2001, "MMITM01", "WHAT IS THE (YEAR) (SEASON) (DATE) ?", "MMSE", "ORIENTATION", "5", "", "5", 5, "", "", "", "", "", 1.0, "SCREENING 1", -7, "TREATMENT", "2013-11-26", -2], ["CDISCPILOT01", "QS", "01-705-1281", 2002, "MMITM02", "WHERE ARE WE: (STATE) (COUNTRY) (TOWN) ?", "MMSE", "ORIENTATION", "3", "", "3", 3, "", "", "", "", "", 1.0, "SCREENING 1", -7, "TREATMENT", "2013-11-26", -2], ["CDISCPILOT01", "QS", "01-705-1281", 2003, "MMITM03", "NAME 3 OBJECTS: 1 SECOND TO SAY EACH.", "MMSE", "REGISTRATION", "3", "", "3", 3, "", "", "", "", "", 1.0, "SCREENING 1", -7, "TREATMENT", "2013-11-26", -2], ["CDISCPILOT01", "QS", "01-705-1281", 2004, "MMITM04", "SERIAL 7'S. 1 POINT FOR EACH CORRECT.", "MMSE", "ATTENTION AND CALCULATI", "5", "", "5", 5, "", "", "", "", "", 1.0, "SCREENING 1", -7, "TREATMENT", "2013-11-26", -2], ["CDISCPILOT01", "QS", "01-705-1281", 2005, "MMITM05", "ASK FOR THE 3 OBJECTS REPEATED ABOVE.", "MMSE", "RECALL", "1", "", "1", 1, "", "", "", "", "", 1.0, "SCREENING 1", -7, "TREATMENT", "2013-11-26", -2], ["CDISCPILOT01", "QS", "01-705-1281", 2006, "MMITM06", "NAME A PENCIL, AND WATCH (2 POINTS)", "MMSE", "LANGUAGE", "6", "", "6", 6, "", "", "", "", "", 1.0, "SCREENING 1", -7, "TREATMENT", "2013-11-26", -2], ["CDISCPILOT01", "QS", "01-705-1282", 2001, "MMITM01", "WHAT IS THE (YEAR) (SEASON) (DATE) ?", "MMSE", "ORIENTATION", "0", "", "0", 0, "", "", "", "", "", 1.0, "SCREENING 1", -7, "TREATMENT", "2012-12-23", -3], ["CDISCPILOT01", "QS", "01-705-1282", 2002, "MMITM02", "WHERE ARE WE: (STATE) (COUNTRY) (TOWN) ?", "MMSE", "ORIENTATION", "0", "", "0", 0, "", "", "", "", "", 1.0, "SCREENING 1", -7, "TREATMENT", "2012-12-23", -3], ["CDISCPILOT01", "QS", "01-705-1282", 2003, "MMITM03", "NAME 3 OBJECTS: 1 SECOND TO SAY EACH.", "MMSE", "REGISTRATION", "2", "", "2", 2, "", "", "", "", "", 1.0, "SCREENING 1", -7, "TREATMENT", "2012-12-23", -3], ["CDISCPILOT01", "QS", "01-705-1282", 2004, "MMITM04", "SERIAL 7'S. 1 POINT FOR EACH CORRECT.", "MMSE", "ATTENTION AND CALCULATI", "1", "", "1", 1, "", "", "", "", "", 1.0, "SCREENING 1", -7, "TREATMENT", "2012-12-23", -3], ["CDISCPILOT01", "QS", "01-705-1282", 2005, "MMITM05", "ASK FOR THE 3 OBJECTS REPEATED ABOVE.", "MMSE", "RECALL", "0", "", "0", 0, "", "", "", "", "", 1.0, "SCREENING 1", -7, "TREATMENT", "2012-12-23", -3], ["CDISCPILOT01", "QS", "01-705-1282", 2006, "MMITM06", "NAME A PENCIL, AND WATCH (2 POINTS)", "MMSE", "LANGUAGE", "7", "", "7", 7, "", "", "", "", "", 1.0, "SCREENING 1", -7, "TREATMENT", "2012-12-23", -3], ["CDISCPILOT01", "QS", "01-705-1292", 2001, "MMITM01", "WHAT IS THE (YEAR) (SEASON) (DATE) ?", "MMSE", "ORIENTATION", "4", "", "4", 4, "", "", "", "", "", 1.0, "SCREENING 1", -7, "TREATMENT", "2013-10-11", -3], ["CDISCPILOT01", "QS", "01-705-1292", 2002, "MMITM02", "WHERE ARE WE: (STATE) (COUNTRY) (TOWN) ?", "MMSE", "ORIENTATION", "4", "", "4", 4, "", "", "", "", "", 1.0, "SCREENING 1", -7, "TREATMENT", "2013-10-11", -3], ["CDISCPILOT01", "QS", "01-705-1292", 2003, "MMITM03", "NAME 3 OBJECTS: 1 SECOND TO SAY EACH.", "MMSE", "REGISTRATION", "3", "", "3", 3, "", "", "", "", "", 1.0, "SCREENING 1", -7, "TREATMENT", "2013-10-11", -3], ["CDISCPILOT01", "QS", "01-705-1292", 2004, "MMITM04", "SERIAL 7'S. 1 POINT FOR EACH CORRECT.", "MMSE", "ATTENTION AND CALCULATI", "4", "", "4", 4, "", "", "", "", "", 1.0, "SCREENING 1", -7, "TREATMENT", "2013-10-11", -3], ["CDISCPILOT01", "QS", "01-705-1292", 2005, "MMITM05", "ASK FOR THE 3 OBJECTS REPEATED ABOVE.", "MMSE", "RECALL", "0", "", "0", 0, "", "", "", "", "", 1.0, "SCREENING 1", -7, "TREATMENT", "2013-10-11", -3], ["CDISCPILOT01", "QS", "01-705-1292", 2006, "MMITM06", "NAME A PENCIL, AND WATCH (2 POINTS)", "MMSE", "LANGUAGE", "8", "", "8", 8, "", "", "", "", "", 1.0, "SCREENING 1", -7, "TREATMENT", "2013-10-11", -3], ["CDISCPILOT01", "QS", "01-705-1303", 2001, "MMITM01", "WHAT IS THE (YEAR) (SEASON) (DATE) ?", "MMSE", "ORIENTATION", "2", "", "2", 2, "", "", "", "", "", 1.0, "SCREENING 1", -7, "TREATMENT", "2013-12-10", -6], ["CDISCPILOT01", "QS", "01-705-1303", 2002, "MMITM02", "WHERE ARE WE: (STATE) (COUNTRY) (TOWN) ?", "MMSE", "ORIENTATION", "4", "", "4", 4, "", "", "", "", "", 1.0, "SCREENING 1", -7, "TREATMENT", "2013-12-10", -6], ["CDISCPILOT01", "QS", "01-705-1303", 2003, "MMITM03", "NAME 3 OBJECTS: 1 SECOND TO SAY EACH.", "MMSE", "REGISTRATION", "2", "", "2", 2, "", "", "", "", "", 1.0, "SCREENING 1", -7, "TREATMENT", "2013-12-10", -6], ["CDISCPILOT01", "QS", "01-705-1303", 2004, "MMITM04", "SERIAL 7'S. 1 POINT FOR EACH CORRECT.", "MMSE", "ATTENTION AND CALCULATI", "2", "", "2", 2, "", "", "", "", "", 1.0, "SCREENING 1", -7, "TREATMENT", "2013-12-10", -6], ["CDISCPILOT01", "QS", "01-705-1303", 2005, "MMITM05", "ASK FOR THE 3 OBJECTS REPEATED ABOVE.", "MMSE", "RECALL", "0", "", "0", 0, "", "", "", "", "", 1.0, "SCREENING 1", -7, "TREATMENT", "2013-12-10", -6], ["CDISCPILOT01", "QS", "01-705-1303", 2006, "MMITM06", "NAME A PENCIL, AND WATCH (2 POINTS)", "MMSE", "LANGUAGE", "9", "", "9", 9, "", "", "", "", "", 1.0, "SCREENING 1", -7, "TREATMENT", "2013-12-10", -6], ["CDISCPILOT01", "QS", "01-705-1310", 2001, "MMITM01", "WHAT IS THE (YEAR) (SEASON) (DATE) ?", "MMSE", "ORIENTATION", "3", "", "3", 3, "", "", "", "", "", 1.0, "SCREENING 1", -7, "TREATMENT", "2013-10-26", -7], ["CDISCPILOT01", "QS", "01-705-1310", 2002, "MMITM02", "WHERE ARE WE: (STATE) (COUNTRY) (TOWN) ?", "MMSE", "ORIENTATION", "2", "", "2", 2, "", "", "", "", "", 1.0, "SCREENING 1", -7, "TREATMENT", "2013-10-26", -7], ["CDISCPILOT01", "QS", "01-705-1310", 2003, "MMITM03", "NAME 3 OBJECTS: 1 SECOND TO SAY EACH.", "MMSE", "REGISTRATION", "3", "", "3", 3, "", "", "", "", "", 1.0, "SCREENING 1", -7, "TREATMENT", "2013-10-26", -7], ["CDISCPILOT01", "QS", "01-705-1310", 2004, "MMITM04", "SERIAL 7'S. 1 POINT FOR EACH CORRECT.", "MMSE", "ATTENTION AND CALCULATI", "5", "", "5", 5, "", "", "", "", "", 1.0, "SCREENING 1", -7, "TREATMENT", "2013-10-26", -7], ["CDISCPILOT01", "QS", "01-705-1310", 2005, "MMITM05", "ASK FOR THE 3 OBJECTS REPEATED ABOVE.", "MMSE", "RECALL", "0", "", "0", 0, "", "", "", "", "", 1.0, "SCREENING 1", -7, "TREATMENT", "2013-10-26", -7], ["CDISCPILOT01", "QS", "01-705-1310", 2006, "MMITM06", "NAME A PENCIL, AND WATCH (2 POINTS)", "MMSE", "LANGUAGE", "7", "", "7", 7, "", "", "", "", "", 1.0, "SCREENING 1", -7, "TREATMENT", "2013-10-26", -7], ["CDISCPILOT01", "QS", "01-705-1349", 2001, "MMITM01", "WHAT IS THE (YEAR) (SEASON) (DATE) ?", "MMSE", "ORIENTATION", "4", "", "4", 4, "", "", "", "", "", 1.0, "SCREENING 1", -7, "TREATMENT", "2013-02-24", -14], ["CDISCPILOT01", "QS", "01-705-1349", 2002, "MMITM02", "WHERE ARE WE: (STATE) (COUNTRY) (TOWN) ?", "MMSE", "ORIENTATION", "1", "", "1", 1, "", "", "", "", "", 1.0, "SCREENING 1", -7, "TREATMENT", "2013-02-24", -14], ["CDISCPILOT01", "QS", "01-705-1349", 2003, "MMITM03", "NAME 3 OBJECTS: 1 SECOND TO SAY EACH.", "MMSE", "REGISTRATION", "3", "", "3", 3, "", "", "", "", "", 1.0, "SCREENING 1", -7, "TREATMENT", "2013-02-24", -14], ["CDISCPILOT01", "QS", "01-705-1349", 2004, "MMITM04", "SERIAL 7'S. 1 POINT FOR EACH CORRECT.", "MMSE", "ATTENTION AND CALCULATI", "1", "", "1", 1, "", "", "", "", "", 1.0, "SCREENING 1", -7, "TREATMENT", "2013-02-24", -14], ["CDISCPILOT01", "QS", "01-705-1349", 2005, "MMITM05", "ASK FOR THE 3 OBJECTS REPEATED ABOVE.", "MMSE", "RECALL", "1", "", "1", 1, "", "", "", "", "", 1.0, "SCREENING 1", -7, "TREATMENT", "2013-02-24", -14], ["CDISCPILOT01", "QS", "01-705-1349", 2006, "MMITM06", "NAME A PENCIL, AND WATCH (2 POINTS)", "MMSE", "LANGUAGE", "5", "", "5", 5, "", "", "", "", "", 1.0, "SCREENING 1", -7, "TREATMENT", "2013-02-24", -14], ["CDISCPILOT01", "QS", "01-705-1377", 2001, "MMITM01", "WHAT IS THE (YEAR) (SEASON) (DATE) ?", "MMSE", "ORIENTATION", "2", "", "2", 2, "", "", "", "", "", 1.0, "SCREENING 1", -7, "TREATMENT", "2013-12-29", -6], ["CDISCPILOT01", "QS", "01-705-1377", 2002, "MMITM02", "WHERE ARE WE: (STATE) (COUNTRY) (TOWN) ?", "MMSE", "ORIENTATION", "2", "", "2", 2, "", "", "", "", "", 1.0, "SCREENING 1", -7, "TREATMENT", "2013-12-29", -6], ["CDISCPILOT01", "QS", "01-705-1377", 2003, "MMITM03", "NAME 3 OBJECTS: 1 SECOND TO SAY EACH.", "MMSE", "REGISTRATION", "3", "", "3", 3, "", "", "", "", "", 1.0, "SCREENING 1", -7, "TREATMENT", "2013-12-29", -6], ["CDISCPILOT01", "QS", "01-705-1377", 2004, "MMITM04", "SERIAL 7'S. 1 POINT FOR EACH CORRECT.", "MMSE", "ATTENTION AND CALCULATI", "1", "", "1", 1, "", "", "", "", "", 1.0, "SCREENING 1", -7, "TREATMENT", "2013-12-29", -6], ["CDISCPILOT01", "QS", "01-705-1377", 2005, "MMITM05", "ASK FOR THE 3 OBJECTS REPEATED ABOVE.", "MMSE", "RECALL", "0", "", "0", 0, "", "", "", "", "", 1.0, "SCREENING 1", -7, "TREATMENT", "2013-12-29", -6], ["CDISCPILOT01", "QS", "01-705-1377", 2006, "MMITM06", "NAME A PENCIL, AND WATCH (2 POINTS)", "MMSE", "LANGUAGE", "6", "", "6", 6, "", "", "", "", "", 1.0, "SCREENING 1", -7, "TREATMENT", "2013-12-29", -6], ["CDISCPILOT01", "QS", "01-705-1382", 2001, "MMITM01", "WHAT IS THE (YEAR) (SEASON) (DATE) ?", "MMSE", "ORIENTATION", "2", "", "2", 2, "", "", "", "", "", 1.0, "SCREENING 1", -7, "TREATMENT", "2013-05-09", -4], ["CDISCPILOT01", "QS", "01-705-1382", 2002, "MMITM02", "WHERE ARE WE: (STATE) (COUNTRY) (TOWN) ?", "MMSE", "ORIENTATION", "2", "", "2", 2, "", "", "", "", "", 1.0, "SCREENING 1", -7, "TREATMENT", "2013-05-09", -4], ["CDISCPILOT01", "QS", "01-705-1382", 2003, "MMITM03", "NAME 3 OBJECTS: 1 SECOND TO SAY EACH.", "MMSE", "REGISTRATION", "3", "", "3", 3, "", "", "", "", "", 1.0, "SCREENING 1", -7, "TREATMENT", "2013-05-09", -4], ["CDISCPILOT01", "QS", "01-705-1382", 2004, "MMITM04", "SERIAL 7'S. 1 POINT FOR EACH CORRECT.", "MMSE", "ATTENTION AND CALCULATI", "3", "", "3", 3, "", "", "", "", "", 1.0, "SCREENING 1", -7, "TREATMENT", "2013-05-09", -4], ["CDISCPILOT01", "QS", "01-705-1382", 2005, "MMITM05", "ASK FOR THE 3 OBJECTS REPEATED ABOVE.", "MMSE", "RECALL", "0", "", "0", 0, "", "", "", "", "", 1.0, "SCREENING 1", -7, "TREATMENT", "2013-05-09", -4], ["CDISCPILOT01", "QS", "01-705-1382", 2006, "MMITM06", "NAME A PENCIL, AND WATCH (2 POINTS)", "MMSE", "LANGUAGE", "9", "", "9", 9, "", "", "", "", "", 1.0, "SCREENING 1", -7, "TREATMENT", "2013-05-09", -4], ["CDISCPILOT01", "QS", "01-705-1393", 2001, "MMITM01", "WHAT IS THE (YEAR) (SEASON) (DATE) ?", "MMSE", "ORIENTATION", "2", "", "2", 2, "", "", "", "", "", 1.0, "SCREENING 1", -7, "TREATMENT", "2012-09-02", -5], ["CDISCPILOT01", "QS", "01-705-1393", 2002, "MMITM02", "WHERE ARE WE: (STATE) (COUNTRY) (TOWN) ?", "MMSE", "ORIENTATION", "3", "", "3", 3, "", "", "", "", "", 1.0, "SCREENING 1", -7, "TREATMENT", "2012-09-02", -5], ["CDISCPILOT01", "QS", "01-705-1393", 2003, "MMITM03", "NAME 3 OBJECTS: 1 SECOND TO SAY EACH.", "MMSE", "REGISTRATION", "3", "", "3", 3, "", "", "", "", "", 1.0, "SCREENING 1", -7, "TREATMENT", "2012-09-02", -5], ["CDISCPILOT01", "QS", "01-705-1393", 2004, "MMITM04", "SERIAL 7'S. 1 POINT FOR EACH CORRECT.", "MMSE", "ATTENTION AND CALCULATI", "3", "", "3", 3, "", "", "", "", "", 1.0, "SCREENING 1", -7, "TREATMENT", "2012-09-02", -5], ["CDISCPILOT01", "QS", "01-705-1393", 2005, "MMITM05", "ASK FOR THE 3 OBJECTS REPEATED ABOVE.", "MMSE", "RECALL", "0", "", "0", 0, "", "", "", "", "", 1.0, "SCREENING 1", -7, "TREATMENT", "2012-09-02", -5], ["CDISCPILOT01", "QS", "01-705-1393", 2006, "MMITM06", "NAME A PENCIL, AND WATCH (2 POINTS)", "MMSE", "LANGUAGE", "8", "", "8", 8, "", "", "", "", "", 1.0, "SCREENING 1", -7, "TREATMENT", "2012-09-02", -5], ["CDISCPILOT01", "QS", "01-705-1431", 2001, "MMITM01", "WHAT IS THE (YEAR) (SEASON) (DATE) ?", "MMSE", "ORIENTATION", "3", "", "3", 3, "", "", "", "", "", 1.0, "SCREENING 1", -7, "TREATMENT", "2013-06-16", -7], ["CDISCPILOT01", "QS", "01-705-1431", 2002, "MMITM02", "WHERE ARE WE: (STATE) (COUNTRY) (TOWN) ?", "MMSE", "ORIENTATION", "4", "", "4", 4, "", "", "", "", "", 1.0, "SCREENING 1", -7, "TREATMENT", "2013-06-16", -7], ["CDISCPILOT01", "QS", "01-705-1431", 2003, "MMITM03", "NAME 3 OBJECTS: 1 SECOND TO SAY EACH.", "MMSE", "REGISTRATION", "2", "", "2", 2, "", "", "", "", "", 1.0, "SCREENING 1", -7, "TREATMENT", "2013-06-16", -7], ["CDISCPILOT01", "QS", "01-705-1431", 2004, "MMITM04", "SERIAL 7'S. 1 POINT FOR EACH CORRECT.", "MMSE", "ATTENTION AND CALCULATI", "1", "", "1", 1, "", "", "", "", "", 1.0, "SCREENING 1", -7, "TREATMENT", "2013-06-16", -7], ["CDISCPILOT01", "QS", "01-705-1431", 2005, "MMITM05", "ASK FOR THE 3 OBJECTS REPEATED ABOVE.", "MMSE", "RECALL", "2", "", "2", 2, "", "", "", "", "", 1.0, "SCREENING 1", -7, "TREATMENT", "2013-06-16", -7], ["CDISCPILOT01", "QS", "01-705-1431", 2006, "MMITM06", "NAME A PENCIL, AND WATCH (2 POINTS)", "MMSE", "LANGUAGE", "9", "", "9", 9, "", "", "", "", "", 1.0, "SCREENING 1", -7, "TREATMENT", "2013-06-16", -7], ["CDISCPILOT01", "QS", "01-706-1041", 2001, "MMITM01", "WHAT IS THE (YEAR) (SEASON) (DATE) ?", "MMSE", "ORIENTATION", "2", "", "2", 2, "", "", "", "", "", 1.0, "SCREENING 1", -7, "TREATMENT", "2013-12-21", -10], ["CDISCPILOT01", "QS", "01-706-1041", 2002, "MMITM02", "WHERE ARE WE: (STATE) (COUNTRY) (TOWN) ?", "MMSE", "ORIENTATION", "4", "", "4", 4, "", "", "", "", "", 1.0, "SCREENING 1", -7, "TREATMENT", "2013-12-21", -10], ["CDISCPILOT01", "QS", "01-706-1041", 2003, "MMITM03", "NAME 3 OBJECTS: 1 SECOND TO SAY EACH.", "MMSE", "REGISTRATION", "3", "", "3", 3, "", "", "", "", "", 1.0, "SCREENING 1", -7, "TREATMENT", "2013-12-21", -10], ["CDISCPILOT01", "QS", "01-706-1041", 2004, "MMITM04", "SERIAL 7'S. 1 POINT FOR EACH CORRECT.", "MMSE", "ATTENTION AND CALCULATI", "2", "", "2", 2, "", "", "", "", "", 1.0, "SCREENING 1", -7, "TREATMENT", "2013-12-21", -10], ["CDISCPILOT01", "QS", "01-706-1041", 2005, "MMITM05", "ASK FOR THE 3 OBJECTS REPEATED ABOVE.", "MMSE", "RECALL", "1", "", "1", 1, "", "", "", "", "", 1.0, "SCREENING 1", -7, "TREATMENT", "2013-12-21", -10], ["CDISCPILOT01", "QS", "01-706-1041", 2006, "MMITM06", "NAME A PENCIL, AND WATCH (2 POINTS)", "MMSE", "LANGUAGE", "8", "", "8", 8, "", "", "", "", "", 1.0, "SCREENING 1", -7, "TREATMENT", "2013-12-21", -10], ["CDISCPILOT01", "QS", "01-706-1049", 2001, "MMITM01", "WHAT IS THE (YEAR) (SEASON) (DATE) ?", "MMSE", "ORIENTATION", "1", "", "1", 1, "", "", "", "", "", 1.0, "SCREENING 1", -7, "TREATMENT", "2013-04-30", -14], ["CDISCPILOT01", "QS", "01-706-1049", 2002, "MMITM02", "WHERE ARE WE: (STATE) (COUNTRY) (TOWN) ?", "MMSE", "ORIENTATION", "3", "", "3", 3, "", "", "", "", "", 1.0, "SCREENING 1", -7, "TREATMENT", "2013-04-30", -14], ["CDISCPILOT01", "QS", "01-706-1049", 2003, "MMITM03", "NAME 3 OBJECTS: 1 SECOND TO SAY EACH.", "MMSE", "REGISTRATION", "3", "", "3", 3, "", "", "", "", "", 1.0, "SCREENING 1", -7, "TREATMENT", "2013-04-30", -14], ["CDISCPILOT01", "QS", "01-706-1049", 2004, "MMITM04", "SERIAL 7'S. 1 POINT FOR EACH CORRECT.", "MMSE", "ATTENTION AND CALCULATI", "2", "", "2", 2, "", "", "", "", "", 1.0, "SCREENING 1", -7, "TREATMENT", "2013-04-30", -14], ["CDISCPILOT01", "QS", "01-706-1049", 2005, "MMITM05", "ASK FOR THE 3 OBJECTS REPEATED ABOVE.", "MMSE", "RECALL", "0", "", "0", 0, "", "", "", "", "", 1.0, "SCREENING 1", -7, "TREATMENT", "2013-04-30", -14], ["CDISCPILOT01", "QS", "01-706-1049", 2006, "MMITM06", "NAME A PENCIL, AND WATCH (2 POINTS)", "MMSE", "LANGUAGE", "7", "", "7", 7, "", "", "", "", "", 1.0, "SCREENING 1", -7, "TREATMENT", "2013-04-30", -14], ["CDISCPILOT01", "QS", "01-706-1384", 2001, "MMITM01", "WHAT IS THE (YEAR) (SEASON) (DATE) ?", "MMSE", "ORIENTATION", "4", "", "4", 4, "", "", "", "", "", 1.0, "SCREENING 1", -7, "TREATMENT", "2012-08-25", -21], ["CDISCPILOT01", "QS", "01-706-1384", 2002, "MMITM02", "WHERE ARE WE: (STATE) (COUNTRY) (TOWN) ?", "MMSE", "ORIENTATION", "1", "", "1", 1, "", "", "", "", "", 1.0, "SCREENING 1", -7, "TREATMENT", "2012-08-25", -21], ["CDISCPILOT01", "QS", "01-706-1384", 2003, "MMITM03", "NAME 3 OBJECTS: 1 SECOND TO SAY EACH.", "MMSE", "REGISTRATION", "3", "", "3", 3, "", "", "", "", "", 1.0, "SCREENING 1", -7, "TREATMENT", "2012-08-25", -21], ["CDISCPILOT01", "QS", "01-706-1384", 2004, "MMITM04", "SERIAL 7'S. 1 POINT FOR EACH CORRECT.", "MMSE", "ATTENTION AND CALCULATI", "5", "", "5", 5, "", "", "", "", "", 1.0, "SCREENING 1", -7, "TREATMENT", "2012-08-25", -21], ["CDISCPILOT01", "QS", "01-706-1384", 2005, "MMITM05", "ASK FOR THE 3 OBJECTS REPEATED ABOVE.", "MMSE", "RECALL", "0", "", "0", 0, "", "", "", "", "", 1.0, "SCREENING 1", -7, "TREATMENT", "2012-08-25", -21], ["CDISCPILOT01", "QS", "01-706-1384", 2006, "MMITM06", "NAME A PENCIL, AND WATCH (2 POINTS)", "MMSE", "LANGUAGE", "7", "", "7", 7, "", "", "", "", "", 1.0, "SCREENING 1", -7, "TREATMENT", "2012-08-25", -21], ["CDISCPILOT01", "QS", "01-707-1037", 2001, "MMITM01", "WHAT IS THE (YEAR) (SEASON) (DATE) ?", "MMSE", "ORIENTATION", "3", "", "3", 3, "", "", "", "", "", 1.0, "SCREENING 1", -7, "TREATMENT", "2013-12-12", -8], ["CDISCPILOT01", "QS", "01-707-1037", 2002, "MMITM02", "WHERE ARE WE: (STATE) (COUNTRY) (TOWN) ?", "MMSE", "ORIENTATION", "3", "", "3", 3, "", "", "", "", "", 1.0, "SCREENING 1", -7, "TREATMENT", "2013-12-12", -8], ["CDISCPILOT01", "QS", "01-707-1037", 2003, "MMITM03", "NAME 3 OBJECTS: 1 SECOND TO SAY EACH.", "MMSE", "REGISTRATION", "3", "", "3", 3, "", "", "", "", "", 1.0, "SCREENING 1", -7, "TREATMENT", "2013-12-12", -8], ["CDISCPILOT01", "QS", "01-707-1037", 2004, "MMITM04", "SERIAL 7'S. 1 POINT FOR EACH CORRECT.", "MMSE", "ATTENTION AND CALCULATI", "5", "", "5", 5, "", "", "", "", "", 1.0, "SCREENING 1", -7, "TREATMENT", "2013-12-12", -8], ["CDISCPILOT01", "QS", "01-707-1037", 2005, "MMITM05", "ASK FOR THE 3 OBJECTS REPEATED ABOVE.", "MMSE", "RECALL", "1", "", "1", 1, "", "", "", "", "", 1.0, "SCREENING 1", -7, "TREATMENT", "2013-12-12", -8], ["CDISCPILOT01", "QS", "01-707-1037", 2006, "MMITM06", "NAME A PENCIL, AND WATCH (2 POINTS)", "MMSE", "LANGUAGE", "9", "", "9", 9, "", "", "", "", "", 1.0, "SCREENING 1", -7, "TREATMENT", "2013-12-12", -8], ["CDISCPILOT01", "QS", "01-707-1206", 2001, "MMITM01", "WHAT IS THE (YEAR) (SEASON) (DATE) ?", "MMSE", "ORIENTATION", "3", "", "3", 3, "", "", "", "", "", 1.0, "SCREENING 1", -7, "TREATMENT", "2013-10-20", -8], ["CDISCPILOT01", "QS", "01-707-1206", 2002, "MMITM02", "WHERE ARE WE: (STATE) (COUNTRY) (TOWN) ?", "MMSE", "ORIENTATION", "2", "", "2", 2, "", "", "", "", "", 1.0, "SCREENING 1", -7, "TREATMENT", "2013-10-20", -8], ["CDISCPILOT01", "QS", "01-707-1206", 2003, "MMITM03", "NAME 3 OBJECTS: 1 SECOND TO SAY EACH.", "MMSE", "REGISTRATION", "3", "", "3", 3, "", "", "", "", "", 1.0, "SCREENING 1", -7, "TREATMENT", "2013-10-20", -8], ["CDISCPILOT01", "QS", "01-707-1206", 2004, "MMITM04", "SERIAL 7'S. 1 POINT FOR EACH CORRECT.", "MMSE", "ATTENTION AND CALCULATI", "5", "", "5", 5, "", "", "", "", "", 1.0, "SCREENING 1", -7, "TREATMENT", "2013-10-20", -8], ["CDISCPILOT01", "QS", "01-707-1206", 2005, "MMITM05", "ASK FOR THE 3 OBJECTS REPEATED ABOVE.", "MMSE", "RECALL", "0", "", "0", 0, "", "", "", "", "", 1.0, "SCREENING 1", -7, "TREATMENT", "2013-10-20", -8], ["CDISCPILOT01", "QS", "01-707-1206", 2006, "MMITM06", "NAME A PENCIL, AND WATCH (2 POINTS)", "MMSE", "LANGUAGE", "8", "", "8", 8, "", "", "", "", "", 1.0, "SCREENING 1", -7, "TREATMENT", "2013-10-20", -8], ["CDISCPILOT01", "QS", "01-708-1019", 2001, "MMITM01", "WHAT IS THE (YEAR) (SEASON) (DATE) ?", "MMSE", "ORIENTATION", "1", "", "1", 1, "", "", "", "", "", 1.0, "SCREENING 1", -7, "TREATMENT", "2013-12-10", -10], ["CDISCPILOT01", "QS", "01-708-1019", 2002, "MMITM02", "WHERE ARE WE: (STATE) (COUNTRY) (TOWN) ?", "MMSE", "ORIENTATION", "3", "", "3", 3, "", "", "", "", "", 1.0, "SCREENING 1", -7, "TREATMENT", "2013-12-10", -10], ["CDISCPILOT01", "QS", "01-708-1019", 2003, "MMITM03", "NAME 3 OBJECTS: 1 SECOND TO SAY EACH.", "MMSE", "REGISTRATION", "3", "", "3", 3, "", "", "", "", "", 1.0, "SCREENING 1", -7, "TREATMENT", "2013-12-10", -10], ["CDISCPILOT01", "QS", "01-708-1019", 2004, "MMITM04", "SERIAL 7'S. 1 POINT FOR EACH CORRECT.", "MMSE", "ATTENTION AND CALCULATI", "1", "", "1", 1, "", "", "", "", "", 1.0, "SCREENING 1", -7, "TREATMENT", "2013-12-10", -10], ["CDISCPILOT01", "QS", "01-708-1019", 2005, "MMITM05", "ASK FOR THE 3 OBJECTS REPEATED ABOVE.", "MMSE", "RECALL", "1", "", "1", 1, "", "", "", "", "", 1.0, "SCREENING 1", -7, "TREATMENT", "2013-12-10", -10], ["CDISCPILOT01", "QS", "01-708-1019", 2006, "MMITM06", "NAME A PENCIL, AND WATCH (2 POINTS)", "MMSE", "LANGUAGE", "8", "", "8", 8, "", "", "", "", "", 1.0, "SCREENING 1", -7, "TREATMENT", "2013-12-10", -10], ["CDISCPILOT01", "QS", "01-708-1032", 2001, "MMITM01", "WHAT IS THE (YEAR) (SEASON) (DATE) ?", "MMSE", "ORIENTATION", "1", "", "1", 1, "", "", "", "", "", 1.0, "SCREENING 1", -7, "TREATMENT", "2013-02-02", -7], ["CDISCPILOT01", "QS", "01-708-1032", 2002, "MMITM02", "WHERE ARE WE: (STATE) (COUNTRY) (TOWN) ?", "MMSE", "ORIENTATION", "4", "", "4", 4, "", "", "", "", "", 1.0, "SCREENING 1", -7, "TREATMENT", "2013-02-02", -7], ["CDISCPILOT01", "QS", "01-708-1032", 2003, "MMITM03", "NAME 3 OBJECTS: 1 SECOND TO SAY EACH.", "MMSE", "REGISTRATION", "3", "", "3", 3, "", "", "", "", "", 1.0, "SCREENING 1", -7, "TREATMENT", "2013-02-02", -7], ["CDISCPILOT01", "QS", "01-708-1032", 2004, "MMITM04", "SERIAL 7'S. 1 POINT FOR EACH CORRECT.", "MMSE", "ATTENTION AND CALCULATI", "2", "", "2", 2, "", "", "", "", "", 1.0, "SCREENING 1", -7, "TREATMENT", "2013-02-02", -7], ["CDISCPILOT01", "QS", "01-708-1032", 2005, "MMITM05", "ASK FOR THE 3 OBJECTS REPEATED ABOVE.", "MMSE", "RECALL", "0", "", "0", 0, "", "", "", "", "", 1.0, "SCREENING 1", -7, "TREATMENT", "2013-02-02", -7], ["CDISCPILOT01", "QS", "01-708-1032", 2006, "MMITM06", "NAME A PENCIL, AND WATCH (2 POINTS)", "MMSE", "LANGUAGE", "8", "", "8", 8, "", "", "", "", "", 1.0, "SCREENING 1", -7, "TREATMENT", "2013-02-02", -7], ["CDISCPILOT01", "QS", "01-708-1084", 2001, "MMITM01", "WHAT IS THE (YEAR) (SEASON) (DATE) ?", "MMSE", "ORIENTATION", "5", "", "5", 5, "", "", "", "", "", 1.0, "SCREENING 1", -7, "TREATMENT", "2013-05-01", -8], ["CDISCPILOT01", "QS", "01-708-1084", 2002, "MMITM02", "WHERE ARE WE: (STATE) (COUNTRY) (TOWN) ?", "MMSE", "ORIENTATION", "4", "", "4", 4, "", "", "", "", "", 1.0, "SCREENING 1", -7, "TREATMENT", "2013-05-01", -8], ["CDISCPILOT01", "QS", "01-708-1084", 2003, "MMITM03", "NAME 3 OBJECTS: 1 SECOND TO SAY EACH.", "MMSE", "REGISTRATION", "3", "", "3", 3, "", "", "", "", "", 1.0, "SCREENING 1", -7, "TREATMENT", "2013-05-01", -8], ["CDISCPILOT01", "QS", "01-708-1084", 2004, "MMITM04", "SERIAL 7'S. 1 POINT FOR EACH CORRECT.", "MMSE", "ATTENTION AND CALCULATI", "1", "", "1", 1, "", "", "", "", "", 1.0, "SCREENING 1", -7, "TREATMENT", "2013-05-01", -8], ["CDISCPILOT01", "QS", "01-708-1084", 2005, "MMITM05", "ASK FOR THE 3 OBJECTS REPEATED ABOVE.", "MMSE", "RECALL", "2", "", "2", 2, "", "", "", "", "", 1.0, "SCREENING 1", -7, "TREATMENT", "2013-05-01", -8], ["CDISCPILOT01", "QS", "01-708-1084", 2006, "MMITM06", "NAME A PENCIL, AND WATCH (2 POINTS)", "MMSE", "LANGUAGE", "8", "", "8", 8, "", "", "", "", "", 1.0, "SCREENING 1", -7, "TREATMENT", "2013-05-01", -8], ["CDISCPILOT01", "QS", "01-708-1087", 2001, "MMITM01", "WHAT IS THE (YEAR) (SEASON) (DATE) ?", "MMSE", "ORIENTATION", "2", "", "2", 2, "", "", "", "", "", 1.0, "SCREENING 1", -7, "TREATMENT", "2012-10-06", -16], ["CDISCPILOT01", "QS", "01-708-1087", 2002, "MMITM02", "WHERE ARE WE: (STATE) (COUNTRY) (TOWN) ?", "MMSE", "ORIENTATION", "3", "", "3", 3, "", "", "", "", "", 1.0, "SCREENING 1", -7, "TREATMENT", "2012-10-06", -16], ["CDISCPILOT01", "QS", "01-708-1087", 2003, "MMITM03", "NAME 3 OBJECTS: 1 SECOND TO SAY EACH.", "MMSE", "REGISTRATION", "3", "", "3", 3, "", "", "", "", "", 1.0, "SCREENING 1", -7, "TREATMENT", "2012-10-06", -16], ["CDISCPILOT01", "QS", "01-708-1087", 2004, "MMITM04", "SERIAL 7'S. 1 POINT FOR EACH CORRECT.", "MMSE", "ATTENTION AND CALCULATI", "0", "", "0", 0, "", "", "", "", "", 1.0, "SCREENING 1", -7, "TREATMENT", "2012-10-06", -16], ["CDISCPILOT01", "QS", "01-708-1087", 2005, "MMITM05", "ASK FOR THE 3 OBJECTS REPEATED ABOVE.", "MMSE", "RECALL", "2", "", "2", 2, "", "", "", "", "", 1.0, "SCREENING 1", -7, "TREATMENT", "2012-10-06", -16], ["CDISCPILOT01", "QS", "01-708-1087", 2006, "MMITM06", "NAME A PENCIL, AND WATCH (2 POINTS)", "MMSE", "LANGUAGE", "7", "", "7", 7, "", "", "", "", "", 1.0, "SCREENING 1", -7, "TREATMENT", "2012-10-06", -16], ["CDISCPILOT01", "QS", "01-708-1158", 2001, "MMITM01", "WHAT IS THE (YEAR) (SEASON) (DATE) ?", "MMSE", "ORIENTATION", "1", "", "1", 1, "", "", "", "", "", 1.0, "SCREENING 1", -7, "TREATMENT", "2014-02-01", -7], ["CDISCPILOT01", "QS", "01-708-1158", 2002, "MMITM02", "WHERE ARE WE: (STATE) (COUNTRY) (TOWN) ?", "MMSE", "ORIENTATION", "3", "", "3", 3, "", "", "", "", "", 1.0, "SCREENING 1", -7, "TREATMENT", "2014-02-01", -7], ["CDISCPILOT01", "QS", "01-708-1158", 2003, "MMITM03", "NAME 3 OBJECTS: 1 SECOND TO SAY EACH.", "MMSE", "REGISTRATION", "3", "", "3", 3, "", "", "", "", "", 1.0, "SCREENING 1", -7, "TREATMENT", "2014-02-01", -7], ["CDISCPILOT01", "QS", "01-708-1158", 2004, "MMITM04", "SERIAL 7'S. 1 POINT FOR EACH CORRECT.", "MMSE", "ATTENTION AND CALCULATI", "1", "", "1", 1, "", "", "", "", "", 1.0, "SCREENING 1", -7, "TREATMENT", "2014-02-01", -7], ["CDISCPILOT01", "QS", "01-708-1158", 2005, "MMITM05", "ASK FOR THE 3 OBJECTS REPEATED ABOVE.", "MMSE", "RECALL", "0", "", "0", 0, "", "", "", "", "", 1.0, "SCREENING 1", -7, "TREATMENT", "2014-02-01", -7], ["CDISCPILOT01", "QS", "01-708-1158", 2006, "MMITM06", "NAME A PENCIL, AND WATCH (2 POINTS)", "MMSE", "LANGUAGE", "8", "", "8", 8, "", "", "", "", "", 1.0, "SCREENING 1", -7, "TREATMENT", "2014-02-01", -7], ["CDISCPILOT01", "QS", "01-708-1171", 2001, "MMITM01", "WHAT IS THE (YEAR) (SEASON) (DATE) ?", "MMSE", "ORIENTATION", "1", "", "1", 1, "", "", "", "", "", 1.0, "SCREENING 1", -7, "TREATMENT", "2012-11-25", -11], ["CDISCPILOT01", "QS", "01-708-1171", 2002, "MMITM02", "WHERE ARE WE: (STATE) (COUNTRY) (TOWN) ?", "MMSE", "ORIENTATION", "2", "", "2", 2, "", "", "", "", "", 1.0, "SCREENING 1", -7, "TREATMENT", "2012-11-25", -11], ["CDISCPILOT01", "QS", "01-708-1171", 2003, "MMITM03", "NAME 3 OBJECTS: 1 SECOND TO SAY EACH.", "MMSE", "REGISTRATION", "3", "", "3", 3, "", "", "", "", "", 1.0, "SCREENING 1", -7, "TREATMENT", "2012-11-25", -11], ["CDISCPILOT01", "QS", "01-708-1171", 2004, "MMITM04", "SERIAL 7'S. 1 POINT FOR EACH CORRECT.", "MMSE", "ATTENTION AND CALCULATI", "0", "", "0", 0, "", "", "", "", "", 1.0, "SCREENING 1", -7, "TREATMENT", "2012-11-25", -11], ["CDISCPILOT01", "QS", "01-708-1171", 2005, "MMITM05", "ASK FOR THE 3 OBJECTS REPEATED ABOVE.", "MMSE", "RECALL", "0", "", "0", 0, "", "", "", "", "", 1.0, "SCREENING 1", -7, "TREATMENT", "2012-11-25", -11], ["CDISCPILOT01", "QS", "01-708-1171", 2006, "MMITM06", "NAME A PENCIL, AND WATCH (2 POINTS)", "MMSE", "LANGUAGE", "7", "", "7", 7, "", "", "", "", "", 1.0, "SCREENING 1", -7, "TREATMENT", "2012-11-25", -11], ["CDISCPILOT01", "QS", "01-708-1178", 2001, "MMITM01", "WHAT IS THE (YEAR) (SEASON) (DATE) ?", "MMSE", "ORIENTATION", "0", "", "0", 0, "", "", "", "", "", 1.0, "SCREENING 1", -7, "TREATMENT", "2013-12-13", -16], ["CDISCPILOT01", "QS", "01-708-1178", 2002, "MMITM02", "WHERE ARE WE: (STATE) (COUNTRY) (TOWN) ?", "MMSE", "ORIENTATION", "2", "", "2", 2, "", "", "", "", "", 1.0, "SCREENING 1", -7, "TREATMENT", "2013-12-13", -16], ["CDISCPILOT01", "QS", "01-708-1178", 2003, "MMITM03", "NAME 3 OBJECTS: 1 SECOND TO SAY EACH.", "MMSE", "REGISTRATION", "3", "", "3", 3, "", "", "", "", "", 1.0, "SCREENING 1", -7, "TREATMENT", "2013-12-13", -16], ["CDISCPILOT01", "QS", "01-708-1178", 2004, "MMITM04", "SERIAL 7'S. 1 POINT FOR EACH CORRECT.", "MMSE", "ATTENTION AND CALCULATI", "0", "", "0", 0, "", "", "", "", "", 1.0, "SCREENING 1", -7, "TREATMENT", "2013-12-13", -16], ["CDISCPILOT01", "QS", "01-708-1178", 2005, "MMITM05", "ASK FOR THE 3 OBJECTS REPEATED ABOVE.", "MMSE", "RECALL", "0", "", "0", 0, "", "", "", "", "", 1.0, "SCREENING 1", -7, "TREATMENT", "2013-12-13", -16], ["CDISCPILOT01", "QS", "01-708-1178", 2006, "MMITM06", "NAME A PENCIL, AND WATCH (2 POINTS)", "MMSE", "LANGUAGE", "5", "", "5", 5, "", "", "", "", "", 1.0, "SCREENING 1", -7, "TREATMENT", "2013-12-13", -16], ["CDISCPILOT01", "QS", "01-708-1213", 2001, "MMITM01", "WHAT IS THE (YEAR) (SEASON) (DATE) ?", "MMSE", "ORIENTATION", "1", "", "1", 1, "", "", "", "", "", 1.0, "SCREENING 1", -7, "TREATMENT", "2013-02-01", -8], ["CDISCPILOT01", "QS", "01-708-1213", 2002, "MMITM02", "WHERE ARE WE: (STATE) (COUNTRY) (TOWN) ?", "MMSE", "ORIENTATION", "1", "", "1", 1, "", "", "", "", "", 1.0, "SCREENING 1", -7, "TREATMENT", "2013-02-01", -8], ["CDISCPILOT01", "QS", "01-708-1213", 2003, "MMITM03", "NAME 3 OBJECTS: 1 SECOND TO SAY EACH.", "MMSE", "REGISTRATION", "3", "", "3", 3, "", "", "", "", "", 1.0, "SCREENING 1", -7, "TREATMENT", "2013-02-01", -8], ["CDISCPILOT01", "QS", "01-708-1213", 2004, "MMITM04", "SERIAL 7'S. 1 POINT FOR EACH CORRECT.", "MMSE", "ATTENTION AND CALCULATI", "1", "", "1", 1, "", "", "", "", "", 1.0, "SCREENING 1", -7, "TREATMENT", "2013-02-01", -8], ["CDISCPILOT01", "QS", "01-708-1213", 2005, "MMITM05", "ASK FOR THE 3 OBJECTS REPEATED ABOVE.", "MMSE", "RECALL", "1", "", "1", 1, "", "", "", "", "", 1.0, "SCREENING 1", -7, "TREATMENT", "2013-02-01", -8], ["CDISCPILOT01", "QS", "01-708-1213", 2006, "MMITM06", "NAME A PENCIL, AND WATCH (2 POINTS)", "MMSE", "LANGUAGE", "7", "", "7", 7, "", "", "", "", "", 1.0, "SCREENING 1", -7, "TREATMENT", "2013-02-01", -8], ["CDISCPILOT01", "QS", "01-708-1216", 2001, "MMITM01", "WHAT IS THE (YEAR) (SEASON) (DATE) ?", "MMSE", "ORIENTATION", "1", "", "1", 1, "", "", "", "", "", 1.0, "SCREENING 1", -7, "TREATMENT", "2012-10-14", -10], ["CDISCPILOT01", "QS", "01-708-1216", 2002, "MMITM02", "WHERE ARE WE: (STATE) (COUNTRY) (TOWN) ?", "MMSE", "ORIENTATION", "2", "", "2", 2, "", "", "", "", "", 1.0, "SCREENING 1", -7, "TREATMENT", "2012-10-14", -10], ["CDISCPILOT01", "QS", "01-708-1216", 2003, "MMITM03", "NAME 3 OBJECTS: 1 SECOND TO SAY EACH.", "MMSE", "REGISTRATION", "3", "", "3", 3, "", "", "", "", "", 1.0, "SCREENING 1", -7, "TREATMENT", "2012-10-14", -10], ["CDISCPILOT01", "QS", "01-708-1216", 2004, "MMITM04", "SERIAL 7'S. 1 POINT FOR EACH CORRECT.", "MMSE", "ATTENTION AND CALCULATI", "4", "", "4", 4, "", "", "", "", "", 1.0, "SCREENING 1", -7, "TREATMENT", "2012-10-14", -10], ["CDISCPILOT01", "QS", "01-708-1216", 2005, "MMITM05", "ASK FOR THE 3 OBJECTS REPEATED ABOVE.", "MMSE", "RECALL", "0", "", "0", 0, "", "", "", "", "", 1.0, "SCREENING 1", -7, "TREATMENT", "2012-10-14", -10], ["CDISCPILOT01", "QS", "01-708-1216", 2006, "MMITM06", "NAME A PENCIL, AND WATCH (2 POINTS)", "MMSE", "LANGUAGE", "7", "", "7", 7, "", "", "", "", "", 1.0, "SCREENING 1", -7, "TREATMENT", "2012-10-14", -10], ["CDISCPILOT01", "QS", "01-708-1236", 2001, "MMITM01", "WHAT IS THE (YEAR) (SEASON) (DATE) ?", "MMSE", "ORIENTATION", "2", "", "2", 2, "", "", "", "", "", 1.0, "SCREENING 1", -7, "TREATMENT", "2013-09-08", -13], ["CDISCPILOT01", "QS", "01-708-1236", 2002, "MMITM02", "WHERE ARE WE: (STATE) (COUNTRY) (TOWN) ?", "MMSE", "ORIENTATION", "3", "", "3", 3, "", "", "", "", "", 1.0, "SCREENING 1", -7, "TREATMENT", "2013-09-08", -13], ["CDISCPILOT01", "QS", "01-708-1236", 2003, "MMITM03", "NAME 3 OBJECTS: 1 SECOND TO SAY EACH.", "MMSE", "REGISTRATION", "3", "", "3", 3, "", "", "", "", "", 1.0, "SCREENING 1", -7, "TREATMENT", "2013-09-08", -13], ["CDISCPILOT01", "QS", "01-708-1236", 2004, "MMITM04", "SERIAL 7'S. 1 POINT FOR EACH CORRECT.", "MMSE", "ATTENTION AND CALCULATI", "3", "", "3", 3, "", "", "", "", "", 1.0, "SCREENING 1", -7, "TREATMENT", "2013-09-08", -13], ["CDISCPILOT01", "QS", "01-708-1236", 2005, "MMITM05", "ASK FOR THE 3 OBJECTS REPEATED ABOVE.", "MMSE", "RECALL", "2", "", "2", 2, "", "", "", "", "", 1.0, "SCREENING 1", -7, "TREATMENT", "2013-09-08", -13], ["CDISCPILOT01", "QS", "01-708-1236", 2006, "MMITM06", "NAME A PENCIL, AND WATCH (2 POINTS)", "MMSE", "LANGUAGE", "9", "", "9", 9, "", "", "", "", "", 1.0, "SCREENING 1", -7, "TREATMENT", "2013-09-08", -13], ["CDISCPILOT01", "QS", "01-708-1253", 2001, "MMITM01", "WHAT IS THE (YEAR) (SEASON) (DATE) ?", "MMSE", "ORIENTATION", "1", "", "1", 1, "", "", "", "", "", 1.0, "SCREENING 1", -7, "TREATMENT", "2013-04-26", -11], ["CDISCPILOT01", "QS", "01-708-1253", 2002, "MMITM02", "WHERE ARE WE: (STATE) (COUNTRY) (TOWN) ?", "MMSE", "ORIENTATION", "4", "", "4", 4, "", "", "", "", "", 1.0, "SCREENING 1", -7, "TREATMENT", "2013-04-26", -11], ["CDISCPILOT01", "QS", "01-708-1253", 2003, "MMITM03", "NAME 3 OBJECTS: 1 SECOND TO SAY EACH.", "MMSE", "REGISTRATION", "2", "", "2", 2, "", "", "", "", "", 1.0, "SCREENING 1", -7, "TREATMENT", "2013-04-26", -11], ["CDISCPILOT01", "QS", "01-708-1253", 2004, "MMITM04", "SERIAL 7'S. 1 POINT FOR EACH CORRECT.", "MMSE", "ATTENTION AND CALCULATI", "0", "", "0", 0, "", "", "", "", "", 1.0, "SCREENING 1", -7, "TREATMENT", "2013-04-26", -11], ["CDISCPILOT01", "QS", "01-708-1253", 2005, "MMITM05", "ASK FOR THE 3 OBJECTS REPEATED ABOVE.", "MMSE", "RECALL", "0", "", "0", 0, "", "", "", "", "", 1.0, "SCREENING 1", -7, "TREATMENT", "2013-04-26", -11], ["CDISCPILOT01", "QS", "01-708-1253", 2006, "MMITM06", "NAME A PENCIL, AND WATCH (2 POINTS)", "MMSE", "LANGUAGE", "5", "", "5", 5, "", "", "", "", "", 1.0, "SCREENING 1", -7, "TREATMENT", "2013-04-26", -11], ["CDISCPILOT01", "QS", "01-708-1272", 2001, "MMITM01", "WHAT IS THE (YEAR) (SEASON) (DATE) ?", "MMSE", "ORIENTATION", "1", "", "1", 1, "", "", "", "", "", 1.0, "SCREENING 1", -7, "TREATMENT", "2013-01-22", -15], ["CDISCPILOT01", "QS", "01-708-1272", 2002, "MMITM02", "WHERE ARE WE: (STATE) (COUNTRY) (TOWN) ?", "MMSE", "ORIENTATION", "3", "", "3", 3, "", "", "", "", "", 1.0, "SCREENING 1", -7, "TREATMENT", "2013-01-22", -15], ["CDISCPILOT01", "QS", "01-708-1272", 2003, "MMITM03", "NAME 3 OBJECTS: 1 SECOND TO SAY EACH.", "MMSE", "REGISTRATION", "3", "", "3", 3, "", "", "", "", "", 1.0, "SCREENING 1", -7, "TREATMENT", "2013-01-22", -15], ["CDISCPILOT01", "QS", "01-708-1272", 2004, "MMITM04", "SERIAL 7'S. 1 POINT FOR EACH CORRECT.", "MMSE", "ATTENTION AND CALCULATI", "2", "", "2", 2, "", "", "", "", "", 1.0, "SCREENING 1", -7, "TREATMENT", "2013-01-22", -15], ["CDISCPILOT01", "QS", "01-708-1272", 2005, "MMITM05", "ASK FOR THE 3 OBJECTS REPEATED ABOVE.", "MMSE", "RECALL", "0", "", "0", 0, "", "", "", "", "", 1.0, "SCREENING 1", -7, "TREATMENT", "2013-01-22", -15], ["CDISCPILOT01", "QS", "01-708-1272", 2006, "MMITM06", "NAME A PENCIL, AND WATCH (2 POINTS)", "MMSE", "LANGUAGE", "6", "", "6", 6, "", "", "", "", "", 1.0, "SCREENING 1", -7, "TREATMENT", "2013-01-22", -15], ["CDISCPILOT01", "QS", "01-708-1286", 2001, "MMITM01", "WHAT IS THE (YEAR) (SEASON) (DATE) ?", "MMSE", "ORIENTATION", "0", "", "0", 0, "", "", "", "", "", 1.0, "SCREENING 1", -7, "TREATMENT", "2013-08-25", -16], ["CDISCPILOT01", "QS", "01-708-1286", 2002, "MMITM02", "WHERE ARE WE: (STATE) (COUNTRY) (TOWN) ?", "MMSE", "ORIENTATION", "0", "", "0", 0, "", "", "", "", "", 1.0, "SCREENING 1", -7, "TREATMENT", "2013-08-25", -16], ["CDISCPILOT01", "QS", "01-708-1286", 2003, "MMITM03", "NAME 3 OBJECTS: 1 SECOND TO SAY EACH.", "MMSE", "REGISTRATION", "3", "", "3", 3, "", "", "", "", "", 1.0, "SCREENING 1", -7, "TREATMENT", "2013-08-25", -16], ["CDISCPILOT01", "QS", "01-708-1286", 2004, "MMITM04", "SERIAL 7'S. 1 POINT FOR EACH CORRECT.", "MMSE", "ATTENTION AND CALCULATI", "0", "", "0", 0, "", "", "", "", "", 1.0, "SCREENING 1", -7, "TREATMENT", "2013-08-25", -16], ["CDISCPILOT01", "QS", "01-708-1286", 2005, "MMITM05", "ASK FOR THE 3 OBJECTS REPEATED ABOVE.", "MMSE", "RECALL", "0", "", "0", 0, "", "", "", "", "", 1.0, "SCREENING 1", -7, "TREATMENT", "2013-08-25", -16], ["CDISCPILOT01", "QS", "01-708-1286", 2006, "MMITM06", "NAME A PENCIL, AND WATCH (2 POINTS)", "MMSE", "LANGUAGE", "7", "", "7", 7, "", "", "", "", "", 1.0, "SCREENING 1", -7, "TREATMENT", "2013-08-25", -16], ["CDISCPILOT01", "QS", "01-708-1296", 2001, "MMITM01", "WHAT IS THE (YEAR) (SEASON) (DATE) ?", "MMSE", "ORIENTATION", "2", "", "2", 2, "", "", "", "", "", 1.0, "SCREENING 1", -7, "TREATMENT", "2013-06-07", -7], ["CDISCPILOT01", "QS", "01-708-1296", 2002, "MMITM02", "WHERE ARE WE: (STATE) (COUNTRY) (TOWN) ?", "MMSE", "ORIENTATION", "4", "", "4", 4, "", "", "", "", "", 1.0, "SCREENING 1", -7, "TREATMENT", "2013-06-07", -7], ["CDISCPILOT01", "QS", "01-708-1296", 2003, "MMITM03", "NAME 3 OBJECTS: 1 SECOND TO SAY EACH.", "MMSE", "REGISTRATION", "3", "", "3", 3, "", "", "", "", "", 1.0, "SCREENING 1", -7, "TREATMENT", "2013-06-07", -7], ["CDISCPILOT01", "QS", "01-708-1296", 2004, "MMITM04", "SERIAL 7'S. 1 POINT FOR EACH CORRECT.", "MMSE", "ATTENTION AND CALCULATI", "1", "", "1", 1, "", "", "", "", "", 1.0, "SCREENING 1", -7, "TREATMENT", "2013-06-07", -7], ["CDISCPILOT01", "QS", "01-708-1296", 2005, "MMITM05", "ASK FOR THE 3 OBJECTS REPEATED ABOVE.", "MMSE", "RECALL", "0", "", "0", 0, "", "", "", "", "", 1.0, "SCREENING 1", -7, "TREATMENT", "2013-06-07", -7], ["CDISCPILOT01", "QS", "01-708-1296", 2006, "MMITM06", "NAME A PENCIL, AND WATCH (2 POINTS)", "MMSE", "LANGUAGE", "6", "", "6", 6, "", "", "", "", "", 1.0, "SCREENING 1", -7, "TREATMENT", "2013-06-07", -7], ["CDISCPILOT01", "QS", "01-708-1297", 2001, "MMITM01", "WHAT IS THE (YEAR) (SEASON) (DATE) ?", "MMSE", "ORIENTATION", "2", "", "2", 2, "", "", "", "", "", 1.0, "SCREENING 1", -7, "TREATMENT", "2013-01-15", -10], ["CDISCPILOT01", "QS", "01-708-1297", 2002, "MMITM02", "WHERE ARE WE: (STATE) (COUNTRY) (TOWN) ?", "MMSE", "ORIENTATION", "3", "", "3", 3, "", "", "", "", "", 1.0, "SCREENING 1", -7, "TREATMENT", "2013-01-15", -10], ["CDISCPILOT01", "QS", "01-708-1297", 2003, "MMITM03", "NAME 3 OBJECTS: 1 SECOND TO SAY EACH.", "MMSE", "REGISTRATION", "3", "", "3", 3, "", "", "", "", "", 1.0, "SCREENING 1", -7, "TREATMENT", "2013-01-15", -10], ["CDISCPILOT01", "QS", "01-708-1297", 2004, "MMITM04", "SERIAL 7'S. 1 POINT FOR EACH CORRECT.", "MMSE", "ATTENTION AND CALCULATI", "5", "", "5", 5, "", "", "", "", "", 1.0, "SCREENING 1", -7, "TREATMENT", "2013-01-15", -10], ["CDISCPILOT01", "QS", "01-708-1297", 2005, "MMITM05", "ASK FOR THE 3 OBJECTS REPEATED ABOVE.", "MMSE", "RECALL", "2", "", "2", 2, "", "", "", "", "", 1.0, "SCREENING 1", -7, "TREATMENT", "2013-01-15", -10], ["CDISCPILOT01", "QS", "01-708-1297", 2006, "MMITM06", "NAME A PENCIL, AND WATCH (2 POINTS)", "MMSE", "LANGUAGE", "8", "", "8", 8, "", "", "", "", "", 1.0, "SCREENING 1", -7, "TREATMENT", "2013-01-15", -10], ["CDISCPILOT01", "QS", "01-708-1316", 2001, "MMITM01", "WHAT IS THE (YEAR) (SEASON) (DATE) ?", "MMSE", "ORIENTATION", "4", "", "4", 4, "", "", "", "", "", 1.0, "SCREENING 1", -7, "TREATMENT", "2013-08-15", -8], ["CDISCPILOT01", "QS", "01-708-1316", 2002, "MMITM02", "WHERE ARE WE: (STATE) (COUNTRY) (TOWN) ?", "MMSE", "ORIENTATION", "2", "", "2", 2, "", "", "", "", "", 1.0, "SCREENING 1", -7, "TREATMENT", "2013-08-15", -8], ["CDISCPILOT01", "QS", "01-708-1316", 2003, "MMITM03", "NAME 3 OBJECTS: 1 SECOND TO SAY EACH.", "MMSE", "REGISTRATION", "3", "", "3", 3, "", "", "", "", "", 1.0, "SCREENING 1", -7, "TREATMENT", "2013-08-15", -8], ["CDISCPILOT01", "QS", "01-708-1316", 2004, "MMITM04", "SERIAL 7'S. 1 POINT FOR EACH CORRECT.", "MMSE", "ATTENTION AND CALCULATI", "4", "", "4", 4, "", "", "", "", "", 1.0, "SCREENING 1", -7, "TREATMENT", "2013-08-15", -8], ["CDISCPILOT01", "QS", "01-708-1316", 2005, "MMITM05", "ASK FOR THE 3 OBJECTS REPEATED ABOVE.", "MMSE", "RECALL", "0", "", "0", 0, "", "", "", "", "", 1.0, "SCREENING 1", -7, "TREATMENT", "2013-08-15", -8], ["CDISCPILOT01", "QS", "01-708-1316", 2006, "MMITM06", "NAME A PENCIL, AND WATCH (2 POINTS)", "MMSE", "LANGUAGE", "9", "", "9", 9, "", "", "", "", "", 1.0, "SCREENING 1", -7, "TREATMENT", "2013-08-15", -8], ["CDISCPILOT01", "QS", "01-708-1336", 2001, "MMITM01", "WHAT IS THE (YEAR) (SEASON) (DATE) ?", "MMSE", "ORIENTATION", "1", "", "1", 1, "", "", "", "", "", 1.0, "SCREENING 1", -7, "TREATMENT", "2012-11-21", -16], ["CDISCPILOT01", "QS", "01-708-1336", 2002, "MMITM02", "WHERE ARE WE: (STATE) (COUNTRY) (TOWN) ?", "MMSE", "ORIENTATION", "4", "", "4", 4, "", "", "", "", "", 1.0, "SCREENING 1", -7, "TREATMENT", "2012-11-21", -16], ["CDISCPILOT01", "QS", "01-708-1336", 2003, "MMITM03", "NAME 3 OBJECTS: 1 SECOND TO SAY EACH.", "MMSE", "REGISTRATION", "3", "", "3", 3, "", "", "", "", "", 1.0, "SCREENING 1", -7, "TREATMENT", "2012-11-21", -16], ["CDISCPILOT01", "QS", "01-708-1336", 2004, "MMITM04", "SERIAL 7'S. 1 POINT FOR EACH CORRECT.", "MMSE", "ATTENTION AND CALCULATI", "0", "", "0", 0, "", "", "", "", "", 1.0, "SCREENING 1", -7, "TREATMENT", "2012-11-21", -16], ["CDISCPILOT01", "QS", "01-708-1336", 2005, "MMITM05", "ASK FOR THE 3 OBJECTS REPEATED ABOVE.", "MMSE", "RECALL", "0", "", "0", 0, "", "", "", "", "", 1.0, "SCREENING 1", -7, "TREATMENT", "2012-11-21", -16], ["CDISCPILOT01", "QS", "01-708-1336", 2006, "MMITM06", "NAME A PENCIL, AND WATCH (2 POINTS)", "MMSE", "LANGUAGE", "7", "", "7", 7, "", "", "", "", "", 1.0, "SCREENING 1", -7, "TREATMENT", "2012-11-21", -16], ["CDISCPILOT01", "QS", "01-708-1342", 2001, "MMITM01", "WHAT IS THE (YEAR) (SEASON) (DATE) ?", "MMSE", "ORIENTATION", "3", "", "3", 3, "", "", "", "", "", 1.0, "SCREENING 1", -7, "TREATMENT", "2012-12-21", -8], ["CDISCPILOT01", "QS", "01-708-1342", 2002, "MMITM02", "WHERE ARE WE: (STATE) (COUNTRY) (TOWN) ?", "MMSE", "ORIENTATION", "4", "", "4", 4, "", "", "", "", "", 1.0, "SCREENING 1", -7, "TREATMENT", "2012-12-21", -8], ["CDISCPILOT01", "QS", "01-708-1342", 2003, "MMITM03", "NAME 3 OBJECTS: 1 SECOND TO SAY EACH.", "MMSE", "REGISTRATION", "3", "", "3", 3, "", "", "", "", "", 1.0, "SCREENING 1", -7, "TREATMENT", "2012-12-21", -8], ["CDISCPILOT01", "QS", "01-708-1342", 2004, "MMITM04", "SERIAL 7'S. 1 POINT FOR EACH CORRECT.", "MMSE", "ATTENTION AND CALCULATI", "1", "", "1", 1, "", "", "", "", "", 1.0, "SCREENING 1", -7, "TREATMENT", "2012-12-21", -8], ["CDISCPILOT01", "QS", "01-708-1342", 2005, "MMITM05", "ASK FOR THE 3 OBJECTS REPEATED ABOVE.", "MMSE", "RECALL", "0", "", "0", 0, "", "", "", "", "", 1.0, "SCREENING 1", -7, "TREATMENT", "2012-12-21", -8], ["CDISCPILOT01", "QS", "01-708-1342", 2006, "MMITM06", "NAME A PENCIL, AND WATCH (2 POINTS)", "MMSE", "LANGUAGE", "7", "", "7", 7, "", "", "", "", "", 1.0, "SCREENING 1", -7, "TREATMENT", "2012-12-21", -8], ["CDISCPILOT01", "QS", "01-708-1347", 2001, "MMITM01", "WHAT IS THE (YEAR) (SEASON) (DATE) ?", "MMSE", "ORIENTATION", "5", "", "5", 5, "", "", "", "", "", 1.0, "SCREENING 1", -7, "TREATMENT", "2013-04-11", -9], ["CDISCPILOT01", "QS", "01-708-1347", 2002, "MMITM02", "WHERE ARE WE: (STATE) (COUNTRY) (TOWN) ?", "MMSE", "ORIENTATION", "5", "", "5", 5, "", "", "", "", "", 1.0, "SCREENING 1", -7, "TREATMENT", "2013-04-11", -9], ["CDISCPILOT01", "QS", "01-708-1347", 2003, "MMITM03", "NAME 3 OBJECTS: 1 SECOND TO SAY EACH.", "MMSE", "REGISTRATION", "3", "", "3", 3, "", "", "", "", "", 1.0, "SCREENING 1", -7, "TREATMENT", "2013-04-11", -9], ["CDISCPILOT01", "QS", "01-708-1347", 2004, "MMITM04", "SERIAL 7'S. 1 POINT FOR EACH CORRECT.", "MMSE", "ATTENTION AND CALCULATI", "1", "", "1", 1, "", "", "", "", "", 1.0, "SCREENING 1", -7, "TREATMENT", "2013-04-11", -9], ["CDISCPILOT01", "QS", "01-708-1347", 2005, "MMITM05", "ASK FOR THE 3 OBJECTS REPEATED ABOVE.", "MMSE", "RECALL", "0", "", "0", 0, "", "", "", "", "", 1.0, "SCREENING 1", -7, "TREATMENT", "2013-04-11", -9], ["CDISCPILOT01", "QS", "01-708-1347", 2006, "MMITM06", "NAME A PENCIL, AND WATCH (2 POINTS)", "MMSE", "LANGUAGE", "8", "", "8", 8, "", "", "", "", "", 1.0, "SCREENING 1", -7, "TREATMENT", "2013-04-11", -9], ["CDISCPILOT01", "QS", "01-708-1348", 2001, "MMITM01", "WHAT IS THE (YEAR) (SEASON) (DATE) ?", "MMSE", "ORIENTATION", "1", "", "1", 1, "", "", "", "", "", 1.0, "SCREENING 1", -7, "TREATMENT", "2013-07-28", -8], ["CDISCPILOT01", "QS", "01-708-1348", 2002, "MMITM02", "WHERE ARE WE: (STATE) (COUNTRY) (TOWN) ?", "MMSE", "ORIENTATION", "1", "", "1", 1, "", "", "", "", "", 1.0, "SCREENING 1", -7, "TREATMENT", "2013-07-28", -8], ["CDISCPILOT01", "QS", "01-708-1348", 2003, "MMITM03", "NAME 3 OBJECTS: 1 SECOND TO SAY EACH.", "MMSE", "REGISTRATION", "3", "", "3", 3, "", "", "", "", "", 1.0, "SCREENING 1", -7, "TREATMENT", "2013-07-28", -8], ["CDISCPILOT01", "QS", "01-708-1348", 2004, "MMITM04", "SERIAL 7'S. 1 POINT FOR EACH CORRECT.", "MMSE", "ATTENTION AND CALCULATI", "1", "", "1", 1, "", "", "", "", "", 1.0, "SCREENING 1", -7, "TREATMENT", "2013-07-28", -8], ["CDISCPILOT01", "QS", "01-708-1348", 2005, "MMITM05", "ASK FOR THE 3 OBJECTS REPEATED ABOVE.", "MMSE", "RECALL", "0", "", "0", 0, "", "", "", "", "", 1.0, "SCREENING 1", -7, "TREATMENT", "2013-07-28", -8], ["CDISCPILOT01", "QS", "01-708-1348", 2006, "MMITM06", "NAME A PENCIL, AND WATCH (2 POINTS)", "MMSE", "LANGUAGE", "7", "", "7", 7, "", "", "", "", "", 1.0, "SCREENING 1", -7, "TREATMENT", "2013-07-28", -8], ["CDISCPILOT01", "QS", "01-708-1353", 2001, "MMITM01", "WHAT IS THE (YEAR) (SEASON) (DATE) ?", "MMSE", "ORIENTATION", "1", "", "1", 1, "", "", "", "", "", 1.0, "SCREENING 1", -7, "TREATMENT", "2013-06-17", -17], ["CDISCPILOT01", "QS", "01-708-1353", 2002, "MMITM02", "WHERE ARE WE: (STATE) (COUNTRY) (TOWN) ?", "MMSE", "ORIENTATION", "2", "", "2", 2, "", "", "", "", "", 1.0, "SCREENING 1", -7, "TREATMENT", "2013-06-17", -17], ["CDISCPILOT01", "QS", "01-708-1353", 2003, "MMITM03", "NAME 3 OBJECTS: 1 SECOND TO SAY EACH.", "MMSE", "REGISTRATION", "3", "", "3", 3, "", "", "", "", "", 1.0, "SCREENING 1", -7, "TREATMENT", "2013-06-17", -17], ["CDISCPILOT01", "QS", "01-708-1353", 2004, "MMITM04", "SERIAL 7'S. 1 POINT FOR EACH CORRECT.", "MMSE", "ATTENTION AND CALCULATI", "2", "", "2", 2, "", "", "", "", "", 1.0, "SCREENING 1", -7, "TREATMENT", "2013-06-17", -17], ["CDISCPILOT01", "QS", "01-708-1353", 2005, "MMITM05", "ASK FOR THE 3 OBJECTS REPEATED ABOVE.", "MMSE", "RECALL", "0", "", "0", 0, "", "", "", "", "", 1.0, "SCREENING 1", -7, "TREATMENT", "2013-06-17", -17], ["CDISCPILOT01", "QS", "01-708-1353", 2006, "MMITM06", "NAME A PENCIL, AND WATCH (2 POINTS)", "MMSE", "LANGUAGE", "8", "", "8", 8, "", "", "", "", "", 1.0, "SCREENING 1", -7, "TREATMENT", "2013-06-17", -17], ["CDISCPILOT01", "QS", "01-708-1372", 2001, "MMITM01", "WHAT IS THE (YEAR) (SEASON) (DATE) ?", "MMSE", "ORIENTATION", "1", "", "1", 1, "", "", "", "", "", 1.0, "SCREENING 1", -7, "TREATMENT", "2013-04-03", -9], ["CDISCPILOT01", "QS", "01-708-1372", 2002, "MMITM02", "WHERE ARE WE: (STATE) (COUNTRY) (TOWN) ?", "MMSE", "ORIENTATION", "1", "", "1", 1, "", "", "", "", "", 1.0, "SCREENING 1", -7, "TREATMENT", "2013-04-03", -9], ["CDISCPILOT01", "QS", "01-708-1372", 2003, "MMITM03", "NAME 3 OBJECTS: 1 SECOND TO SAY EACH.", "MMSE", "REGISTRATION", "3", "", "3", 3, "", "", "", "", "", 1.0, "SCREENING 1", -7, "TREATMENT", "2013-04-03", -9], ["CDISCPILOT01", "QS", "01-708-1372", 2004, "MMITM04", "SERIAL 7'S. 1 POINT FOR EACH CORRECT.", "MMSE", "ATTENTION AND CALCULATI", "5", "", "5", 5, "", "", "", "", "", 1.0, "SCREENING 1", -7, "TREATMENT", "2013-04-03", -9], ["CDISCPILOT01", "QS", "01-708-1372", 2005, "MMITM05", "ASK FOR THE 3 OBJECTS REPEATED ABOVE.", "MMSE", "RECALL", "0", "", "0", 0, "", "", "", "", "", 1.0, "SCREENING 1", -7, "TREATMENT", "2013-04-03", -9], ["CDISCPILOT01", "QS", "01-708-1372", 2006, "MMITM06", "NAME A PENCIL, AND WATCH (2 POINTS)", "MMSE", "LANGUAGE", "7", "", "7", 7, "", "", "", "", "", 1.0, "SCREENING 1", -7, "TREATMENT", "2013-04-03", -9], ["CDISCPILOT01", "QS", "01-708-1378", 2001, "MMITM01", "WHAT IS THE (YEAR) (SEASON) (DATE) ?", "MMSE", "ORIENTATION", "3", "", "3", 3, "", "", "", "", "", 1.0, "SCREENING 1", -7, "TREATMENT", "2013-08-24", -10], ["CDISCPILOT01", "QS", "01-708-1378", 2002, "MMITM02", "WHERE ARE WE: (STATE) (COUNTRY) (TOWN) ?", "MMSE", "ORIENTATION", "5", "", "5", 5, "", "", "", "", "", 1.0, "SCREENING 1", -7, "TREATMENT", "2013-08-24", -10], ["CDISCPILOT01", "QS", "01-708-1378", 2003, "MMITM03", "NAME 3 OBJECTS: 1 SECOND TO SAY EACH.", "MMSE", "REGISTRATION", "3", "", "3", 3, "", "", "", "", "", 1.0, "SCREENING 1", -7, "TREATMENT", "2013-08-24", -10], ["CDISCPILOT01", "QS", "01-708-1378", 2004, "MMITM04", "SERIAL 7'S. 1 POINT FOR EACH CORRECT.", "MMSE", "ATTENTION AND CALCULATI", "1", "", "1", 1, "", "", "", "", "", 1.0, "SCREENING 1", -7, "TREATMENT", "2013-08-24", -10], ["CDISCPILOT01", "QS", "01-708-1378", 2005, "MMITM05", "ASK FOR THE 3 OBJECTS REPEATED ABOVE.", "MMSE", "RECALL", "1", "", "1", 1, "", "", "", "", "", 1.0, "SCREENING 1", -7, "TREATMENT", "2013-08-24", -10], ["CDISCPILOT01", "QS", "01-708-1378", 2006, "MMITM06", "NAME A PENCIL, AND WATCH (2 POINTS)", "MMSE", "LANGUAGE", "7", "", "7", 7, "", "", "", "", "", 1.0, "SCREENING 1", -7, "TREATMENT", "2013-08-24", -10], ["CDISCPILOT01", "QS", "01-708-1406", 2001, "MMITM01", "WHAT IS THE (YEAR) (SEASON) (DATE) ?", "MMSE", "ORIENTATION", "1", "", "1", 1, "", "", "", "", "", 1.0, "SCREENING 1", -7, "TREATMENT", "2013-12-06", -20], ["CDISCPILOT01", "QS", "01-708-1406", 2002, "MMITM02", "WHERE ARE WE: (STATE) (COUNTRY) (TOWN) ?", "MMSE", "ORIENTATION", "2", "", "2", 2, "", "", "", "", "", 1.0, "SCREENING 1", -7, "TREATMENT", "2013-12-06", -20], ["CDISCPILOT01", "QS", "01-708-1406", 2003, "MMITM03", "NAME 3 OBJECTS: 1 SECOND TO SAY EACH.", "MMSE", "REGISTRATION", "3", "", "3", 3, "", "", "", "", "", 1.0, "SCREENING 1", -7, "TREATMENT", "2013-12-06", -20], ["CDISCPILOT01", "QS", "01-708-1406", 2004, "MMITM04", "SERIAL 7'S. 1 POINT FOR EACH CORRECT.", "MMSE", "ATTENTION AND CALCULATI", "3", "", "3", 3, "", "", "", "", "", 1.0, "SCREENING 1", -7, "TREATMENT", "2013-12-06", -20], ["CDISCPILOT01", "QS", "01-708-1406", 2005, "MMITM05", "ASK FOR THE 3 OBJECTS REPEATED ABOVE.", "MMSE", "RECALL", "0", "", "0", 0, "", "", "", "", "", 1.0, "SCREENING 1", -7, "TREATMENT", "2013-12-06", -20], ["CDISCPILOT01", "QS", "01-708-1406", 2006, "MMITM06", "NAME A PENCIL, AND WATCH (2 POINTS)", "MMSE", "LANGUAGE", "6", "", "6", 6, "", "", "", "", "", 1.0, "SCREENING 1", -7, "TREATMENT", "2013-12-06", -20], ["CDISCPILOT01", "QS", "01-708-1428", 2001, "MMITM01", "WHAT IS THE (YEAR) (SEASON) (DATE) ?", "MMSE", "ORIENTATION", "2", "", "2", 2, "", "", "", "", "", 1.0, "SCREENING 1", -7, "TREATMENT", "2013-11-02", -7], ["CDISCPILOT01", "QS", "01-708-1428", 2002, "MMITM02", "WHERE ARE WE: (STATE) (COUNTRY) (TOWN) ?", "MMSE", "ORIENTATION", "3", "", "3", 3, "", "", "", "", "", 1.0, "SCREENING 1", -7, "TREATMENT", "2013-11-02", -7], ["CDISCPILOT01", "QS", "01-708-1428", 2003, "MMITM03", "NAME 3 OBJECTS: 1 SECOND TO SAY EACH.", "MMSE", "REGISTRATION", "3", "", "3", 3, "", "", "", "", "", 1.0, "SCREENING 1", -7, "TREATMENT", "2013-11-02", -7], ["CDISCPILOT01", "QS", "01-708-1428", 2004, "MMITM04", "SERIAL 7'S. 1 POINT FOR EACH CORRECT.", "MMSE", "ATTENTION AND CALCULATI", "1", "", "1", 1, "", "", "", "", "", 1.0, "SCREENING 1", -7, "TREATMENT", "2013-11-02", -7], ["CDISCPILOT01", "QS", "01-708-1428", 2005, "MMITM05", "ASK FOR THE 3 OBJECTS REPEATED ABOVE.", "MMSE", "RECALL", "1", "", "1", 1, "", "", "", "", "", 1.0, "SCREENING 1", -7, "TREATMENT", "2013-11-02", -7], ["CDISCPILOT01", "QS", "01-708-1428", 2006, "MMITM06", "NAME A PENCIL, AND WATCH (2 POINTS)", "MMSE", "LANGUAGE", "9", "", "9", 9, "", "", "", "", "", 1.0, "SCREENING 1", -7, "TREATMENT", "2013-11-02", -7], ["CDISCPILOT01", "QS", "01-709-1001", 2001, "MMITM01", "WHAT IS THE (YEAR) (SEASON) (DATE) ?", "MMSE", "ORIENTATION", "2", "", "2", 2, "", "", "", "", "", 1.0, "SCREENING 1", -7, "TREATMENT", "2013-09-20", -18], ["CDISCPILOT01", "QS", "01-709-1001", 2002, "MMITM02", "WHERE ARE WE: (STATE) (COUNTRY) (TOWN) ?", "MMSE", "ORIENTATION", "2", "", "2", 2, "", "", "", "", "", 1.0, "SCREENING 1", -7, "TREATMENT", "2013-09-20", -18], ["CDISCPILOT01", "QS", "01-709-1001", 2003, "MMITM03", "NAME 3 OBJECTS: 1 SECOND TO SAY EACH.", "MMSE", "REGISTRATION", "3", "", "3", 3, "", "", "", "", "", 1.0, "SCREENING 1", -7, "TREATMENT", "2013-09-20", -18], ["CDISCPILOT01", "QS", "01-709-1001", 2004, "MMITM04", "SERIAL 7'S. 1 POINT FOR EACH CORRECT.", "MMSE", "ATTENTION AND CALCULATI", "2", "", "2", 2, "", "", "", "", "", 1.0, "SCREENING 1", -7, "TREATMENT", "2013-09-20", -18], ["CDISCPILOT01", "QS", "01-709-1001", 2005, "MMITM05", "ASK FOR THE 3 OBJECTS REPEATED ABOVE.", "MMSE", "RECALL", "0", "", "0", 0, "", "", "", "", "", 1.0, "SCREENING 1", -7, "TREATMENT", "2013-09-20", -18], ["CDISCPILOT01", "QS", "01-709-1001", 2006, "MMITM06", "NAME A PENCIL, AND WATCH (2 POINTS)", "MMSE", "LANGUAGE", "6", "", "6", 6, "", "", "", "", "", 1.0, "SCREENING 1", -7, "TREATMENT", "2013-09-20", -18], ["CDISCPILOT01", "QS", "01-709-1007", 2001, "MMITM01", "WHAT IS THE (YEAR) (SEASON) (DATE) ?", "MMSE", "ORIENTATION", "0", "", "0", 0, "", "", "", "", "", 1.0, "SCREENING 1", -7, "TREATMENT", "2012-07-21", -10], ["CDISCPILOT01", "QS", "01-709-1007", 2002, "MMITM02", "WHERE ARE WE: (STATE) (COUNTRY) (TOWN) ?", "MMSE", "ORIENTATION", "1", "", "1", 1, "", "", "", "", "", 1.0, "SCREENING 1", -7, "TREATMENT", "2012-07-21", -10], ["CDISCPILOT01", "QS", "01-709-1007", 2003, "MMITM03", "NAME 3 OBJECTS: 1 SECOND TO SAY EACH.", "MMSE", "REGISTRATION", "1", "", "1", 1, "", "", "", "", "", 1.0, "SCREENING 1", -7, "TREATMENT", "2012-07-21", -10], ["CDISCPILOT01", "QS", "01-709-1007", 2004, "MMITM04", "SERIAL 7'S. 1 POINT FOR EACH CORRECT.", "MMSE", "ATTENTION AND CALCULATI", "2", "", "2", 2, "", "", "", "", "", 1.0, "SCREENING 1", -7, "TREATMENT", "2012-07-21", -10], ["CDISCPILOT01", "QS", "01-709-1007", 2005, "MMITM05", "ASK FOR THE 3 OBJECTS REPEATED ABOVE.", "MMSE", "RECALL", "0", "", "0", 0, "", "", "", "", "", 1.0, "SCREENING 1", -7, "TREATMENT", "2012-07-21", -10], ["CDISCPILOT01", "QS", "01-709-1007", 2006, "MMITM06", "NAME A PENCIL, AND WATCH (2 POINTS)", "MMSE", "LANGUAGE", "6", "", "6", 6, "", "", "", "", "", 1.0, "SCREENING 1", -7, "TREATMENT", "2012-07-21", -10], ["CDISCPILOT01", "QS", "01-709-1020", 2001, "MMITM01", "WHAT IS THE (YEAR) (SEASON) (DATE) ?", "MMSE", "ORIENTATION", "0", "", "0", 0, "", "", "", "", "", 1.0, "SCREENING 1", -7, "TREATMENT", "2012-11-22", -9], ["CDISCPILOT01", "QS", "01-709-1020", 2002, "MMITM02", "WHERE ARE WE: (STATE) (COUNTRY) (TOWN) ?", "MMSE", "ORIENTATION", "3", "", "3", 3, "", "", "", "", "", 1.0, "SCREENING 1", -7, "TREATMENT", "2012-11-22", -9], ["CDISCPILOT01", "QS", "01-709-1020", 2003, "MMITM03", "NAME 3 OBJECTS: 1 SECOND TO SAY EACH.", "MMSE", "REGISTRATION", "3", "", "3", 3, "", "", "", "", "", 1.0, "SCREENING 1", -7, "TREATMENT", "2012-11-22", -9], ["CDISCPILOT01", "QS", "01-709-1020", 2004, "MMITM04", "SERIAL 7'S. 1 POINT FOR EACH CORRECT.", "MMSE", "ATTENTION AND CALCULATI", "2", "", "2", 2, "", "", "", "", "", 1.0, "SCREENING 1", -7, "TREATMENT", "2012-11-22", -9], ["CDISCPILOT01", "QS", "01-709-1020", 2005, "MMITM05", "ASK FOR THE 3 OBJECTS REPEATED ABOVE.", "MMSE", "RECALL", "0", "", "0", 0, "", "", "", "", "", 1.0, "SCREENING 1", -7, "TREATMENT", "2012-11-22", -9], ["CDISCPILOT01", "QS", "01-709-1020", 2006, "MMITM06", "NAME A PENCIL, AND WATCH (2 POINTS)", "MMSE", "LANGUAGE", "7", "", "7", 7, "", "", "", "", "", 1.0, "SCREENING 1", -7, "TREATMENT", "2012-11-22", -9], ["CDISCPILOT01", "QS", "01-709-1029", 2001, "MMITM01", "WHAT IS THE (YEAR) (SEASON) (DATE) ?", "MMSE", "ORIENTATION", "2", "", "2", 2, "", "", "", "", "", 1.0, "SCREENING 1", -7, "TREATMENT", "2012-12-10", -15], ["CDISCPILOT01", "QS", "01-709-1029", 2002, "MMITM02", "WHERE ARE WE: (STATE) (COUNTRY) (TOWN) ?", "MMSE", "ORIENTATION", "2", "", "2", 2, "", "", "", "", "", 1.0, "SCREENING 1", -7, "TREATMENT", "2012-12-10", -15], ["CDISCPILOT01", "QS", "01-709-1029", 2003, "MMITM03", "NAME 3 OBJECTS: 1 SECOND TO SAY EACH.", "MMSE", "REGISTRATION", "3", "", "3", 3, "", "", "", "", "", 1.0, "SCREENING 1", -7, "TREATMENT", "2012-12-10", -15], ["CDISCPILOT01", "QS", "01-709-1029", 2004, "MMITM04", "SERIAL 7'S. 1 POINT FOR EACH CORRECT.", "MMSE", "ATTENTION AND CALCULATI", "2", "", "2", 2, "", "", "", "", "", 1.0, "SCREENING 1", -7, "TREATMENT", "2012-12-10", -15], ["CDISCPILOT01", "QS", "01-709-1029", 2005, "MMITM05", "ASK FOR THE 3 OBJECTS REPEATED ABOVE.", "MMSE", "RECALL", "0", "", "0", 0, "", "", "", "", "", 1.0, "SCREENING 1", -7, "TREATMENT", "2012-12-10", -15], ["CDISCPILOT01", "QS", "01-709-1029", 2006, "MMITM06", "NAME A PENCIL, AND WATCH (2 POINTS)", "MMSE", "LANGUAGE", "7", "", "7", 7, "", "", "", "", "", 1.0, "SCREENING 1", -7, "TREATMENT", "2012-12-10", -15], ["CDISCPILOT01", "QS", "01-709-1081", 2001, "MMITM01", "WHAT IS THE (YEAR) (SEASON) (DATE) ?", "MMSE", "ORIENTATION", "4", "", "4", 4, "", "", "", "", "", 1.0, "SCREENING 1", -7, "TREATMENT", "2014-01-09", -9], ["CDISCPILOT01", "QS", "01-709-1081", 2002, "MMITM02", "WHERE ARE WE: (STATE) (COUNTRY) (TOWN) ?", "MMSE", "ORIENTATION", "2", "", "2", 2, "", "", "", "", "", 1.0, "SCREENING 1", -7, "TREATMENT", "2014-01-09", -9], ["CDISCPILOT01", "QS", "01-709-1081", 2003, "MMITM03", "NAME 3 OBJECTS: 1 SECOND TO SAY EACH.", "MMSE", "REGISTRATION", "3", "", "3", 3, "", "", "", "", "", 1.0, "SCREENING 1", -7, "TREATMENT", "2014-01-09", -9], ["CDISCPILOT01", "QS", "01-709-1081", 2004, "MMITM04", "SERIAL 7'S. 1 POINT FOR EACH CORRECT.", "MMSE", "ATTENTION AND CALCULATI", "4", "", "4", 4, "", "", "", "", "", 1.0, "SCREENING 1", -7, "TREATMENT", "2014-01-09", -9], ["CDISCPILOT01", "QS", "01-709-1081", 2005, "MMITM05", "ASK FOR THE 3 OBJECTS REPEATED ABOVE.", "MMSE", "RECALL", "0", "", "0", 0, "", "", "", "", "", 1.0, "SCREENING 1", -7, "TREATMENT", "2014-01-09", -9], ["CDISCPILOT01", "QS", "01-709-1081", 2006, "MMITM06", "NAME A PENCIL, AND WATCH (2 POINTS)", "MMSE", "LANGUAGE", "8", "", "8", 8, "", "", "", "", "", 1.0, "SCREENING 1", -7, "TREATMENT", "2014-01-09", -9], ["CDISCPILOT01", "QS", "01-709-1088", 2001, "MMITM01", "WHAT IS THE (YEAR) (SEASON) (DATE) ?", "MMSE", "ORIENTATION", "5", "", "5", 5, "", "", "", "", "", 1.0, "SCREENING 1", -7, "TREATMENT", "2014-03-30", -13], ["CDISCPILOT01", "QS", "01-709-1088", 2002, "MMITM02", "WHERE ARE WE: (STATE) (COUNTRY) (TOWN) ?", "MMSE", "ORIENTATION", "4", "", "4", 4, "", "", "", "", "", 1.0, "SCREENING 1", -7, "TREATMENT", "2014-03-30", -13], ["CDISCPILOT01", "QS", "01-709-1088", 2003, "MMITM03", "NAME 3 OBJECTS: 1 SECOND TO SAY EACH.", "MMSE", "REGISTRATION", "3", "", "3", 3, "", "", "", "", "", 1.0, "SCREENING 1", -7, "TREATMENT", "2014-03-30", -13], ["CDISCPILOT01", "QS", "01-709-1088", 2004, "MMITM04", "SERIAL 7'S. 1 POINT FOR EACH CORRECT.", "MMSE", "ATTENTION AND CALCULATI", "3", "", "3", 3, "", "", "", "", "", 1.0, "SCREENING 1", -7, "TREATMENT", "2014-03-30", -13], ["CDISCPILOT01", "QS", "01-709-1088", 2005, "MMITM05", "ASK FOR THE 3 OBJECTS REPEATED ABOVE.", "MMSE", "RECALL", "1", "", "1", 1, "", "", "", "", "", 1.0, "SCREENING 1", -7, "TREATMENT", "2014-03-30", -13], ["CDISCPILOT01", "QS", "01-709-1088", 2006, "MMITM06", "NAME A PENCIL, AND WATCH (2 POINTS)", "MMSE", "LANGUAGE", "7", "", "7", 7, "", "", "", "", "", 1.0, "SCREENING 1", -7, "TREATMENT", "2014-03-30", -13], ["CDISCPILOT01", "QS", "01-709-1099", 2001, "MMITM01", "WHAT IS THE (YEAR) (SEASON) (DATE) ?", "MMSE", "ORIENTATION", "0", "", "0", 0, "", "", "", "", "", 1.0, "SCREENING 1", -7, "TREATMENT", "2013-10-14", -11], ["CDISCPILOT01", "QS", "01-709-1099", 2002, "MMITM02", "WHERE ARE WE: (STATE) (COUNTRY) (TOWN) ?", "MMSE", "ORIENTATION", "2", "", "2", 2, "", "", "", "", "", 1.0, "SCREENING 1", -7, "TREATMENT", "2013-10-14", -11], ["CDISCPILOT01", "QS", "01-709-1099", 2003, "MMITM03", "NAME 3 OBJECTS: 1 SECOND TO SAY EACH.", "MMSE", "REGISTRATION", "3", "", "3", 3, "", "", "", "", "", 1.0, "SCREENING 1", -7, "TREATMENT", "2013-10-14", -11], ["CDISCPILOT01", "QS", "01-709-1099", 2004, "MMITM04", "SERIAL 7'S. 1 POINT FOR EACH CORRECT.", "MMSE", "ATTENTION AND CALCULATI", "0", "", "0", 0, "", "", "", "", "", 1.0, "SCREENING 1", -7, "TREATMENT", "2013-10-14", -11], ["CDISCPILOT01", "QS", "01-709-1099", 2005, "MMITM05", "ASK FOR THE 3 OBJECTS REPEATED ABOVE.", "MMSE", "RECALL", "0", "", "0", 0, "", "", "", "", "", 1.0, "SCREENING 1", -7, "TREATMENT", "2013-10-14", -11], ["CDISCPILOT01", "QS", "01-709-1099", 2006, "MMITM06", "NAME A PENCIL, AND WATCH (2 POINTS)", "MMSE", "LANGUAGE", "6", "", "6", 6, "", "", "", "", "", 1.0, "SCREENING 1", -7, "TREATMENT", "2013-10-14", -11], ["CDISCPILOT01", "QS", "01-709-1102", 2001, "MMITM01", "WHAT IS THE (YEAR) (SEASON) (DATE) ?", "MMSE", "ORIENTATION", "1", "", "1", 1, "", "", "", "", "", 1.0, "SCREENING 1", -7, "TREATMENT", "2013-01-07", -8], ["CDISCPILOT01", "QS", "01-709-1102", 2002, "MMITM02", "WHERE ARE WE: (STATE) (COUNTRY) (TOWN) ?", "MMSE", "ORIENTATION", "2", "", "2", 2, "", "", "", "", "", 1.0, "SCREENING 1", -7, "TREATMENT", "2013-01-07", -8], ["CDISCPILOT01", "QS", "01-709-1102", 2003, "MMITM03", "NAME 3 OBJECTS: 1 SECOND TO SAY EACH.", "MMSE", "REGISTRATION", "3", "", "3", 3, "", "", "", "", "", 1.0, "SCREENING 1", -7, "TREATMENT", "2013-01-07", -8], ["CDISCPILOT01", "QS", "01-709-1102", 2004, "MMITM04", "SERIAL 7'S. 1 POINT FOR EACH CORRECT.", "MMSE", "ATTENTION AND CALCULATI", "1", "", "1", 1, "", "", "", "", "", 1.0, "SCREENING 1", -7, "TREATMENT", "2013-01-07", -8], ["CDISCPILOT01", "QS", "01-709-1102", 2005, "MMITM05", "ASK FOR THE 3 OBJECTS REPEATED ABOVE.", "MMSE", "RECALL", "2", "", "2", 2, "", "", "", "", "", 1.0, "SCREENING 1", -7, "TREATMENT", "2013-01-07", -8], ["CDISCPILOT01", "QS", "01-709-1102", 2006, "MMITM06", "NAME A PENCIL, AND WATCH (2 POINTS)", "MMSE", "LANGUAGE", "7", "", "7", 7, "", "", "", "", "", 1.0, "SCREENING 1", -7, "TREATMENT", "2013-01-07", -8], ["CDISCPILOT01", "QS", "01-709-1168", 2001, "MMITM01", "WHAT IS THE (YEAR) (SEASON) (DATE) ?", "MMSE", "ORIENTATION", "2", "", "2", 2, "", "", "", "", "", 1.0, "SCREENING 1", -7, "TREATMENT", "2013-07-25", -8], ["CDISCPILOT01", "QS", "01-709-1168", 2002, "MMITM02", "WHERE ARE WE: (STATE) (COUNTRY) (TOWN) ?", "MMSE", "ORIENTATION", "3", "", "3", 3, "", "", "", "", "", 1.0, "SCREENING 1", -7, "TREATMENT", "2013-07-25", -8], ["CDISCPILOT01", "QS", "01-709-1168", 2003, "MMITM03", "NAME 3 OBJECTS: 1 SECOND TO SAY EACH.", "MMSE", "REGISTRATION", "3", "", "3", 3, "", "", "", "", "", 1.0, "SCREENING 1", -7, "TREATMENT", "2013-07-25", -8], ["CDISCPILOT01", "QS", "01-709-1168", 2004, "MMITM04", "SERIAL 7'S. 1 POINT FOR EACH CORRECT.", "MMSE", "ATTENTION AND CALCULATI", "3", "", "3", 3, "", "", "", "", "", 1.0, "SCREENING 1", -7, "TREATMENT", "2013-07-25", -8], ["CDISCPILOT01", "QS", "01-709-1168", 2005, "MMITM05", "ASK FOR THE 3 OBJECTS REPEATED ABOVE.", "MMSE", "RECALL", "0", "", "0", 0, "", "", "", "", "", 1.0, "SCREENING 1", -7, "TREATMENT", "2013-07-25", -8], ["CDISCPILOT01", "QS", "01-709-1168", 2006, "MMITM06", "NAME A PENCIL, AND WATCH (2 POINTS)", "MMSE", "LANGUAGE", "9", "", "9", 9, "", "", "", "", "", 1.0, "SCREENING 1", -7, "TREATMENT", "2013-07-25", -8], ["CDISCPILOT01", "QS", "01-709-1217", 2001, "MMITM01", "WHAT IS THE (YEAR) (SEASON) (DATE) ?", "MMSE", "ORIENTATION", "1", "", "1", 1, "", "", "", "", "", 1.0, "SCREENING 1", -7, "TREATMENT", "2013-02-16", -16], ["CDISCPILOT01", "QS", "01-709-1217", 2002, "MMITM02", "WHERE ARE WE: (STATE) (COUNTRY) (TOWN) ?", "MMSE", "ORIENTATION", "1", "", "1", 1, "", "", "", "", "", 1.0, "SCREENING 1", -7, "TREATMENT", "2013-02-16", -16], ["CDISCPILOT01", "QS", "01-709-1217", 2003, "MMITM03", "NAME 3 OBJECTS: 1 SECOND TO SAY EACH.", "MMSE", "REGISTRATION", "3", "", "3", 3, "", "", "", "", "", 1.0, "SCREENING 1", -7, "TREATMENT", "2013-02-16", -16], ["CDISCPILOT01", "QS", "01-709-1217", 2004, "MMITM04", "SERIAL 7'S. 1 POINT FOR EACH CORRECT.", "MMSE", "ATTENTION AND CALCULATI", "3", "", "3", 3, "", "", "", "", "", 1.0, "SCREENING 1", -7, "TREATMENT", "2013-02-16", -16], ["CDISCPILOT01", "QS", "01-709-1217", 2005, "MMITM05", "ASK FOR THE 3 OBJECTS REPEATED ABOVE.", "MMSE", "RECALL", "0", "", "0", 0, "", "", "", "", "", 1.0, "SCREENING 1", -7, "TREATMENT", "2013-02-16", -16], ["CDISCPILOT01", "QS", "01-709-1217", 2006, "MMITM06", "NAME A PENCIL, AND WATCH (2 POINTS)", "MMSE", "LANGUAGE", "6", "", "6", 6, "", "", "", "", "", 1.0, "SCREENING 1", -7, "TREATMENT", "2013-02-16", -16], ["CDISCPILOT01", "QS", "01-709-1238", 2001, "MMITM01", "WHAT IS THE (YEAR) (SEASON) (DATE) ?", "MMSE", "ORIENTATION", "5", "", "5", 5, "", "", "", "", "", 1.0, "SCREENING 1", -7, "TREATMENT", "2013-05-02", -13], ["CDISCPILOT01", "QS", "01-709-1238", 2002, "MMITM02", "WHERE ARE WE: (STATE) (COUNTRY) (TOWN) ?", "MMSE", "ORIENTATION", "2", "", "2", 2, "", "", "", "", "", 1.0, "SCREENING 1", -7, "TREATMENT", "2013-05-02", -13], ["CDISCPILOT01", "QS", "01-709-1238", 2003, "MMITM03", "NAME 3 OBJECTS: 1 SECOND TO SAY EACH.", "MMSE", "REGISTRATION", "3", "", "3", 3, "", "", "", "", "", 1.0, "SCREENING 1", -7, "TREATMENT", "2013-05-02", -13], ["CDISCPILOT01", "QS", "01-709-1238", 2004, "MMITM04", "SERIAL 7'S. 1 POINT FOR EACH CORRECT.", "MMSE", "ATTENTION AND CALCULATI", "5", "", "5", 5, "", "", "", "", "", 1.0, "SCREENING 1", -7, "TREATMENT", "2013-05-02", -13], ["CDISCPILOT01", "QS", "01-709-1238", 2005, "MMITM05", "ASK FOR THE 3 OBJECTS REPEATED ABOVE.", "MMSE", "RECALL", "1", "", "1", 1, "", "", "", "", "", 1.0, "SCREENING 1", -7, "TREATMENT", "2013-05-02", -13], ["CDISCPILOT01", "QS", "01-709-1238", 2006, "MMITM06", "NAME A PENCIL, AND WATCH (2 POINTS)", "MMSE", "LANGUAGE", "8", "", "8", 8, "", "", "", "", "", 1.0, "SCREENING 1", -7, "TREATMENT", "2013-05-02", -13], ["CDISCPILOT01", "QS", "01-709-1259", 2001, "MMITM01", "WHAT IS THE (YEAR) (SEASON) (DATE) ?", "MMSE", "ORIENTATION", "0", "", "0", 0, "", "", "", "", "", 1.0, "SCREENING 1", -7, "TREATMENT", "2013-01-13", -13], ["CDISCPILOT01", "QS", "01-709-1259", 2002, "MMITM02", "WHERE ARE WE: (STATE) (COUNTRY) (TOWN) ?", "MMSE", "ORIENTATION", "3", "", "3", 3, "", "", "", "", "", 1.0, "SCREENING 1", -7, "TREATMENT", "2013-01-13", -13], ["CDISCPILOT01", "QS", "01-709-1259", 2003, "MMITM03", "NAME 3 OBJECTS: 1 SECOND TO SAY EACH.", "MMSE", "REGISTRATION", "3", "", "3", 3, "", "", "", "", "", 1.0, "SCREENING 1", -7, "TREATMENT", "2013-01-13", -13], ["CDISCPILOT01", "QS", "01-709-1259", 2004, "MMITM04", "SERIAL 7'S. 1 POINT FOR EACH CORRECT.", "MMSE", "ATTENTION AND CALCULATI", "5", "", "5", 5, "", "", "", "", "", 1.0, "SCREENING 1", -7, "TREATMENT", "2013-01-13", -13], ["CDISCPILOT01", "QS", "01-709-1259", 2005, "MMITM05", "ASK FOR THE 3 OBJECTS REPEATED ABOVE.", "MMSE", "RECALL", "0", "", "0", 0, "", "", "", "", "", 1.0, "SCREENING 1", -7, "TREATMENT", "2013-01-13", -13], ["CDISCPILOT01", "QS", "01-709-1259", 2006, "MMITM06", "NAME A PENCIL, AND WATCH (2 POINTS)", "MMSE", "LANGUAGE", "9", "", "9", 9, "", "", "", "", "", 1.0, "SCREENING 1", -7, "TREATMENT", "2013-01-13", -13], ["CDISCPILOT01", "QS", "01-709-1285", 2001, "MMITM01", "WHAT IS THE (YEAR) (SEASON) (DATE) ?", "MMSE", "ORIENTATION", "1", "", "1", 1, "", "", "", "", "", 1.0, "SCREENING 1", -7, "TREATMENT", "2013-03-17", -7], ["CDISCPILOT01", "QS", "01-709-1285", 2002, "MMITM02", "WHERE ARE WE: (STATE) (COUNTRY) (TOWN) ?", "MMSE", "ORIENTATION", "4", "", "4", 4, "", "", "", "", "", 1.0, "SCREENING 1", -7, "TREATMENT", "2013-03-17", -7], ["CDISCPILOT01", "QS", "01-709-1285", 2003, "MMITM03", "NAME 3 OBJECTS: 1 SECOND TO SAY EACH.", "MMSE", "REGISTRATION", "3", "", "3", 3, "", "", "", "", "", 1.0, "SCREENING 1", -7, "TREATMENT", "2013-03-17", -7], ["CDISCPILOT01", "QS", "01-709-1285", 2004, "MMITM04", "SERIAL 7'S. 1 POINT FOR EACH CORRECT.", "MMSE", "ATTENTION AND CALCULATI", "0", "", "0", 0, "", "", "", "", "", 1.0, "SCREENING 1", -7, "TREATMENT", "2013-03-17", -7], ["CDISCPILOT01", "QS", "01-709-1285", 2005, "MMITM05", "ASK FOR THE 3 OBJECTS REPEATED ABOVE.", "MMSE", "RECALL", "1", "", "1", 1, "", "", "", "", "", 1.0, "SCREENING 1", -7, "TREATMENT", "2013-03-17", -7], ["CDISCPILOT01", "QS", "01-709-1285", 2006, "MMITM06", "NAME A PENCIL, AND WATCH (2 POINTS)", "MMSE", "LANGUAGE", "7", "", "7", 7, "", "", "", "", "", 1.0, "SCREENING 1", -7, "TREATMENT", "2013-03-17", -7], ["CDISCPILOT01", "QS", "01-709-1301", 2001, "MMITM01", "WHAT IS THE (YEAR) (SEASON) (DATE) ?", "MMSE", "ORIENTATION", "1", "", "1", 1, "", "", "", "", "", 1.0, "SCREENING 1", -7, "TREATMENT", "2013-07-14", -5], ["CDISCPILOT01", "QS", "01-709-1301", 2002, "MMITM02", "WHERE ARE WE: (STATE) (COUNTRY) (TOWN) ?", "MMSE", "ORIENTATION", "1", "", "1", 1, "", "", "", "", "", 1.0, "SCREENING 1", -7, "TREATMENT", "2013-07-14", -5], ["CDISCPILOT01", "QS", "01-709-1301", 2003, "MMITM03", "NAME 3 OBJECTS: 1 SECOND TO SAY EACH.", "MMSE", "REGISTRATION", "3", "", "3", 3, "", "", "", "", "", 1.0, "SCREENING 1", -7, "TREATMENT", "2013-07-14", -5], ["CDISCPILOT01", "QS", "01-709-1301", 2004, "MMITM04", "SERIAL 7'S. 1 POINT FOR EACH CORRECT.", "MMSE", "ATTENTION AND CALCULATI", "0", "", "0", 0, "", "", "", "", "", 1.0, "SCREENING 1", -7, "TREATMENT", "2013-07-14", -5], ["CDISCPILOT01", "QS", "01-709-1301", 2005, "MMITM05", "ASK FOR THE 3 OBJECTS REPEATED ABOVE.", "MMSE", "RECALL", "0", "", "0", 0, "", "", "", "", "", 1.0, "SCREENING 1", -7, "TREATMENT", "2013-07-14", -5], ["CDISCPILOT01", "QS", "01-709-1301", 2006, "MMITM06", "NAME A PENCIL, AND WATCH (2 POINTS)", "MMSE", "LANGUAGE", "5", "", "5", 5, "", "", "", "", "", 1.0, "SCREENING 1", -7, "TREATMENT", "2013-07-14", -5], ["CDISCPILOT01", "QS", "01-709-1306", 2001, "MMITM01", "WHAT IS THE (YEAR) (SEASON) (DATE) ?", "MMSE", "ORIENTATION", "4", "", "4", 4, "", "", "", "", "", 1.0, "SCREENING 1", -7, "TREATMENT", "2014-01-19", -15], ["CDISCPILOT01", "QS", "01-709-1306", 2002, "MMITM02", "WHERE ARE WE: (STATE) (COUNTRY) (TOWN) ?", "MMSE", "ORIENTATION", "3", "", "3", 3, "", "", "", "", "", 1.0, "SCREENING 1", -7, "TREATMENT", "2014-01-19", -15], ["CDISCPILOT01", "QS", "01-709-1306", 2003, "MMITM03", "NAME 3 OBJECTS: 1 SECOND TO SAY EACH.", "MMSE", "REGISTRATION", "3", "", "3", 3, "", "", "", "", "", 1.0, "SCREENING 1", -7, "TREATMENT", "2014-01-19", -15], ["CDISCPILOT01", "QS", "01-709-1306", 2004, "MMITM04", "SERIAL 7'S. 1 POINT FOR EACH CORRECT.", "MMSE", "ATTENTION AND CALCULATI", "4", "", "4", 4, "", "", "", "", "", 1.0, "SCREENING 1", -7, "TREATMENT", "2014-01-19", -15], ["CDISCPILOT01", "QS", "01-709-1306", 2005, "MMITM05", "ASK FOR THE 3 OBJECTS REPEATED ABOVE.", "MMSE", "RECALL", "0", "", "0", 0, "", "", "", "", "", 1.0, "SCREENING 1", -7, "TREATMENT", "2014-01-19", -15], ["CDISCPILOT01", "QS", "01-709-1306", 2006, "MMITM06", "NAME A PENCIL, AND WATCH (2 POINTS)", "MMSE", "LANGUAGE", "7", "", "7", 7, "", "", "", "", "", 1.0, "SCREENING 1", -7, "TREATMENT", "2014-01-19", -15], ["CDISCPILOT01", "QS", "01-709-1309", 2001, "MMITM01", "WHAT IS THE (YEAR) (SEASON) (DATE) ?", "MMSE", "ORIENTATION", "1", "", "1", 1, "", "", "", "", "", 1.0, "SCREENING 1", -7, "TREATMENT", "2013-06-09", -10], ["CDISCPILOT01", "QS", "01-709-1309", 2002, "MMITM02", "WHERE ARE WE: (STATE) (COUNTRY) (TOWN) ?", "MMSE", "ORIENTATION", "3", "", "3", 3, "", "", "", "", "", 1.0, "SCREENING 1", -7, "TREATMENT", "2013-06-09", -10], ["CDISCPILOT01", "QS", "01-709-1309", 2003, "MMITM03", "NAME 3 OBJECTS: 1 SECOND TO SAY EACH.", "MMSE", "REGISTRATION", "3", "", "3", 3, "", "", "", "", "", 1.0, "SCREENING 1", -7, "TREATMENT", "2013-06-09", -10], ["CDISCPILOT01", "QS", "01-709-1309", 2004, "MMITM04", "SERIAL 7'S. 1 POINT FOR EACH CORRECT.", "MMSE", "ATTENTION AND CALCULATI", "1", "", "1", 1, "", "", "", "", "", 1.0, "SCREENING 1", -7, "TREATMENT", "2013-06-09", -10], ["CDISCPILOT01", "QS", "01-709-1309", 2005, "MMITM05", "ASK FOR THE 3 OBJECTS REPEATED ABOVE.", "MMSE", "RECALL", "1", "", "1", 1, "", "", "", "", "", 1.0, "SCREENING 1", -7, "TREATMENT", "2013-06-09", -10], ["CDISCPILOT01", "QS", "01-709-1309", 2006, "MMITM06", "NAME A PENCIL, AND WATCH (2 POINTS)", "MMSE", "LANGUAGE", "8", "", "8", 8, "", "", "", "", "", 1.0, "SCREENING 1", -7, "TREATMENT", "2013-06-09", -10], ["CDISCPILOT01", "QS", "01-709-1312", 2001, "MMITM01", "WHAT IS THE (YEAR) (SEASON) (DATE) ?", "MMSE", "ORIENTATION", "2", "", "2", 2, "", "", "", "", "", 1.0, "SCREENING 1", -7, "TREATMENT", "2014-04-13", -7], ["CDISCPILOT01", "QS", "01-709-1312", 2002, "MMITM02", "WHERE ARE WE: (STATE) (COUNTRY) (TOWN) ?", "MMSE", "ORIENTATION", "2", "", "2", 2, "", "", "", "", "", 1.0, "SCREENING 1", -7, "TREATMENT", "2014-04-13", -7], ["CDISCPILOT01", "QS", "01-709-1312", 2003, "MMITM03", "NAME 3 OBJECTS: 1 SECOND TO SAY EACH.", "MMSE", "REGISTRATION", "3", "", "3", 3, "", "", "", "", "", 1.0, "SCREENING 1", -7, "TREATMENT", "2014-04-13", -7], ["CDISCPILOT01", "QS", "01-709-1312", 2004, "MMITM04", "SERIAL 7'S. 1 POINT FOR EACH CORRECT.", "MMSE", "ATTENTION AND CALCULATI", "2", "", "2", 2, "", "", "", "", "", 1.0, "SCREENING 1", -7, "TREATMENT", "2014-04-13", -7], ["CDISCPILOT01", "QS", "01-709-1312", 2005, "MMITM05", "ASK FOR THE 3 OBJECTS REPEATED ABOVE.", "MMSE", "RECALL", "0", "", "0", 0, "", "", "", "", "", 1.0, "SCREENING 1", -7, "TREATMENT", "2014-04-13", -7], ["CDISCPILOT01", "QS", "01-709-1312", 2006, "MMITM06", "NAME A PENCIL, AND WATCH (2 POINTS)", "MMSE", "LANGUAGE", "5", "", "5", 5, "", "", "", "", "", 1.0, "SCREENING 1", -7, "TREATMENT", "2014-04-13", -7], ["CDISCPILOT01", "QS", "01-709-1326", 2001, "MMITM01", "WHAT IS THE (YEAR) (SEASON) (DATE) ?", "MMSE", "ORIENTATION", "0", "", "0", 0, "", "", "", "", "", 1.0, "SCREENING 1", -7, "TREATMENT", "2013-03-21", -15], ["CDISCPILOT01", "QS", "01-709-1326", 2002, "MMITM02", "WHERE ARE WE: (STATE) (COUNTRY) (TOWN) ?", "MMSE", "ORIENTATION", "2", "", "2", 2, "", "", "", "", "", 1.0, "SCREENING 1", -7, "TREATMENT", "2013-03-21", -15], ["CDISCPILOT01", "QS", "01-709-1326", 2003, "MMITM03", "NAME 3 OBJECTS: 1 SECOND TO SAY EACH.", "MMSE", "REGISTRATION", "3", "", "3", 3, "", "", "", "", "", 1.0, "SCREENING 1", -7, "TREATMENT", "2013-03-21", -15], ["CDISCPILOT01", "QS", "01-709-1326", 2004, "MMITM04", "SERIAL 7'S. 1 POINT FOR EACH CORRECT.", "MMSE", "ATTENTION AND CALCULATI", "2", "", "2", 2, "", "", "", "", "", 1.0, "SCREENING 1", -7, "TREATMENT", "2013-03-21", -15], ["CDISCPILOT01", "QS", "01-709-1326", 2005, "MMITM05", "ASK FOR THE 3 OBJECTS REPEATED ABOVE.", "MMSE", "RECALL", "0", "", "0", 0, "", "", "", "", "", 1.0, "SCREENING 1", -7, "TREATMENT", "2013-03-21", -15], ["CDISCPILOT01", "QS", "01-709-1326", 2006, "MMITM06", "NAME A PENCIL, AND WATCH (2 POINTS)", "MMSE", "LANGUAGE", "4", "", "4", 4, "", "", "", "", "", 1.0, "SCREENING 1", -7, "TREATMENT", "2013-03-21", -15], ["CDISCPILOT01", "QS", "01-709-1329", 2001, "MMITM01", "WHAT IS THE (YEAR) (SEASON) (DATE) ?", "MMSE", "ORIENTATION", "0", "", "0", 0, "", "", "", "", "", 1.0, "SCREENING 1", -7, "TREATMENT", "2013-08-01", -14], ["CDISCPILOT01", "QS", "01-709-1329", 2002, "MMITM02", "WHERE ARE WE: (STATE) (COUNTRY) (TOWN) ?", "MMSE", "ORIENTATION", "1", "", "1", 1, "", "", "", "", "", 1.0, "SCREENING 1", -7, "TREATMENT", "2013-08-01", -14], ["CDISCPILOT01", "QS", "01-709-1329", 2003, "MMITM03", "NAME 3 OBJECTS: 1 SECOND TO SAY EACH.", "MMSE", "REGISTRATION", "3", "", "3", 3, "", "", "", "", "", 1.0, "SCREENING 1", -7, "TREATMENT", "2013-08-01", -14], ["CDISCPILOT01", "QS", "01-709-1329", 2004, "MMITM04", "SERIAL 7'S. 1 POINT FOR EACH CORRECT.", "MMSE", "ATTENTION AND CALCULATI", "1", "", "1", 1, "", "", "", "", "", 1.0, "SCREENING 1", -7, "TREATMENT", "2013-08-01", -14], ["CDISCPILOT01", "QS", "01-709-1329", 2005, "MMITM05", "ASK FOR THE 3 OBJECTS REPEATED ABOVE.", "MMSE", "RECALL", "0", "", "0", 0, "", "", "", "", "", 1.0, "SCREENING 1", -7, "TREATMENT", "2013-08-01", -14], ["CDISCPILOT01", "QS", "01-709-1329", 2006, "MMITM06", "NAME A PENCIL, AND WATCH (2 POINTS)", "MMSE", "LANGUAGE", "5", "", "5", 5, "", "", "", "", "", 1.0, "SCREENING 1", -7, "TREATMENT", "2013-08-01", -14], ["CDISCPILOT01", "QS", "01-709-1339", 2001, "MMITM01", "WHAT IS THE (YEAR) (SEASON) (DATE) ?", "MMSE", "ORIENTATION", "4", "", "4", 4, "", "", "", "", "", 1.0, "SCREENING 1", -7, "TREATMENT", "2012-12-15", -8], ["CDISCPILOT01", "QS", "01-709-1339", 2002, "MMITM02", "WHERE ARE WE: (STATE) (COUNTRY) (TOWN) ?", "MMSE", "ORIENTATION", "2", "", "2", 2, "", "", "", "", "", 1.0, "SCREENING 1", -7, "TREATMENT", "2012-12-15", -8], ["CDISCPILOT01", "QS", "01-709-1339", 2003, "MMITM03", "NAME 3 OBJECTS: 1 SECOND TO SAY EACH.", "MMSE", "REGISTRATION", "3", "", "3", 3, "", "", "", "", "", 1.0, "SCREENING 1", -7, "TREATMENT", "2012-12-15", -8], ["CDISCPILOT01", "QS", "01-709-1339", 2004, "MMITM04", "SERIAL 7'S. 1 POINT FOR EACH CORRECT.", "MMSE", "ATTENTION AND CALCULATI", "5", "", "5", 5, "", "", "", "", "", 1.0, "SCREENING 1", -7, "TREATMENT", "2012-12-15", -8], ["CDISCPILOT01", "QS", "01-709-1339", 2005, "MMITM05", "ASK FOR THE 3 OBJECTS REPEATED ABOVE.", "MMSE", "RECALL", "2", "", "2", 2, "", "", "", "", "", 1.0, "SCREENING 1", -7, "TREATMENT", "2012-12-15", -8], ["CDISCPILOT01", "QS", "01-709-1339", 2006, "MMITM06", "NAME A PENCIL, AND WATCH (2 POINTS)", "MMSE", "LANGUAGE", "7", "", "7", 7, "", "", "", "", "", 1.0, "SCREENING 1", -7, "TREATMENT", "2012-12-15", -8], ["CDISCPILOT01", "QS", "01-709-1424", 2001, "MMITM01", "WHAT IS THE (YEAR) (SEASON) (DATE) ?", "MMSE", "ORIENTATION", "1", "", "1", 1, "", "", "", "", "", 1.0, "SCREENING 1", -7, "TREATMENT", "2013-02-15", -16], ["CDISCPILOT01", "QS", "01-709-1424", 2002, "MMITM02", "WHERE ARE WE: (STATE) (COUNTRY) (TOWN) ?", "MMSE", "ORIENTATION", "3", "", "3", 3, "", "", "", "", "", 1.0, "SCREENING 1", -7, "TREATMENT", "2013-02-15", -16], ["CDISCPILOT01", "QS", "01-709-1424", 2003, "MMITM03", "NAME 3 OBJECTS: 1 SECOND TO SAY EACH.", "MMSE", "REGISTRATION", "3", "", "3", 3, "", "", "", "", "", 1.0, "SCREENING 1", -7, "TREATMENT", "2013-02-15", -16], ["CDISCPILOT01", "QS", "01-709-1424", 2004, "MMITM04", "SERIAL 7'S. 1 POINT FOR EACH CORRECT.", "MMSE", "ATTENTION AND CALCULATI", "3", "", "3", 3, "", "", "", "", "", 1.0, "SCREENING 1", -7, "TREATMENT", "2013-02-15", -16], ["CDISCPILOT01", "QS", "01-709-1424", 2005, "MMITM05", "ASK FOR THE 3 OBJECTS REPEATED ABOVE.", "MMSE", "RECALL", "0", "", "0", 0, "", "", "", "", "", 1.0, "SCREENING 1", -7, "TREATMENT", "2013-02-15", -16], ["CDISCPILOT01", "QS", "01-709-1424", 2006, "MMITM06", "NAME A PENCIL, AND WATCH (2 POINTS)", "MMSE", "LANGUAGE", "8", "", "8", 8, "", "", "", "", "", 1.0, "SCREENING 1", -7, "TREATMENT", "2013-02-15", -16], ["CDISCPILOT01", "QS", "01-710-1002", 2001, "MMITM01", "WHAT IS THE (YEAR) (SEASON) (DATE) ?", "MMSE", "ORIENTATION", "2", "", "2", 2, "", "", "", "", "", 1.0, "SCREENING 1", -7, "TREATMENT", "2013-12-30", -15], ["CDISCPILOT01", "QS", "01-710-1002", 2002, "MMITM02", "WHERE ARE WE: (STATE) (COUNTRY) (TOWN) ?", "MMSE", "ORIENTATION", "2", "", "2", 2, "", "", "", "", "", 1.0, "SCREENING 1", -7, "TREATMENT", "2013-12-30", -15], ["CDISCPILOT01", "QS", "01-710-1002", 2003, "MMITM03", "NAME 3 OBJECTS: 1 SECOND TO SAY EACH.", "MMSE", "REGISTRATION", "3", "", "3", 3, "", "", "", "", "", 1.0, "SCREENING 1", -7, "TREATMENT", "2013-12-30", -15], ["CDISCPILOT01", "QS", "01-710-1002", 2004, "MMITM04", "SERIAL 7'S. 1 POINT FOR EACH CORRECT.", "MMSE", "ATTENTION AND CALCULATI", "2", "", "2", 2, "", "", "", "", "", 1.0, "SCREENING 1", -7, "TREATMENT", "2013-12-30", -15], ["CDISCPILOT01", "QS", "01-710-1002", 2005, "MMITM05", "ASK FOR THE 3 OBJECTS REPEATED ABOVE.", "MMSE", "RECALL", "1", "", "1", 1, "", "", "", "", "", 1.0, "SCREENING 1", -7, "TREATMENT", "2013-12-30", -15], ["CDISCPILOT01", "QS", "01-710-1002", 2006, "MMITM06", "NAME A PENCIL, AND WATCH (2 POINTS)", "MMSE", "LANGUAGE", "7", "", "7", 7, "", "", "", "", "", 1.0, "SCREENING 1", -7, "TREATMENT", "2013-12-30", -15], ["CDISCPILOT01", "QS", "01-710-1006", 2001, "MMITM01", "WHAT IS THE (YEAR) (SEASON) (DATE) ?", "MMSE", "ORIENTATION", "0", "", "0", 0, "", "", "", "", "", 1.0, "SCREENING 1", -7, "TREATMENT", "2013-01-27", -14], ["CDISCPILOT01", "QS", "01-710-1006", 2002, "MMITM02", "WHERE ARE WE: (STATE) (COUNTRY) (TOWN) ?", "MMSE", "ORIENTATION", "2", "", "2", 2, "", "", "", "", "", 1.0, "SCREENING 1", -7, "TREATMENT", "2013-01-27", -14], ["CDISCPILOT01", "QS", "01-710-1006", 2003, "MMITM03", "NAME 3 OBJECTS: 1 SECOND TO SAY EACH.", "MMSE", "REGISTRATION", "3", "", "3", 3, "", "", "", "", "", 1.0, "SCREENING 1", -7, "TREATMENT", "2013-01-27", -14], ["CDISCPILOT01", "QS", "01-710-1006", 2004, "MMITM04", "SERIAL 7'S. 1 POINT FOR EACH CORRECT.", "MMSE", "ATTENTION AND CALCULATI", "0", "", "0", 0, "", "", "", "", "", 1.0, "SCREENING 1", -7, "TREATMENT", "2013-01-27", -14], ["CDISCPILOT01", "QS", "01-710-1006", 2005, "MMITM05", "ASK FOR THE 3 OBJECTS REPEATED ABOVE.", "MMSE", "RECALL", "0", "", "0", 0, "", "", "", "", "", 1.