{"datasetJSONCreationDateTime": "2025-10-13T17:10:36", "datasetJSONVersion": "1.1.0", "fileOID": "UpdatedCDISCPILOT.CDISC SDTM.3.2.SUPPDM", "studyOID": "UpdatedCDISCPILOT.CDISC SDTM.3.2", "metaDataVersionOID": "MDV.UpdatedCDISCPILOT.CDISC SDTM.3.2", "itemGroupOID": "{SUPPDM", "records": 1197, "name": "SUPPDM", "label": "Supplemental Qualifiers for DM", "columns": [{"itemOID": "IT.SUPPDM.STUDYID", "name": "STUDYID", "label": "Study Identifier", "dataType": "string", "length": 12, "keySequence": 1}, {"itemOID": "IT.SUPPDM.RDOMAIN", "name": "RDOMAIN", "label": "Related Domain Abbreviation", "dataType": "string", "length": 2, "keySequence": 2}, {"itemOID": "IT.SUPPDM.USUBJID", "name": "USUBJID", "label": "Unique Subject Identifier", "dataType": "string", "length": 11, "keySequence": 3}, {"itemOID": "IT.SUPPDM.IDVAR", "name": "IDVAR", "label": "Identifying Variable", "dataType": "string", "length": 8, "keySequence": 4}, {"itemOID": "IT.SUPPDM.IDVARVAL", "name": "IDVARVAL", "label": "Identifying Variable Value", "dataType": "string", "length": 200, "keySequence": 5}, {"itemOID": "IT.SUPPDM.QNAM", "name": "QNAM", "label": "Qualifier Variable Name", "dataType": "string", "length": 8, "keySequence": 6}, {"itemOID": "IT.SUPPDM.QLABEL", "name": "QLABEL", "label": "Qualifier Variable Label", "dataType": "string", "length": 40}, {"itemOID": "IT.SUPPDM.QVAL", "name": "QVAL", "label": "Data Value", "dataType": "string", "length": 200}, {"itemOID": "IT.SUPPDM.QORIG", "name": "QORIG", "label": "Origin", "dataType": "string", "length": 200}, {"itemOID": "IT.SUPPDM.QEVAL", "name": "QEVAL", "label": "Evaluator", "dataType": "string", "length": 200}]}
["CDISCPILOT01", "DM", "01-701-1015", "", "", "COMPLT16", "Completers of Week 16 Population Flag", "Y", "DERIVED", "CLINICAL STUDY SPONSOR"]
["CDISCPILOT01", "DM", "01-701-1015", "", "", "COMPLT24", "Completers of Week 24 Population Flag", "Y", "DERIVED", "CLINICAL STUDY SPONSOR"]
["CDISCPILOT01", "DM", "01-701-1015", "", "", "COMPLT8", "Completers of Week 8 Population Flag", "Y", "DERIVED", "CLINICAL STUDY SPONSOR"]
["CDISCPILOT01", "DM", "01-701-1015", "", "", "EFFICACY", "Efficacy Population Flag", "Y", "DERIVED", "CLINICAL STUDY SPONSOR"]
["CDISCPILOT01", "DM", "01-701-1015", "", "", "ITT", "Intent to Treat Population Flag", "Y", "DERIVED", "CLINICAL STUDY SPONSOR"]
["CDISCPILOT01", "DM", "01-701-1015", "", "", "SAFETY", "Safety Population Flag", "Y", "DERIVED", "CLINICAL STUDY SPONSOR"]
["CDISCPILOT01", "DM", "01-701-1023", "", "", "EFFICACY", "Efficacy Population Flag", "Y", "DERIVED", "CLINICAL STUDY SPONSOR"]
["CDISCPILOT01", "DM", "01-701-1023", "", "", "ITT", "Intent to Treat Population Flag", "Y", "DERIVED", "CLINICAL STUDY SPONSOR"]
["CDISCPILOT01", "DM", "01-701-1023", "", "", "SAFETY", "Safety Population Flag", "Y", "DERIVED", "CLINICAL STUDY SPONSOR"]
["CDISCPILOT01", "DM", "01-701-1028", "", "", "COMPLT16", "Completers of Week 16 Population Flag", "Y", "DERIVED", "CLINICAL STUDY SPONSOR"]
["CDISCPILOT01", "DM", "01-701-1028", "", "", "COMPLT24", "Completers of Week 24 Population Flag", "Y", "DERIVED", "CLINICAL STUDY SPONSOR"]
["CDISCPILOT01", "DM", "01-701-1028", "", "", "COMPLT8", "Completers of Week 8 Population Flag", "Y", "DERIVED", "CLINICAL STUDY SPONSOR"]
["CDISCPILOT01", "DM", "01-701-1028", "", "", "EFFICACY", "Efficacy Population Flag", "Y", "DERIVED", "CLINICAL STUDY SPONSOR"]
["CDISCPILOT01", "DM", "01-701-1028", "", "", "ITT", "Intent to Treat Population Flag", "Y", "DERIVED", "CLINICAL STUDY SPONSOR"]
["CDISCPILOT01", "DM", "01-701-1028", "", "", "SAFETY", "Safety Population Flag", "Y", "DERIVED", "CLINICAL STUDY SPONSOR"]
["CDISCPILOT01", "DM", "01-701-1033", "", "", "EFFICACY", "Efficacy Population Flag", "Y", "DERIVED", "CLINICAL STUDY SPONSOR"]
["CDISCPILOT01", "DM", "01-701-1033", "", "", "ITT", "Intent to Treat Population Flag", "Y", "DERIVED", "CLINICAL STUDY SPONSOR"]
["CDISCPILOT01", "DM", "01-701-1033", "", "", "SAFETY", "Safety Population Flag", "Y", "DERIVED", "CLINICAL STUDY SPONSOR"]
["CDISCPILOT01", "DM", "01-701-1034", "", "", "COMPLT16", "Completers of Week 16 Population Flag", "Y", "DERIVED", "CLINICAL STUDY SPONSOR"]
["CDISCPILOT01", "DM", "01-701-1034", "", "", "COMPLT24", "Completers of Week 24 Population Flag", "Y", "DERIVED", "CLINICAL STUDY SPONSOR"]
["CDISCPILOT01", "DM", "01-701-1034", "", "", "COMPLT8", "Completers of Week 8 Population Flag", "Y", "DERIVED", "CLINICAL STUDY SPONSOR"]
["CDISCPILOT01", "DM", "01-701-1034", "", "", "EFFICACY", "Efficacy Population Flag", "Y", "DERIVED", "CLINICAL STUDY SPONSOR"]
["CDISCPILOT01", "DM", "01-701-1034", "", "", "ITT", "Intent to Treat Population Flag", "Y", "DERIVED", "CLINICAL STUDY SPONSOR"]
["CDISCPILOT01", "DM", "01-701-1034", "", "", "SAFETY", "Safety Population Flag", "Y", "DERIVED", "CLINICAL STUDY SPONSOR"]
["CDISCPILOT01", "DM", "01-701-1047", "", "", "EFFICACY", "Efficacy Population Flag", "Y", "DERIVED", "CLINICAL STUDY SPONSOR"]
["CDISCPILOT01", "DM", "01-701-1047", "", "", "ITT", "Intent to Treat Population Flag", "Y", "DERIVED", "CLINICAL STUDY SPONSOR"]
["CDISCPILOT01", "DM", "01-701-1047", "", "", "SAFETY", "Safety Population Flag", "Y", "DERIVED", "CLINICAL STUDY SPONSOR"]
["CDISCPILOT01", "DM", "01-701-1097", "", "", "COMPLT16", "Completers of Week 16 Population Flag", "Y", "DERIVED", "CLINICAL STUDY SPONSOR"]
["CDISCPILOT01", "DM", "01-701-1097", "", "", "COMPLT24", "Completers of Week 24 Population Flag", "Y", "DERIVED", "CLINICAL STUDY SPONSOR"]
["CDISCPILOT01", "DM", "01-701-1097", "", "", "COMPLT8", "Completers of Week 8 Population Flag", "Y", "DERIVED", "CLINICAL STUDY SPONSOR"]
["CDISCPILOT01", "DM", "01-701-1097", "", "", "EFFICACY", "Efficacy Population Flag", "Y", "DERIVED", "CLINICAL STUDY SPONSOR"]
["CDISCPILOT01", "DM", "01-701-1097", "", "", "ITT", "Intent to Treat Population Flag", "Y", "DERIVED", "CLINICAL STUDY SPONSOR"]
["CDISCPILOT01", "DM", "01-701-1097", "", "", "SAFETY", "Safety Population Flag", "Y", "DERIVED", "CLINICAL STUDY SPONSOR"]
["CDISCPILOT01", "DM", "01-701-1111", "", "", "EFFICACY", "Efficacy Population Flag", "Y", "DERIVED", "CLINICAL STUDY SPONSOR"]
["CDISCPILOT01", "DM", "01-701-1111", "", "", "ITT", "Intent to Treat Population Flag", "Y", "DERIVED", "CLINICAL STUDY SPONSOR"]
["CDISCPILOT01", "DM", "01-701-1111", "", "", "SAFETY", "Safety Population Flag", "Y", "DERIVED", "CLINICAL STUDY SPONSOR"]
["CDISCPILOT01", "DM", "01-701-1115", "", "", "COMPLT8", "Completers of Week 8 Population Flag", "Y", "DERIVED", "CLINICAL STUDY SPONSOR"]
["CDISCPILOT01", "DM", "01-701-1115", "", "", "EFFICACY", "Efficacy Population Flag", "Y", "DERIVED", "CLINICAL STUDY SPONSOR"]
["CDISCPILOT01", "DM", "01-701-1115", "", "", "ITT", "Intent to Treat Population Flag", "Y", "DERIVED", "CLINICAL STUDY SPONSOR"]
["CDISCPILOT01", "DM", "01-701-1115", "", "", "SAFETY", "Safety Population Flag", "Y", "DERIVED", "CLINICAL STUDY SPONSOR"]
["CDISCPILOT01", "DM", "01-701-1118", "", "", "COMPLT16", "Completers of Week 16 Population Flag", "Y", "DERIVED", "CLINICAL STUDY SPONSOR"]
["CDISCPILOT01", "DM", "01-701-1118", "", "", "COMPLT24", "Completers of Week 24 Population Flag", "Y", "DERIVED", "CLINICAL STUDY SPONSOR"]
["CDISCPILOT01", "DM", "01-701-1118", "", "", "COMPLT8", "Completers of Week 8 Population Flag", "Y", "DERIVED", "CLINICAL STUDY SPONSOR"]
["CDISCPILOT01", "DM", "01-701-1118", "", "", "EFFICACY", "Efficacy Population Flag", "Y", "DERIVED", "CLINICAL STUDY SPONSOR"]
["CDISCPILOT01", "DM", "01-701-1118", "", "", "ITT", "Intent to Treat Population Flag", "Y", "DERIVED", "CLINICAL STUDY SPONSOR"]
["CDISCPILOT01", "DM", "01-701-1118", "", "", "SAFETY", "Safety Population Flag", "Y", "DERIVED", "CLINICAL STUDY SPONSOR"]
["CDISCPILOT01", "DM", "01-701-1130", "", "", "COMPLT16", "Completers of Week 16 Population Flag", "Y", "DERIVED", "CLINICAL STUDY SPONSOR"]
["CDISCPILOT01", "DM", "01-701-1130", "", "", "COMPLT24", "Completers of Week 24 Population Flag", "Y", "DERIVED", "CLINICAL STUDY SPONSOR"]
["CDISCPILOT01", "DM", "01-701-1130", "", "", "COMPLT8", "Completers of Week 8 Population Flag", "Y", "DERIVED", "CLINICAL STUDY SPONSOR"]
["CDISCPILOT01", "DM", "01-701-1130", "", "", "EFFICACY", "Efficacy Population Flag", "Y", "DERIVED", "CLINICAL STUDY SPONSOR"]
["CDISCPILOT01", "DM", "01-701-1130", "", "", "ITT", "Intent to Treat Population Flag", "Y", "DERIVED", "CLINICAL STUDY SPONSOR"]
["CDISCPILOT01", "DM", "01-701-1130", "", "", "SAFETY", "Safety Population Flag", "Y", "DERIVED", "CLINICAL STUDY SPONSOR"]
["CDISCPILOT01", "DM", "01-701-1133", "", "", "COMPLT16", "Completers of Week 16 Population Flag", "Y", "DERIVED", "CLINICAL STUDY SPONSOR"]
["CDISCPILOT01", "DM", "01-701-1133", "", "", "COMPLT24", "Completers of Week 24 Population Flag", "Y", "DERIVED", "CLINICAL STUDY SPONSOR"]
["CDISCPILOT01", "DM", "01-701-1133", "", "", "COMPLT8", "Completers of Week 8 Population Flag", "Y", "DERIVED", "CLINICAL STUDY SPONSOR"]
["CDISCPILOT01", "DM", "01-701-1133", "", "", "EFFICACY", "Efficacy Population Flag", "Y", "DERIVED", "CLINICAL STUDY SPONSOR"]
["CDISCPILOT01", "DM", "01-701-1133", "", "", "ITT", "Intent to Treat Population Flag", "Y", "DERIVED", "CLINICAL STUDY SPONSOR"]
["CDISCPILOT01", "DM", "01-701-1133", "", "", "SAFETY", "Safety Population Flag", "Y", "DERIVED", "CLINICAL STUDY SPONSOR"]
["CDISCPILOT01", "DM", "01-701-1146", "", "", "EFFICACY", "Efficacy Population Flag", "Y", "DERIVED", "CLINICAL STUDY SPONSOR"]
["CDISCPILOT01", "DM", "01-701-1146", "", "", "ITT", "Intent to Treat Population Flag", "Y", "DERIVED", "CLINICAL STUDY SPONSOR"]
["CDISCPILOT01", "DM", "01-701-1146", "", "", "SAFETY", "Safety Population Flag", "Y", "DERIVED", "CLINICAL STUDY SPONSOR"]
["CDISCPILOT01", "DM", "01-701-1148", "", "", "COMPLT16", "Completers of Week 16 Population Flag", "Y", "DERIVED", "CLINICAL STUDY SPONSOR"]
["CDISCPILOT01", "DM", "01-701-1148", "", "", "COMPLT24", "Completers of Week 24 Population Flag", "Y", "DERIVED", "CLINICAL STUDY SPONSOR"]
["CDISCPILOT01", "DM", "01-701-1148", "", "", "COMPLT8", "Completers of Week 8 Population Flag", "Y", "DERIVED", "CLINICAL STUDY SPONSOR"]
["CDISCPILOT01", "DM", "01-701-1148", "", "", "EFFICACY", "Efficacy Population Flag", "Y", "DERIVED", "CLINICAL STUDY SPONSOR"]
["CDISCPILOT01", "DM", "01-701-1148", "", "", "ITT", "Intent to Treat Population Flag", "Y", "DERIVED", "CLINICAL STUDY SPONSOR"]
["CDISCPILOT01", "DM", "01-701-1148", "", "", "SAFETY", "Safety Population Flag", "Y", "DERIVED", "CLINICAL STUDY SPONSOR"]
["CDISCPILOT01", "DM", "01-701-1153", "", "", "COMPLT16", "Completers of Week 16 Population Flag", "Y", "DERIVED", "CLINICAL STUDY SPONSOR"]
["CDISCPILOT01", "DM", "01-701-1153", "", "", "COMPLT24", "Completers of Week 24 Population Flag", "Y", "DERIVED", "CLINICAL STUDY SPONSOR"]
["CDISCPILOT01", "DM", "01-701-1153", "", "", "COMPLT8", "Completers of Week 8 Population Flag", "Y", "DERIVED", "CLINICAL STUDY SPONSOR"]
["CDISCPILOT01", "DM", "01-701-1153", "", "", "EFFICACY", "Efficacy Population Flag", "Y", "DERIVED", "CLINICAL STUDY SPONSOR"]
["CDISCPILOT01", "DM", "01-701-1153", "", "", "ITT", "Intent to Treat Population Flag", "Y", "DERIVED", "CLINICAL STUDY SPONSOR"]
["CDISCPILOT01", "DM", "01-701-1153", "", "", "SAFETY", "Safety Population Flag", "Y", "DERIVED", "CLINICAL STUDY SPONSOR"]
["CDISCPILOT01", "DM", "01-701-1180", "", "", "EFFICACY", "Efficacy Population Flag", "Y", "DERIVED", "CLINICAL STUDY SPONSOR"]
["CDISCPILOT01", "DM", "01-701-1180", "", "", "ITT", "Intent to Treat Population Flag", "Y", "DERIVED", "CLINICAL STUDY SPONSOR"]
["CDISCPILOT01", "DM", "01-701-1180", "", "", "SAFETY", "Safety Population Flag", "Y", "DERIVED", "CLINICAL STUDY SPONSOR"]
["CDISCPILOT01", "DM", "01-701-1181", "", "", "EFFICACY", "Efficacy Population Flag", "Y", "DERIVED", "CLINICAL STUDY SPONSOR"]
["CDISCPILOT01", "DM", "01-701-1181", "", "", "ITT", "Intent to Treat Population Flag", "Y", "DERIVED", "CLINICAL STUDY SPONSOR"]
["CDISCPILOT01", "DM", "01-701-1181", "", "", "SAFETY", "Safety Population Flag", "Y", "DERIVED", "CLINICAL STUDY SPONSOR"]
["CDISCPILOT01", "DM", "01-701-1188", "", "", "EFFICACY", "Efficacy Population Flag", "Y", "DERIVED", "CLINICAL STUDY SPONSOR"]
["CDISCPILOT01", "DM", "01-701-1188", "", "", "ITT", "Intent to Treat Population Flag", "Y", "DERIVED", "CLINICAL STUDY SPONSOR"]
["CDISCPILOT01", "DM", "01-701-1188", "", "", "SAFETY", "Safety Population Flag", "Y", "DERIVED", "CLINICAL STUDY SPONSOR"]
["CDISCPILOT01", "DM", "01-701-1192", "", "", "COMPLT16", "Completers of Week 16 Population Flag", "Y", "DERIVED", "CLINICAL STUDY SPONSOR"]
["CDISCPILOT01", "DM", "01-701-1192", "", "", "COMPLT24", "Completers of Week 24 Population Flag", "Y", "DERIVED", "CLINICAL STUDY SPONSOR"]
["CDISCPILOT01", "DM", "01-701-1192", "", "", "COMPLT8", "Completers of Week 8 Population Flag", "Y", "DERIVED", "CLINICAL STUDY SPONSOR"]
["CDISCPILOT01", "DM", "01-701-1192", "", "", "EFFICACY", "Efficacy Population Flag", "Y", "DERIVED", "CLINICAL STUDY SPONSOR"]
["CDISCPILOT01", "DM", "01-701-1192", "", "", "ITT", "Intent to Treat Population Flag", "Y", "DERIVED", "CLINICAL STUDY SPONSOR"]
["CDISCPILOT01", "DM", "01-701-1192", "", "", "SAFETY", "Safety Population Flag", "Y", "DERIVED", "CLINICAL STUDY SPONSOR"]
["CDISCPILOT01", "DM", "01-701-1203", "", "", "COMPLT16", "Completers of Week 16 Population Flag", "Y", "DERIVED", "CLINICAL STUDY SPONSOR"]
["CDISCPILOT01", "DM", "01-701-1203", "", "", "COMPLT24", "Completers of Week 24 Population Flag", "Y", "DERIVED", "CLINICAL STUDY SPONSOR"]
["CDISCPILOT01", "DM", "01-701-1203", "", "", "COMPLT8", "Completers of Week 8 Population Flag", "Y", "DERIVED", "CLINICAL STUDY SPONSOR"]
["CDISCPILOT01", "DM", "01-701-1203", "", "", "EFFICACY", "Efficacy Population Flag", "Y", "DERIVED", "CLINICAL STUDY SPONSOR"]
["CDISCPILOT01", "DM", "01-701-1203", "", "", "ITT", "Intent to Treat Population Flag", "Y", "DERIVED", "CLINICAL STUDY SPONSOR"]
["CDISCPILOT01", "DM", "01-701-1203", "", "", "SAFETY", "Safety Population Flag", "Y", "DERIVED", "CLINICAL STUDY SPONSOR"]
["CDISCPILOT01", "DM", "01-701-1211", "", "", "COMPLT8", "Completers of Week 8 Population Flag", "Y", "DERIVED", "CLINICAL STUDY SPONSOR"]
["CDISCPILOT01", "DM", "01-701-1211", "", "", "EFFICACY", "Efficacy Population Flag", "Y", "DERIVED", "CLINICAL STUDY SPONSOR"]
["CDISCPILOT01", "DM", "01-701-1211", "", "", "ITT", "Intent to Treat Population Flag", "Y", "DERIVED", "CLINICAL STUDY SPONSOR"]
["CDISCPILOT01", "DM", "01-701-1211", "", "", "SAFETY", "Safety Population Flag", "Y", "DERIVED", "CLINICAL STUDY SPONSOR"]
["CDISCPILOT01", "DM", "01-701-1234", "", "", "COMPLT16", "Completers of Week 16 Population Flag", "Y", "DERIVED", "CLINICAL STUDY SPONSOR"]
["CDISCPILOT01", "DM", "01-701-1234", "", "", "COMPLT24", "Completers of Week 24 Population Flag", "Y", "DERIVED", "CLINICAL STUDY SPONSOR"]
["CDISCPILOT01", "DM", "01-701-1234", "", "", "COMPLT8", "Completers of Week 8 Population Flag", "Y", "DERIVED", "CLINICAL STUDY SPONSOR"]
["CDISCPILOT01", "DM", "01-701-1234", "", "", "EFFICACY", "Efficacy Population Flag", "Y", "DERIVED", "CLINICAL STUDY SPONSOR"]
["CDISCPILOT01", "DM", "01-701-1234", "", "", "ITT", "Intent to Treat Population Flag", "Y", "DERIVED", "CLINICAL STUDY SPONSOR"]
["CDISCPILOT01", "DM", "01-701-1234", "", "", "SAFETY", "Safety Population Flag", "Y", "DERIVED", "CLINICAL STUDY SPONSOR"]
["CDISCPILOT01", "DM", "01-701-1239", "", "", "COMPLT16", "Completers of Week 16 Population Flag", "Y", "DERIVED", "CLINICAL STUDY SPONSOR"]
["CDISCPILOT01", "DM", "01-701-1239", "", "", "COMPLT24", "Completers of Week 24 Population Flag", "Y", "DERIVED", "CLINICAL STUDY SPONSOR"]
["CDISCPILOT01", "DM", "01-701-1239", "", "", "COMPLT8", "Completers of Week 8 Population Flag", "Y", "DERIVED", "CLINICAL STUDY SPONSOR"]
["CDISCPILOT01", "DM", "01-701-1239", "", "", "EFFICACY", "Efficacy Population Flag", "Y", "DERIVED", "CLINICAL STUDY SPONSOR"]
["CDISCPILOT01", "DM", "01-701-1239", "", "", "ITT", "Intent to Treat Population Flag", "Y", "DERIVED", "CLINICAL STUDY SPONSOR"]
["CDISCPILOT01", "DM", "01-701-1239", "", "", "SAFETY", "Safety Population Flag", "Y", "DERIVED", "CLINICAL STUDY SPONSOR"]
["CDISCPILOT01", "DM", "01-701-1275", "", "", "COMPLT16", "Completers of Week 16 Population Flag", "Y", "DERIVED", "CLINICAL STUDY SPONSOR"]
["CDISCPILOT01", "DM", "01-701-1275", "", "", "COMPLT8", "Completers of Week 8 Population Flag", "Y", "DERIVED", "CLINICAL STUDY SPONSOR"]
["CDISCPILOT01", "DM", "01-701-1275", "", "", "EFFICACY", "Efficacy Population Flag", "Y", "DERIVED", "CLINICAL STUDY SPONSOR"]
["CDISCPILOT01", "DM", "01-701-1275", "", "", "ITT", "Intent to Treat Population Flag", "Y", "DERIVED", "CLINICAL STUDY SPONSOR"]
["CDISCPILOT01", "DM", "01-701-1275", "", "", "SAFETY", "Safety Population Flag", "Y", "DERIVED", "CLINICAL STUDY SPONSOR"]
["CDISCPILOT01", "DM", "01-701-1287", "", "", "COMPLT16", "Completers of Week 16 Population Flag", "Y", "DERIVED", "CLINICAL STUDY SPONSOR"]
["CDISCPILOT01", "DM", "01-701-1287", "", "", "COMPLT24", "Completers of Week 24 Population Flag", "Y", "DERIVED", "CLINICAL STUDY SPONSOR"]
["CDISCPILOT01", "DM", "01-701-1287", "", "", "COMPLT8", "Completers of Week 8 Population Flag", "Y", "DERIVED", "CLINICAL STUDY SPONSOR"]
["CDISCPILOT01", "DM", "01-701-1287", "", "", "EFFICACY", "Efficacy Population Flag", "Y", "DERIVED", "CLINICAL STUDY SPONSOR"]
["CDISCPILOT01", "DM", "01-701-1287", "", "", "ITT", "Intent to Treat Population Flag", "Y", "DERIVED", "CLINICAL STUDY SPONSOR"]
["CDISCPILOT01", "DM", "01-701-1287", "", "", "SAFETY", "Safety Population Flag", "Y", "DERIVED", "CLINICAL STUDY SPONSOR"]
["CDISCPILOT01", "DM", "01-701-1294", "", "", "COMPLT8", "Completers of Week 8 Population Flag", "Y", "DERIVED", "CLINICAL STUDY SPONSOR"]
["CDISCPILOT01", "DM", "01-701-1294", "", "", "EFFICACY", "Efficacy Population Flag", "Y", "DERIVED", "CLINICAL STUDY SPONSOR"]
["CDISCPILOT01", "DM", "01-701-1294", "", "", "ITT", "Intent to Treat Population Flag", "Y", "DERIVED", "CLINICAL STUDY SPONSOR"]
["CDISCPILOT01", "DM", "01-701-1294", "", "", "SAFETY", "Safety Population Flag", "Y", "DERIVED", "CLINICAL STUDY SPONSOR"]
["CDISCPILOT01", "DM", "01-701-1302", "", "", "COMPLT8", "Completers of Week 8 Population Flag", "Y", "DERIVED", "CLINICAL STUDY SPONSOR"]
["CDISCPILOT01", "DM", "01-701-1302", "", "", "EFFICACY", "Efficacy Population Flag", "Y", "DERIVED", "CLINICAL STUDY SPONSOR"]
["CDISCPILOT01", "DM", "01-701-1302", "", "", "ITT", "Intent to Treat Population Flag", "Y", "DERIVED", "CLINICAL STUDY SPONSOR"]
["CDISCPILOT01", "DM", "01-701-1302", "", "", "SAFETY", "Safety Population Flag", "Y", "DERIVED", "CLINICAL STUDY SPONSOR"]
["CDISCPILOT01", "DM", "01-701-1317", "", "", "COMPLT16", "Completers of Week 16 Population Flag", "Y", "DERIVED", "CLINICAL STUDY SPONSOR"]
["CDISCPILOT01", "DM", "01-701-1317", "", "", "COMPLT24", "Completers of Week 24 Population Flag", "Y", "DERIVED", "CLINICAL STUDY SPONSOR"]
["CDISCPILOT01", "DM", "01-701-1317", "", "", "COMPLT8", "Completers of Week 8 Population Flag", "Y", "DERIVED", "CLINICAL STUDY SPONSOR"]
["CDISCPILOT01", "DM", "01-701-1317", "", "", "EFFICACY", "Efficacy Population Flag", "Y", "DERIVED", "CLINICAL STUDY SPONSOR"]
["CDISCPILOT01", "DM", "01-701-1317", "", "", "ITT", "Intent to Treat Population Flag", "Y", "DERIVED", "CLINICAL STUDY SPONSOR"]
["CDISCPILOT01", "DM", "01-701-1317", "", "", "SAFETY", "Safety Population Flag", "Y", "DERIVED", "CLINICAL STUDY SPONSOR"]
["CDISCPILOT01", "DM", "01-701-1324", "", "", "COMPLT16", "Completers of Week 16 Population Flag", "Y", "DERIVED", "CLINICAL STUDY SPONSOR"]
["CDISCPILOT01", "DM", "01-701-1324", "", "", "COMPLT24", "Completers of Week 24 Population Flag", "Y", "DERIVED", "CLINICAL STUDY SPONSOR"]
["CDISCPILOT01", "DM", "01-701-1324", "", "", "COMPLT8", "Completers of Week 8 Population Flag", "Y", "DERIVED", "CLINICAL STUDY SPONSOR"]
["CDISCPILOT01", "DM", "01-701-1324", "", "", "EFFICACY", "Efficacy Population Flag", "Y", "DERIVED", "CLINICAL STUDY SPONSOR"]
["CDISCPILOT01", "DM", "01-701-1324", "", "", "ITT", "Intent to Treat Population Flag", "Y", "DERIVED", "CLINICAL STUDY SPONSOR"]
["CDISCPILOT01", "DM", "01-701-1324", "", "", "SAFETY", "Safety Population Flag", "Y", "DERIVED", "CLINICAL STUDY SPONSOR"]
["CDISCPILOT01", "DM", "01-701-1341", "", "", "EFFICACY", "Efficacy Population Flag", "Y", "DERIVED", "CLINICAL STUDY SPONSOR"]
["CDISCPILOT01", "DM", "01-701-1341", "", "", "ITT", "Intent to Treat Population Flag", "Y", "DERIVED", "CLINICAL STUDY SPONSOR"]
["CDISCPILOT01", "DM", "01-701-1341", "", "", "SAFETY", "Safety Population Flag", "Y", "DERIVED", "CLINICAL STUDY SPONSOR"]
["CDISCPILOT01", "DM", "01-701-1345", "", "", "COMPLT16", "Completers of Week 16 Population Flag", "Y", "DERIVED", "CLINICAL STUDY SPONSOR"]
["CDISCPILOT01", "DM", "01-701-1345", "", "", "COMPLT24", "Completers of Week 24 Population Flag", "Y", "DERIVED", "CLINICAL STUDY SPONSOR"]
["CDISCPILOT01", "DM", "01-701-1345", "", "", "COMPLT8", "Completers of Week 8 Population Flag", "Y", "DERIVED", "CLINICAL STUDY SPONSOR"]
["CDISCPILOT01", "DM", "01-701-1345", "", "", "EFFICACY", "Efficacy Population Flag", "Y", "DERIVED", "CLINICAL STUDY SPONSOR"]
["CDISCPILOT01", "DM", "01-701-1345", "", "", "ITT", "Intent to Treat Population Flag", "Y", "DERIVED", "CLINICAL STUDY SPONSOR"]
["CDISCPILOT01", "DM", "01-701-1345", "", "", "SAFETY", "Safety Population Flag", "Y", "DERIVED", "CLINICAL STUDY SPONSOR"]
["CDISCPILOT01", "DM", "01-701-1360", "", "", "EFFICACY", "Efficacy Population Flag", "Y", "DERIVED", "CLINICAL STUDY SPONSOR"]
["CDISCPILOT01", "DM", "01-701-1360", "", "", "ITT", "Intent to Treat Population Flag", "Y", "DERIVED", "CLINICAL STUDY SPONSOR"]
["CDISCPILOT01", "DM", "01-701-1360", "", "", "SAFETY", "Safety Population Flag", "Y", "DERIVED", "CLINICAL STUDY SPONSOR"]
["CDISCPILOT01", "DM", "01-701-1363", "", "", "COMPLT16", "Completers of Week 16 Population Flag", "Y", "DERIVED", "CLINICAL STUDY SPONSOR"]
["CDISCPILOT01", "DM", "01-701-1363", "", "", "COMPLT24", "Completers of Week 24 Population Flag", "Y", "DERIVED", "CLINICAL STUDY SPONSOR"]
["CDISCPILOT01", "DM", "01-701-1363", "", "", "COMPLT8", "Completers of Week 8 Population Flag", "Y", "DERIVED", "CLINICAL STUDY SPONSOR"]
["CDISCPILOT01", "DM", "01-701-1363", "", "", "EFFICACY", "Efficacy Population Flag", "Y", "DERIVED", "CLINICAL STUDY SPONSOR"]
["CDISCPILOT01", "DM", "01-701-1363", "", "", "ITT", "Intent to Treat Population Flag", "Y", "DERIVED", "CLINICAL STUDY SPONSOR"]
["CDISCPILOT01", "DM", "01-701-1363", "", "", "SAFETY", "Safety Population Flag", "Y", "DERIVED", "CLINICAL STUDY SPONSOR"]
["CDISCPILOT01", "DM", "01-701-1383", "", "", "COMPLT16", "Completers of Week 16 Population Flag", "Y", "DERIVED", "CLINICAL STUDY SPONSOR"]
["CDISCPILOT01", "DM", "01-701-1383", "", "", "COMPLT24", "Completers of Week 24 Population Flag", "Y", "DERIVED", "CLINICAL STUDY SPONSOR"]
["CDISCPILOT01", "DM", "01-701-1383", "", "", "COMPLT8", "Completers of Week 8 Population Flag", "Y", "DERIVED", "CLINICAL STUDY SPONSOR"]
["CDISCPILOT01", "DM", "01-701-1383", "", "", "EFFICACY", "Efficacy Population Flag", "Y", "DERIVED", "CLINICAL STUDY SPONSOR"]
["CDISCPILOT01", "DM", "01-701-1383", "", "", "ITT", "Intent to Treat Population Flag", "Y", "DERIVED", "CLINICAL STUDY SPONSOR"]
["CDISCPILOT01", "DM", "01-701-1383", "", "", "SAFETY", "Safety Population Flag", "Y", "DERIVED", "CLINICAL STUDY SPONSOR"]
["CDISCPILOT01", "DM", "01-701-1387", "", "", "EFFICACY", "Efficacy Population Flag", "Y", "DERIVED", "CLINICAL STUDY SPONSOR"]
["CDISCPILOT01", "DM", "01-701-1387", "", "", "ITT", "Intent to Treat Population Flag", "Y", "DERIVED", "CLINICAL STUDY SPONSOR"]
["CDISCPILOT01", "DM", "01-701-1387", "", "", "SAFETY", "Safety Population Flag", "Y", "DERIVED", "CLINICAL STUDY SPONSOR"]
["CDISCPILOT01", "DM", "01-701-1392", "", "", "COMPLT16", "Completers of Week 16 Population Flag", "Y", "DERIVED", "CLINICAL STUDY SPONSOR"]
["CDISCPILOT01", "DM", "01-701-1392", "", "", "COMPLT24", "Completers of Week 24 Population Flag", "Y", "DERIVED", "CLINICAL STUDY SPONSOR"]
["CDISCPILOT01", "DM", "01-701-1392", "", "", "COMPLT8", "Completers of Week 8 Population Flag", "Y", "DERIVED", "CLINICAL STUDY SPONSOR"]
["CDISCPILOT01", "DM", "01-701-1392", "", "", "EFFICACY", "Efficacy Population Flag", "Y", "DERIVED", "CLINICAL STUDY SPONSOR"]
["CDISCPILOT01", "DM", "01-701-1392", "", "", "ITT", "Intent to Treat Population Flag", "Y", "DERIVED", "CLINICAL STUDY SPONSOR"]
["CDISCPILOT01", "DM", "01-701-1392", "", "", "SAFETY", "Safety Population Flag", "Y", "DERIVED", "CLINICAL STUDY SPONSOR"]
["CDISCPILOT01", "DM", "01-701-1415", "", "", "COMPLT16", "Completers of Week 16 Population Flag", "Y", "DERIVED", "CLINICAL STUDY SPONSOR"]
["CDISCPILOT01", "DM", "01-701-1415", "", "", "COMPLT24", "Completers of Week 24 Population Flag", "Y", "DERIVED", "CLINICAL STUDY SPONSOR"]
["CDISCPILOT01", "DM", "01-701-1415", "", "", "COMPLT8", "Completers of Week 8 Population Flag", "Y", "DERIVED", "CLINICAL STUDY SPONSOR"]
["CDISCPILOT01", "DM", "01-701-1415", "", "", "EFFICACY", "Efficacy Population Flag", "Y", "DERIVED", "CLINICAL STUDY SPONSOR"]
["CDISCPILOT01", "DM", "01-701-1415", "", "", "ITT", "Intent to Treat Population Flag", "Y", "DERIVED", "CLINICAL STUDY SPONSOR"]
["CDISCPILOT01", "DM", "01-701-1415", "", "", "SAFETY", "Safety Population Flag", "Y", "DERIVED", "CLINICAL STUDY SPONSOR"]
["CDISCPILOT01", "DM", "01-701-1429", "", "", "EFFICACY", "Efficacy Population Flag", "Y", "DERIVED", "CLINICAL STUDY SPONSOR"]
["CDISCPILOT01", "DM", "01-701-1429", "", "", "ITT", "Intent to Treat Population Flag", "Y", "DERIVED", "CLINICAL STUDY SPONSOR"]
["CDISCPILOT01", "DM", "01-701-1429", "", "", "SAFETY", "Safety Population Flag", "Y", "DERIVED", "CLINICAL STUDY SPONSOR"]
["CDISCPILOT01", "DM", "01-701-1440", "", "", "COMPLT16", "Completers of Week 16 Population Flag", "Y", "DERIVED", "CLINICAL STUDY SPONSOR"]
["CDISCPILOT01", "DM", "01-701-1440", "", "", "COMPLT24", "Completers of Week 24 Population Flag", "Y", "DERIVED", "CLINICAL STUDY SPONSOR"]
["CDISCPILOT01", "DM", "01-701-1440", "", "", "COMPLT8", "Completers of Week 8 Population Flag", "Y", "DERIVED", "CLINICAL STUDY SPONSOR"]
["CDISCPILOT01", "DM", "01-701-1440", "", "", "EFFICACY", "Efficacy Population Flag", "Y", "DERIVED", "CLINICAL STUDY SPONSOR"]
["CDISCPILOT01", "DM", "01-701-1440", "", "", "ITT", "Intent to Treat Population Flag", "Y", "DERIVED", "CLINICAL STUDY SPONSOR"]
["CDISCPILOT01", "DM", "01-701-1440", "", "", "SAFETY", "Safety Population Flag", "Y", "DERIVED", "CLINICAL STUDY SPONSOR"]
["CDISCPILOT01", "DM", "01-701-1442", "", "", "COMPLT16", "Completers of Week 16 Population Flag", "Y", "DERIVED", "CLINICAL STUDY SPONSOR"]
["CDISCPILOT01", "DM", "01-701-1442", "", "", "COMPLT24", "Completers of Week 24 Population Flag", "Y", "DERIVED", "CLINICAL STUDY SPONSOR"]
["CDISCPILOT01", "DM", "01-701-1442", "", "", "COMPLT8", "Completers of Week 8 Population Flag", "Y", "DERIVED", "CLINICAL STUDY SPONSOR"]
["CDISCPILOT01", "DM", "01-701-1442", "", "", "EFFICACY", "Efficacy Population Flag", "Y", "DERIVED", "CLINICAL STUDY SPONSOR"]
["CDISCPILOT01", "DM", "01-701-1442", "", "", "ITT", "Intent to Treat Population Flag", "Y", "DERIVED", "CLINICAL STUDY SPONSOR"]
["CDISCPILOT01", "DM", "01-701-1442", "", "", "SAFETY", "Safety Population Flag", "Y", "DERIVED", "CLINICAL STUDY SPONSOR"]
["CDISCPILOT01", "DM", "01-701-1444", "", "", "EFFICACY", "Efficacy Population Flag", "Y", "DERIVED", "CLINICAL STUDY SPONSOR"]
["CDISCPILOT01", "DM", "01-701-1444", "", "", "ITT", "Intent to Treat Population Flag", "Y", "DERIVED", "CLINICAL STUDY SPONSOR"]
["CDISCPILOT01", "DM", "01-701-1444", "", "", "SAFETY", "Safety Population Flag", "Y", "DERIVED", "CLINICAL STUDY SPONSOR"]
["CDISCPILOT01", "DM", "01-702-1082", "", "", "COMPLT8", "Completers of Week 8 Population Flag", "Y", "DERIVED", "CLINICAL STUDY SPONSOR"]
["CDISCPILOT01", "DM", "01-702-1082", "", "", "EFFICACY", "Efficacy Population Flag", "Y", "DERIVED", "CLINICAL STUDY SPONSOR"]
["CDISCPILOT01", "DM", "01-702-1082", "", "", "ITT", "Intent to Treat Population Flag", "Y", "DERIVED", "CLINICAL STUDY SPONSOR"]
["CDISCPILOT01", "DM", "01-702-1082", "", "", "SAFETY", "Safety Population Flag", "Y", "DERIVED", "CLINICAL STUDY SPONSOR"]
["CDISCPILOT01", "DM", "01-703-1042", "", "", "COMPLT16", "Completers of Week 16 Population Flag", "Y", "DERIVED", "CLINICAL STUDY SPONSOR"]
["CDISCPILOT01", "DM", "01-703-1042", "", "", "COMPLT24", "Completers of Week 24 Population Flag", "Y", "DERIVED", "CLINICAL STUDY SPONSOR"]
["CDISCPILOT01", "DM", "01-703-1042", "", "", "COMPLT8", "Completers of Week 8 Population Flag", "Y", "DERIVED", "CLINICAL STUDY SPONSOR"]
["CDISCPILOT01", "DM", "01-703-1042", "", "", "EFFICACY", "Efficacy Population Flag", "Y", "DERIVED", "CLINICAL STUDY SPONSOR"]
["CDISCPILOT01", "DM", "01-703-1042", "", "", "ITT", "Intent to Treat Population Flag", "Y", "DERIVED", "CLINICAL STUDY SPONSOR"]
["CDISCPILOT01", "DM", "01-703-1042", "", "", "SAFETY", "Safety Population Flag", "Y", "DERIVED", "CLINICAL STUDY SPONSOR"]
["CDISCPILOT01", "DM", "01-703-1076", "", "", "COMPLT8", "Completers of Week 8 Population Flag", "Y", "DERIVED", "CLINICAL STUDY SPONSOR"]
["CDISCPILOT01", "DM", "01-703-1076", "", "", "EFFICACY", "Efficacy Population Flag", "Y", "DERIVED", "CLINICAL STUDY SPONSOR"]
["CDISCPILOT01", "DM", "01-703-1076", "", "", "ITT", "Intent to Treat Population Flag", "Y", "DERIVED", "CLINICAL STUDY SPONSOR"]
["CDISCPILOT01", "DM", "01-703-1076", "", "", "SAFETY", "Safety Population Flag", "Y", "DERIVED", "CLINICAL STUDY SPONSOR"]
["CDISCPILOT01", "DM", "01-703-1086", "", "", "COMPLT16", "Completers of Week 16 Population Flag", "Y", "DERIVED", "CLINICAL STUDY SPONSOR"]
["CDISCPILOT01", "DM", "01-703-1086", "", "", "COMPLT8", "Completers of Week 8 Population Flag", "Y", "DERIVED", "CLINICAL STUDY SPONSOR"]
["CDISCPILOT01", "DM", "01-703-1086", "", "", "EFFICACY", "Efficacy Population Flag", "Y", "DERIVED", "CLINICAL STUDY SPONSOR"]
["CDISCPILOT01", "DM", "01-703-1086", "", "", "ITT", "Intent to Treat Population Flag", "Y", "DERIVED", "CLINICAL STUDY SPONSOR"]
["CDISCPILOT01", "DM", "01-703-1086", "", "", "SAFETY", "Safety Population Flag", "Y", "DERIVED", "CLINICAL STUDY SPONSOR"]
["CDISCPILOT01", "DM", "01-703-1096", "", "", "ITT", "Intent to Treat Population Flag", "Y", "DERIVED", "CLINICAL STUDY SPONSOR"]
["CDISCPILOT01", "DM", "01-703-1096", "", "", "SAFETY", "Safety Population Flag", "Y", "DERIVED", "CLINICAL STUDY SPONSOR"]
["CDISCPILOT01", "DM", "01-703-1100", "", "", "COMPLT16", "Completers of Week 16 Population Flag", "Y", "DERIVED", "CLINICAL STUDY SPONSOR"]
["CDISCPILOT01", "DM", "01-703-1100", "", "", "COMPLT24", "Completers of Week 24 Population Flag", "Y", "DERIVED", "CLINICAL STUDY SPONSOR"]
["CDISCPILOT01", "DM", "01-703-1100", "", "", "COMPLT8", "Completers of Week 8 Population Flag", "Y", "DERIVED", "CLINICAL STUDY SPONSOR"]
["CDISCPILOT01", "DM", "01-703-1100", "", "", "EFFICACY", "Efficacy Population Flag", "Y", "DERIVED", "CLINICAL STUDY SPONSOR"]
["CDISCPILOT01", "DM", "01-703-1100", "", "", "ITT", "Intent to Treat Population Flag", "Y", "DERIVED", "CLINICAL STUDY SPONSOR"]
["CDISCPILOT01", "DM", "01-703-1100", "", "", "SAFETY", "Safety Population Flag", "Y", "DERIVED", "CLINICAL STUDY SPONSOR"]
["CDISCPILOT01", "DM", "01-703-1119", "", "", "COMPLT16", "Completers of Week 16 Population Flag", "Y", "DERIVED", "CLINICAL STUDY SPONSOR"]
["CDISCPILOT01", "DM", "01-703-1119", "", "", "COMPLT8", "Completers of Week 8 Population Flag", "Y", "DERIVED", "CLINICAL STUDY SPONSOR"]
["CDISCPILOT01", "DM", "01-703-1119", "", "", "EFFICACY", "Efficacy Population Flag", "Y", "DERIVED", "CLINICAL STUDY SPONSOR"]
["CDISCPILOT01", "DM", "01-703-1119", "", "", "ITT", "Intent to Treat Population Flag", "Y", "DERIVED", "CLINICAL STUDY SPONSOR"]
["CDISCPILOT01", "DM", "01-703-1119", "", "", "SAFETY", "Safety Population Flag", "Y", "DERIVED", "CLINICAL STUDY SPONSOR"]
["CDISCPILOT01", "DM", "01-703-1175", "", "", "EFFICACY", "Efficacy Population Flag", "Y", "DERIVED", "CLINICAL STUDY SPONSOR"]
["CDISCPILOT01", "DM", "01-703-1175", "", "", "ITT", "Intent to Treat Population Flag", "Y", "DERIVED", "CLINICAL STUDY SPONSOR"]
["CDISCPILOT01", "DM", "01-703-1175", "", "", "SAFETY", "Safety Population Flag", "Y", "DERIVED", "CLINICAL STUDY SPONSOR"]
["CDISCPILOT01", "DM", "01-703-1182", "", "", "COMPLT8", "Completers of Week 8 Population Flag", "Y", "DERIVED", "CLINICAL STUDY SPONSOR"]
["CDISCPILOT01", "DM", "01-703-1182", "", "", "EFFICACY", "Efficacy Population Flag", "Y", "DERIVED", "CLINICAL STUDY SPONSOR"]
["CDISCPILOT01", "DM", "01-703-1182", "", "", "ITT", "Intent to Treat Population Flag", "Y", "DERIVED", "CLINICAL STUDY SPONSOR"]
["CDISCPILOT01", "DM", "01-703-1182", "", "", "SAFETY", "Safety Population Flag", "Y", "DERIVED", "CLINICAL STUDY SPONSOR"]
["CDISCPILOT01", "DM", "01-703-1197", "", "", "EFFICACY", "Efficacy Population Flag", "Y", "DERIVED", "CLINICAL STUDY SPONSOR"]
["CDISCPILOT01", "DM", "01-703-1197", "", "", "ITT", "Intent to Treat Population Flag", "Y", "DERIVED", "CLINICAL STUDY SPONSOR"]
["CDISCPILOT01", "DM", "01-703-1197", "", "", "SAFETY", "Safety Population Flag", "Y", "DERIVED", "CLINICAL STUDY SPONSOR"]
["CDISCPILOT01", "DM", "01-703-1210", "", "", "COMPLT16", "Completers of Week 16 Population Flag", "Y", "DERIVED", "CLINICAL STUDY SPONSOR"]
["CDISCPILOT01", "DM", "01-703-1210", "", "", "COMPLT24", "Completers of Week 24 Population Flag", "Y", "DERIVED", "CLINICAL STUDY SPONSOR"]
["CDISCPILOT01", "DM", "01-703-1210", "", "", "COMPLT8", "Completers of Week 8 Population Flag", "Y", "DERIVED", "CLINICAL STUDY SPONSOR"]
["CDISCPILOT01", "DM", "01-703-1210", "", "", "EFFICACY", "Efficacy Population Flag", "Y", "DERIVED", "CLINICAL STUDY SPONSOR"]
["CDISCPILOT01", "DM", "01-703-1210", "", "", "ITT", "Intent to Treat Population Flag", "Y", "DERIVED", "CLINICAL STUDY SPONSOR"]
["CDISCPILOT01", "DM", "01-703-1210", "", "", "SAFETY", "Safety Population Flag", "Y", "DERIVED", "CLINICAL STUDY SPONSOR"]
["CDISCPILOT01", "DM", "01-703-1258", "", "", "COMPLT16", "Completers of Week 16 Population Flag", "Y", "DERIVED", "CLINICAL STUDY SPONSOR"]
["CDISCPILOT01", "DM", "01-703-1258", "", "", "COMPLT24", "Completers of Week 24 Population Flag", "Y", "DERIVED", "CLINICAL STUDY SPONSOR"]
["CDISCPILOT01", "DM", "01-703-1258", "", "", "COMPLT8", "Completers of Week 8 Population Flag", "Y", "DERIVED", "CLINICAL STUDY SPONSOR"]
["CDISCPILOT01", "DM", "01-703-1258", "", "", "EFFICACY", "Efficacy Population Flag", "Y", "DERIVED", "CLINICAL STUDY SPONSOR"]
["CDISCPILOT01", "DM", "01-703-1258", "", "", "ITT", "Intent to Treat Population Flag", "Y", "DERIVED", "CLINICAL STUDY SPONSOR"]
["CDISCPILOT01", "DM", "01-703-1258", "", "", "SAFETY", "Safety Population Flag", "Y", "DERIVED", "CLINICAL STUDY SPONSOR"]
["CDISCPILOT01", "DM", "01-703-1279", "", "", "ITT", "Intent to Treat Population Flag", "Y", "DERIVED", "CLINICAL STUDY SPONSOR"]
["CDISCPILOT01", "DM", "01-703-1279", "", "", "SAFETY", "Safety Population Flag", "Y", "DERIVED", "CLINICAL STUDY SPONSOR"]
["CDISCPILOT01", "DM", "01-703-1295", "", "", "COMPLT16", "Completers of Week 16 Population Flag", "Y", "DERIVED", "CLINICAL STUDY SPONSOR"]
["CDISCPILOT01", "DM", "01-703-1295", "", "", "COMPLT8", "Completers of Week 8 Population Flag", "Y", "DERIVED", "CLINICAL STUDY SPONSOR"]
["CDISCPILOT01", "DM", "01-703-1295", "", "", "EFFICACY", "Efficacy Population Flag", "Y", "DERIVED", "CLINICAL STUDY SPONSOR"]
["CDISCPILOT01", "DM", "01-703-1295", "", "", "ITT", "Intent to Treat Population Flag", "Y", "DERIVED", "CLINICAL STUDY SPONSOR"]
["CDISCPILOT01", "DM", "01-703-1295", "", "", "SAFETY", "Safety Population Flag", "Y", "DERIVED", "CLINICAL STUDY SPONSOR"]
["CDISCPILOT01", "DM", "01-703-1299", "", "", "COMPLT16", "Completers of Week 16 Population Flag", "Y", "DERIVED", "CLINICAL STUDY SPONSOR"]
["CDISCPILOT01", "DM", "01-703-1299", "", "", "COMPLT24", "Completers of Week 24 Population Flag", "Y", "DERIVED", "CLINICAL STUDY SPONSOR"]
["CDISCPILOT01", "DM", "01-703-1299", "", "", "COMPLT8", "Completers of Week 8 Population Flag", "Y", "DERIVED", "CLINICAL STUDY SPONSOR"]
["CDISCPILOT01", "DM", "01-703-1299", "", "", "EFFICACY", "Efficacy Population Flag", "Y", "DERIVED", "CLINICAL STUDY SPONSOR"]
["CDISCPILOT01", "DM", "01-703-1299", "", "", "ITT", "Intent to Treat Population Flag", "Y", "DERIVED", "CLINICAL STUDY SPONSOR"]
["CDISCPILOT01", "DM", "01-703-1299", "", "", "SAFETY", "Safety Population Flag", "Y", "DERIVED", "CLINICAL STUDY SPONSOR"]
["CDISCPILOT01", "DM", "01-703-1335", "", "", "EFFICACY", "Efficacy Population Flag", "Y", "DERIVED", "CLINICAL STUDY SPONSOR"]
["CDISCPILOT01", "DM", "01-703-1335", "", "", "ITT", "Intent to Treat Population Flag", "Y", "DERIVED", "CLINICAL STUDY SPONSOR"]
["CDISCPILOT01", "DM", "01-703-1335", "", "", "SAFETY", "Safety Population Flag", "Y", "DERIVED", "CLINICAL STUDY SPONSOR"]
["CDISCPILOT01", "DM", "01-703-1379", "", "", "COMPLT16", "Completers of Week 16 Population Flag", "Y", "DERIVED", "CLINICAL STUDY SPONSOR"]
["CDISCPILOT01", "DM", "01-703-1379", "", "", "COMPLT24", "Completers of Week 24 Population Flag", "Y", "DERIVED", "CLINICAL STUDY SPONSOR"]
["CDISCPILOT01", "DM", "01-703-1379", "", "", "COMPLT8", "Completers of Week 8 Population Flag", "Y", "DERIVED", "CLINICAL STUDY SPONSOR"]
["CDISCPILOT01", "DM", "01-703-1379", "", "", "EFFICACY", "Efficacy Population Flag", "Y", "DERIVED", "CLINICAL STUDY SPONSOR"]
["CDISCPILOT01", "DM", "01-703-1379", "", "", "ITT", "Intent to Treat Population Flag", "Y", "DERIVED", "CLINICAL STUDY SPONSOR"]
["CDISCPILOT01", "DM", "01-703-1379", "", "", "SAFETY", "Safety Population Flag", "Y", "DERIVED", "CLINICAL STUDY SPONSOR"]
["CDISCPILOT01", "DM", "01-703-1403", "", "", "ITT", "Intent to Treat Population Flag", "Y", "DERIVED", "CLINICAL STUDY SPONSOR"]
["CDISCPILOT01", "DM", "01-703-1403", "", "", "SAFETY", "Safety Population Flag", "Y", "DERIVED", "CLINICAL STUDY SPONSOR"]
["CDISCPILOT01", "DM", "01-703-1439", "", "", "COMPLT16", "Completers of Week 16 Population Flag", "Y", "DERIVED", "CLINICAL STUDY SPONSOR"]
["CDISCPILOT01", "DM", "01-703-1439", "", "", "COMPLT24", "Completers of Week 24 Population Flag", "Y", "DERIVED", "CLINICAL STUDY SPONSOR"]
["CDISCPILOT01", "DM", "01-703-1439", "", "", "COMPLT8", "Completers of Week 8 Population Flag", "Y", "DERIVED", "CLINICAL STUDY SPONSOR"]
["CDISCPILOT01", "DM", "01-703-1439", "", "", "EFFICACY", "Efficacy Population Flag", "Y", "DERIVED", "CLINICAL STUDY SPONSOR"]
["CDISCPILOT01", "DM", "01-703-1439", "", "", "ITT", "Intent to Treat Population Flag", "Y", "DERIVED", "CLINICAL STUDY SPONSOR"]
["CDISCPILOT01", "DM", "01-703-1439", "", "", "SAFETY", "Safety Population Flag", "Y", "DERIVED", "CLINICAL STUDY SPONSOR"]
["CDISCPILOT01", "DM", "01-704-1008", "", "", "EFFICACY", "Efficacy Population Flag", "Y", "DERIVED", "CLINICAL STUDY SPONSOR"]
["CDISCPILOT01", "DM", "01-704-1008", "", "", "ITT", "Intent to Treat Population Flag", "Y", "DERIVED", "CLINICAL STUDY SPONSOR"]
["CDISCPILOT01", "DM", "01-704-1008", "", "", "SAFETY", "Safety Population Flag", "Y", "DERIVED", "CLINICAL STUDY SPONSOR"]
["CDISCPILOT01", "DM", "01-704-1009", "", "", "EFFICACY", "Efficacy Population Flag", "Y", "DERIVED", "CLINICAL STUDY SPONSOR"]
["CDISCPILOT01", "DM", "01-704-1009", "", "", "ITT", "Intent to Treat Population Flag", "Y", "DERIVED", "CLINICAL STUDY SPONSOR"]
["CDISCPILOT01", "DM", "01-704-1009", "", "", "SAFETY", "Safety Population Flag", "Y", "DERIVED", "CLINICAL STUDY SPONSOR"]
["CDISCPILOT01", "DM", "01-704-1010", "", "", "COMPLT16", "Completers of Week 16 Population Flag", "Y", "DERIVED", "CLINICAL STUDY SPONSOR"]
["CDISCPILOT01", "DM", "01-704-1010", "", "", "COMPLT8", "Completers of Week 8 Population Flag", "Y", "DERIVED", "CLINICAL STUDY SPONSOR"]
["CDISCPILOT01", "DM", "01-704-1010", "", "", "EFFICACY", "Efficacy Population Flag", "Y", "DERIVED", "CLINICAL STUDY SPONSOR"]
["CDISCPILOT01", "DM", "01-704-1010", "", "", "ITT", "Intent to Treat Population Flag", "Y", "DERIVED", "CLINICAL STUDY SPONSOR"]
["CDISCPILOT01", "DM", "01-704-1010", "", "", "SAFETY", "Safety Population Flag", "Y", "DERIVED", "CLINICAL STUDY SPONSOR"]
["CDISCPILOT01", "DM", "01-704-1017", "", "", "EFFICACY", "Efficacy Population Flag", "Y", "DERIVED", "CLINICAL STUDY SPONSOR"]
["CDISCPILOT01", "DM", "01-704-1017", "", "", "ITT", "Intent to Treat Population Flag", "Y", "DERIVED", "CLINICAL STUDY SPONSOR"]
["CDISCPILOT01", "DM", "01-704-1017", "", "", "SAFETY", "Safety Population Flag", "Y", "DERIVED", "CLINICAL STUDY SPONSOR"]
["CDISCPILOT01", "DM", "01-704-1025", "", "", "EFFICACY", "Efficacy Population Flag", "Y", "DERIVED", "CLINICAL STUDY SPONSOR"]
["CDISCPILOT01", "DM", "01-704-1025", "", "", "ITT", "Intent to Treat Population Flag", "Y", "DERIVED", "CLINICAL STUDY SPONSOR"]
["CDISCPILOT01", "DM", "01-704-1025", "", "", "SAFETY", "Safety Population Flag", "Y", "DERIVED", "CLINICAL STUDY SPONSOR"]
["CDISCPILOT01", "DM", "01-704-1065", "", "", "COMPLT8", "Completers of Week 8 Population Flag", "Y", "DERIVED", "CLINICAL STUDY SPONSOR"]
["CDISCPILOT01", "DM", "01-704-1065", "", "", "EFFICACY", "Efficacy Population Flag", "Y", "DERIVED", "CLINICAL STUDY SPONSOR"]
["CDISCPILOT01", "DM", "01-704-1065", "", "", "ITT", "Intent to Treat Population Flag", "Y", "DERIVED", "CLINICAL STUDY SPONSOR"]
["CDISCPILOT01", "DM", "01-704-1065", "", "", "SAFETY", "Safety Population Flag", "Y", "DERIVED", "CLINICAL STUDY SPONSOR"]
["CDISCPILOT01", "DM", "01-704-1074", "", "", "COMPLT8", "Completers of Week 8 Population Flag", "Y", "DERIVED", "CLINICAL STUDY SPONSOR"]
["CDISCPILOT01", "DM", "01-704-1074", "", "", "EFFICACY", "Efficacy Population Flag", "Y", "DERIVED", "CLINICAL STUDY SPONSOR"]
["CDISCPILOT01", "DM", "01-704-1074", "", "", "ITT", "Intent to Treat Population Flag", "Y", "DERIVED", "CLINICAL STUDY SPONSOR"]
["CDISCPILOT01", "DM", "01-704-1074", "", "", "SAFETY", "Safety Population Flag", "Y", "DERIVED", "CLINICAL STUDY SPONSOR"]
["CDISCPILOT01", "DM", "01-704-1093", "", "", "COMPLT16", "Completers of Week 16 Population Flag", "Y", "DERIVED", "CLINICAL STUDY SPONSOR"]
["CDISCPILOT01", "DM", "01-704-1093", "", "", "COMPLT8", "Completers of Week 8 Population Flag", "Y", "DERIVED", "CLINICAL STUDY SPONSOR"]
["CDISCPILOT01", "DM", "01-704-1093", "", "", "EFFICACY", "Efficacy Population Flag", "Y", "DERIVED", "CLINICAL STUDY SPONSOR"]
["CDISCPILOT01", "DM", "01-704-1093", "", "", "ITT", "Intent to Treat Population Flag", "Y", "DERIVED", "CLINICAL STUDY SPONSOR"]
["CDISCPILOT01", "DM", "01-704-1093", "", "", "SAFETY", "Safety Population Flag", "Y", "DERIVED", "CLINICAL STUDY SPONSOR"]
["CDISCPILOT01", "DM", "01-704-1114", "", "", "COMPLT16", "Completers of Week 16 Population Flag", "Y", "DERIVED", "CLINICAL STUDY SPONSOR"]
["CDISCPILOT01", "DM", "01-704-1114", "", "", "COMPLT24", "Completers of Week 24 Population Flag", "Y", "DERIVED", "CLINICAL STUDY SPONSOR"]
["CDISCPILOT01", "DM", "01-704-1114", "", "", "COMPLT8", "Completers of Week 8 Population Flag", "Y", "DERIVED", "CLINICAL STUDY SPONSOR"]
["CDISCPILOT01", "DM", "01-704-1114", "", "", "EFFICACY", "Efficacy Population Flag", "Y", "DERIVED", "CLINICAL STUDY SPONSOR"]
["CDISCPILOT01", "DM", "01-704-1114", "", "", "ITT", "Intent to Treat Population Flag", "Y", "DERIVED", "CLINICAL STUDY SPONSOR"]
["CDISCPILOT01", "DM", "01-704-1114", "", "", "SAFETY", "Safety Population Flag", "Y", "DERIVED", "CLINICAL STUDY SPONSOR"]
["CDISCPILOT01", "DM", "01-704-1120", "", "", "COMPLT8", "Completers of Week 8 Population Flag", "Y", "DERIVED", "CLINICAL STUDY SPONSOR"]
["CDISCPILOT01", "DM", "01-704-1120", "", "", "EFFICACY", "Efficacy Population Flag", "Y", "DERIVED", "CLINICAL STUDY SPONSOR"]
["CDISCPILOT01", "DM", "01-704-1120", "", "", "ITT", "Intent to Treat Population Flag", "Y", "DERIVED", "CLINICAL STUDY SPONSOR"]
["CDISCPILOT01", "DM", "01-704-1120", "", "", "SAFETY", "Safety Population Flag", "Y", "DERIVED", "CLINICAL STUDY SPONSOR"]
["CDISCPILOT01", "DM", "01-704-1127", "", "", "COMPLT16", "Completers of Week 16 Population Flag", "Y", "DERIVED", "CLINICAL STUDY SPONSOR"]
["CDISCPILOT01", "DM", "01-704-1127", "", "", "COMPLT24", "Completers of Week 24 Population Flag", "Y", "DERIVED", "CLINICAL STUDY SPONSOR"]
["CDISCPILOT01", "DM", "01-704-1127", "", "", "COMPLT8", "Completers of Week 8 Population Flag", "Y", "DERIVED", "CLINICAL STUDY SPONSOR"]
["CDISCPILOT01", "DM", "01-704-1127", "", "", "EFFICACY", "Efficacy Population Flag", "Y", "DERIVED", "CLINICAL STUDY SPONSOR"]
["CDISCPILOT01", "DM", "01-704-1127", "", "", "ITT", "Intent to Treat Population Flag", "Y", "DERIVED", "CLINICAL STUDY SPONSOR"]
["CDISCPILOT01", "DM", "01-704-1127", "", "", "SAFETY", "Safety Population Flag", "Y", "DERIVED", "CLINICAL STUDY SPONSOR"]
["CDISCPILOT01", "DM", "01-704-1135", "", "", "COMPLT16", "Completers of Week 16 Population Flag", "Y", "DERIVED", "CLINICAL STUDY SPONSOR"]
["CDISCPILOT01", "DM", "01-704-1135", "", "", "COMPLT24", "Completers of Week 24 Population Flag", "Y", "DERIVED", "CLINICAL STUDY SPONSOR"]
["CDISCPILOT01", "DM", "01-704-1135", "", "", "COMPLT8", "Completers of Week 8 Population Flag", "Y", "DERIVED", "CLINICAL STUDY SPONSOR"]
["CDISCPILOT01", "DM", "01-704-1135", "", "", "EFFICACY", "Efficacy Population Flag", "Y", "DERIVED", "CLINICAL STUDY SPONSOR"]
["CDISCPILOT01", "DM", "01-704-1135", "", "", "ITT", "Intent to Treat Population Flag", "Y", "DERIVED", "CLINICAL STUDY SPONSOR"]
["CDISCPILOT01", "DM", "01-704-1135", "", "", "SAFETY", "Safety Population Flag", "Y", "DERIVED", "CLINICAL STUDY SPONSOR"]
["CDISCPILOT01", "DM", "01-704-1164", "", "", "COMPLT16", "Completers of Week 16 Population Flag", "Y", "DERIVED", "CLINICAL STUDY SPONSOR"]
["CDISCPILOT01", "DM", "01-704-1164", "", "", "COMPLT24", "Completers of Week 24 Population Flag", "Y", "DERIVED", "CLINICAL STUDY SPONSOR"]
["CDISCPILOT01", "DM", "01-704-1164", "", "", "COMPLT8", "Completers of Week 8 Population Flag", "Y", "DERIVED", "CLINICAL STUDY SPONSOR"]
["CDISCPILOT01", "DM", "01-704-1164", "", "", "EFFICACY", "Efficacy Population Flag", "Y", "DERIVED", "CLINICAL STUDY SPONSOR"]
["CDISCPILOT01", "DM", "01-704-1164", "", "", "ITT", "Intent to Treat Population Flag", "Y", "DERIVED", "CLINICAL STUDY SPONSOR"]
["CDISCPILOT01", "DM", "01-704-1164", "", "", "SAFETY", "Safety Population Flag", "Y", "DERIVED", "CLINICAL STUDY SPONSOR"]
["CDISCPILOT01", "DM", "01-704-1218", "", "", "COMPLT16", "Completers of Week 16 Population Flag", "Y", "DERIVED", "CLINICAL STUDY SPONSOR"]
["CDISCPILOT01", "DM", "01-704-1218", "", "", "COMPLT24", "Completers of Week 24 Population Flag", "Y", "DERIVED", "CLINICAL STUDY SPONSOR"]
["CDISCPILOT01", "DM", "01-704-1218", "", "", "COMPLT8", "Completers of Week 8 Population Flag", "Y", "DERIVED", "CLINICAL STUDY SPONSOR"]
["CDISCPILOT01", "DM", "01-704-1218", "", "", "EFFICACY", "Efficacy Population Flag", "Y", "DERIVED", "CLINICAL STUDY SPONSOR"]
["CDISCPILOT01", "DM", "01-704-1218", "", "", "ITT", "Intent to Treat Population Flag", "Y", "DERIVED", "CLINICAL STUDY SPONSOR"]
["CDISCPILOT01", "DM", "01-704-1218", "", "", "SAFETY", "Safety Population Flag", "Y", "DERIVED", "CLINICAL STUDY SPONSOR"]
["CDISCPILOT01", "DM", "01-704-1233", "", "", "COMPLT16", "Completers of Week 16 Population Flag", "Y", "DERIVED", "CLINICAL STUDY SPONSOR"]
["CDISCPILOT01", "DM", "01-704-1233", "", "", "COMPLT8", "Completers of Week 8 Population Flag", "Y", "DERIVED", "CLINICAL STUDY SPONSOR"]
["CDISCPILOT01", "DM", "01-704-1233", "", "", "EFFICACY", "Efficacy Population Flag", "Y", "DERIVED", "CLINICAL STUDY SPONSOR"]
["CDISCPILOT01", "DM", "01-704-1233", "", "", "ITT", "Intent to Treat Population Flag", "Y", "DERIVED", "CLINICAL STUDY SPONSOR"]
["CDISCPILOT01", "DM", "01-704-1233", "", "", "SAFETY", "Safety Population Flag", "Y", "DERIVED", "CLINICAL STUDY SPONSOR"]
["CDISCPILOT01", "DM", "01-704-1241", "", "", "COMPLT8", "Completers of Week 8 Population Flag", "Y", "DERIVED", "CLINICAL STUDY SPONSOR"]
["CDISCPILOT01", "DM", "01-704-1241", "", "", "EFFICACY", "Efficacy Population Flag", "Y", "DERIVED", "CLINICAL STUDY SPONSOR"]
["CDISCPILOT01", "DM", "01-704-1241", "", "", "ITT", "Intent to Treat Population Flag", "Y", "DERIVED", "CLINICAL STUDY SPONSOR"]
["CDISCPILOT01", "DM", "01-704-1241", "", "", "SAFETY", "Safety Population Flag", "Y", "DERIVED", "CLINICAL STUDY SPONSOR"]
["CDISCPILOT01", "DM", "01-704-1260", "", "", "COMPLT8", "Completers of Week 8 Population Flag", "Y", "DERIVED", "CLINICAL STUDY SPONSOR"]
["CDISCPILOT01", "DM", "01-704-1260", "", "", "EFFICACY", "Efficacy Population Flag", "Y", "DERIVED", "CLINICAL STUDY SPONSOR"]
["CDISCPILOT01", "DM", "01-704-1260", "", "", "ITT", "Intent to Treat Population Flag", "Y", "DERIVED", "CLINICAL STUDY SPONSOR"]
["CDISCPILOT01", "DM", "01-704-1260", "", "", "SAFETY", "Safety Population Flag", "Y", "DERIVED", "CLINICAL STUDY SPONSOR"]
["CDISCPILOT01", "DM", "01-704-1266", "", "", "COMPLT8", "Completers of Week 8 Population Flag", "Y", "DERIVED", "CLINICAL STUDY SPONSOR"]
["CDISCPILOT01", "DM", "01-704-1266", "", "", "EFFICACY", "Efficacy Population Flag", "Y", "DERIVED", "CLINICAL STUDY SPONSOR"]
["CDISCPILOT01", "DM", "01-704-1266", "", "", "ITT", "Intent to Treat Population Flag", "Y", "DERIVED", "CLINICAL STUDY SPONSOR"]
["CDISCPILOT01", "DM", "01-704-1266", "", "", "SAFETY", "Safety Population Flag", "Y", "DERIVED", "CLINICAL STUDY SPONSOR"]
["CDISCPILOT01", "DM", "01-704-1323", "", "", "ITT", "Intent to Treat Population Flag", "Y", "DERIVED", "CLINICAL STUDY SPONSOR"]
["CDISCPILOT01", "DM", "01-704-1323", "", "", "SAFETY", "Safety Population Flag", "Y", "DERIVED", "CLINICAL STUDY SPONSOR"]
["CDISCPILOT01", "DM", "01-704-1325", "", "", "COMPLT16", "Completers of Week 16 Population Flag", "Y", "DERIVED", "CLINICAL STUDY SPONSOR"]
["CDISCPILOT01", "DM", "01-704-1325", "", "", "COMPLT8", "Completers of Week 8 Population Flag", "Y", "DERIVED", "CLINICAL STUDY SPONSOR"]
["CDISCPILOT01", "DM", "01-704-1325", "", "", "EFFICACY", "Efficacy Population Flag", "Y", "DERIVED", "CLINICAL STUDY SPONSOR"]
["CDISCPILOT01", "DM", "01-704-1325", "", "", "ITT", "Intent to Treat Population Flag", "Y", "DERIVED", "CLINICAL STUDY SPONSOR"]
["CDISCPILOT01", "DM", "01-704-1325", "", "", "SAFETY", "Safety Population Flag", "Y", "DERIVED", "CLINICAL STUDY SPONSOR"]
["CDISCPILOT01", "DM", "01-704-1332", "", "", "COMPLT8", "Completers of Week 8 Population Flag", "Y", "DERIVED", "CLINICAL STUDY SPONSOR"]
["CDISCPILOT01", "DM", "01-704-1332", "", "", "EFFICACY", "Efficacy Population Flag", "Y", "DERIVED", "CLINICAL STUDY SPONSOR"]
["CDISCPILOT01", "DM", "01-704-1332", "", "", "ITT", "Intent to Treat Population Flag", "Y", "DERIVED", "CLINICAL STUDY SPONSOR"]
["CDISCPILOT01", "DM", "01-704-1332", "", "", "SAFETY", "Safety Population Flag", "Y", "DERIVED", "CLINICAL STUDY SPONSOR"]
["CDISCPILOT01", "DM", "01-704-1351", "", "", "COMPLT16", "Completers of Week 16 Population Flag", "Y", "DERIVED", "CLINICAL STUDY SPONSOR"]
["CDISCPILOT01", "DM", "01-704-1351", "", "", "COMPLT24", "Completers of Week 24 Population Flag", "Y", "DERIVED", "CLINICAL STUDY SPONSOR"]
["CDISCPILOT01", "DM", "01-704-1351", "", "", "COMPLT8", "Completers of Week 8 Population Flag", "Y", "DERIVED", "CLINICAL STUDY SPONSOR"]
["CDISCPILOT01", "DM", "01-704-1351", "", "", "EFFICACY", "Efficacy Population Flag", "Y", "DERIVED", "CLINICAL STUDY SPONSOR"]
["CDISCPILOT01", "DM", "01-704-1351", "", "", "ITT", "Intent to Treat Population Flag", "Y", "DERIVED", "CLINICAL STUDY SPONSOR"]
["CDISCPILOT01", "DM", "01-704-1351", "", "", "SAFETY", "Safety Population Flag", "Y", "DERIVED", "CLINICAL STUDY SPONSOR"]
["CDISCPILOT01", "DM", "01-704-1388", "", "", "COMPLT16", "Completers of Week 16 Population Flag", "Y", "DERIVED", "CLINICAL STUDY SPONSOR"]
["CDISCPILOT01", "DM", "01-704-1388", "", "", "COMPLT24", "Completers of Week 24 Population Flag", "Y", "DERIVED", "CLINICAL STUDY SPONSOR"]
["CDISCPILOT01", "DM", "01-704-1388", "", "", "COMPLT8", "Completers of Week 8 Population Flag", "Y", "DERIVED", "CLINICAL STUDY SPONSOR"]
["CDISCPILOT01", "DM", "01-704-1388", "", "", "EFFICACY", "Efficacy Population Flag", "Y", "DERIVED", "CLINICAL STUDY SPONSOR"]
["CDISCPILOT01", "DM", "01-704-1388", "", "", "ITT", "Intent to Treat Population Flag", "Y", "DERIVED", "CLINICAL STUDY SPONSOR"]
["CDISCPILOT01", "DM", "01-704-1388", "", "", "SAFETY", "Safety Population Flag", "Y", "DERIVED", "CLINICAL STUDY SPONSOR"]
["CDISCPILOT01", "DM", "01-704-1435", "", "", "COMPLT8", "Completers of Week 8 Population Flag", "Y", "DERIVED", "CLINICAL STUDY SPONSOR"]
["CDISCPILOT01", "DM", "01-704-1435", "", "", "EFFICACY", "Efficacy Population Flag", "Y", "DERIVED", "CLINICAL STUDY SPONSOR"]
["CDISCPILOT01", "DM", "01-704-1435", "", "", "ITT", "Intent to Treat Population Flag", "Y", "DERIVED", "CLINICAL STUDY SPONSOR"]
["CDISCPILOT01", "DM", "01-704-1435", "", "", "SAFETY", "Safety Population Flag", "Y", "DERIVED", "CLINICAL STUDY SPONSOR"]
["CDISCPILOT01", "DM", "01-704-1445", "", "", "COMPLT16", "Completers of Week 16 Population Flag", "Y", "DERIVED", "CLINICAL STUDY SPONSOR"]
["CDISCPILOT01", "DM", "01-704-1445", "", "", "COMPLT24", "Completers of Week 24 Population Flag", "Y", "DERIVED", "CLINICAL STUDY SPONSOR"]
["CDISCPILOT01", "DM", "01-704-1445", "", "", "COMPLT8", "Completers of Week 8 Population Flag", "Y", "DERIVED", "CLINICAL STUDY SPONSOR"]
["CDISCPILOT01", "DM", "01-704-1445", "", "", "EFFICACY", "Efficacy Population Flag", "Y", "DERIVED", "CLINICAL STUDY SPONSOR"]
["CDISCPILOT01", "DM", "01-704-1445", "", "", "ITT", "Intent to Treat Population Flag", "Y", "DERIVED", "CLINICAL STUDY SPONSOR"]
["CDISCPILOT01", "DM", "01-704-1445", "", "", "SAFETY", "Safety Population Flag", "Y", "DERIVED", "CLINICAL STUDY SPONSOR"]
["CDISCPILOT01", "DM", "01-705-1018", "", "", "ITT", "Intent to Treat Population Flag", "Y", "DERIVED", "CLINICAL STUDY SPONSOR"]
["CDISCPILOT01", "DM", "01-705-1018", "", "", "SAFETY", "Safety Population Flag", "Y", "DERIVED", "CLINICAL STUDY SPONSOR"]
["CDISCPILOT01", "DM", "01-705-1031", "", "", "COMPLT16", "Completers of Week 16 Population Flag", "Y", "DERIVED", "CLINICAL STUDY SPONSOR"]
["CDISCPILOT01", "DM", "01-705-1031", "", "", "COMPLT24", "Completers of Week 24 Population Flag", "Y", "DERIVED", "CLINICAL STUDY SPONSOR"]
["CDISCPILOT01", "DM", "01-705-1031", "", "", "COMPLT8", "Completers of Week 8 Population Flag", "Y", "DERIVED", "CLINICAL STUDY SPONSOR"]
["CDISCPILOT01", "DM", "01-705-1031", "", "", "EFFICACY", "Efficacy Population Flag", "Y", "DERIVED", "CLINICAL STUDY SPONSOR"]
["CDISCPILOT01", "DM", "01-705-1031", "", "", "ITT", "Intent to Treat Population Flag", "Y", "DERIVED", "CLINICAL STUDY SPONSOR"]
["CDISCPILOT01", "DM", "01-705-1031", "", "", "SAFETY", "Safety Population Flag", "Y", "DERIVED", "CLINICAL STUDY SPONSOR"]
["CDISCPILOT01", "DM", "01-705-1059", "", "", "COMPLT16", "Completers of Week 16 Population Flag", "Y", "DERIVED", "CLINICAL STUDY SPONSOR"]
["CDISCPILOT01", "DM", "01-705-1059", "", "", "COMPLT8", "Completers of Week 8 Population Flag", "Y", "DERIVED", "CLINICAL STUDY SPONSOR"]
["CDISCPILOT01", "DM", "01-705-1059", "", "", "EFFICACY", "Efficacy Population Flag", "Y", "DERIVED", "CLINICAL STUDY SPONSOR"]
["CDISCPILOT01", "DM", "01-705-1059", "", "", "ITT", "Intent to Treat Population Flag", "Y", "DERIVED", "CLINICAL STUDY SPONSOR"]
["CDISCPILOT01", "DM", "01-705-1059", "", "", "SAFETY", "Safety Population Flag", "Y", "DERIVED", "CLINICAL STUDY SPONSOR"]
["CDISCPILOT01", "DM", "01-705-1186", "", "", "ITT", "Intent to Treat Population Flag", "Y", "DERIVED", "CLINICAL STUDY SPONSOR"]
["CDISCPILOT01", "DM", "01-705-1186", "", "", "SAFETY", "Safety Population Flag", "Y", "DERIVED", "CLINICAL STUDY SPONSOR"]
["CDISCPILOT01", "DM", "01-705-1199", "", "", "EFFICACY", "Efficacy Population Flag", "Y", "DERIVED", "CLINICAL STUDY SPONSOR"]
["CDISCPILOT01", "DM", "01-705-1199", "", "", "ITT", "Intent to Treat Population Flag", "Y", "DERIVED", "CLINICAL STUDY SPONSOR"]
["CDISCPILOT01", "DM", "01-705-1199", "", "", "SAFETY", "Safety Population Flag", "Y", "DERIVED", "CLINICAL STUDY SPONSOR"]
["CDISCPILOT01", "DM", "01-705-1280", "", "", "COMPLT16", "Completers of Week 16 Population Flag", "Y", "DERIVED", "CLINICAL STUDY SPONSOR"]
["CDISCPILOT01", "DM", "01-705-1280", "", "", "COMPLT24", "Completers of Week 24 Population Flag", "Y", "DERIVED", "CLINICAL STUDY SPONSOR"]
["CDISCPILOT01", "DM", "01-705-1280", "", "", "COMPLT8", "Completers of Week 8 Population Flag", "Y", "DERIVED", "CLINICAL STUDY SPONSOR"]
["CDISCPILOT01", "DM", "01-705-1280", "", "", "EFFICACY", "Efficacy Population Flag", "Y", "DERIVED", "CLINICAL STUDY SPONSOR"]
["CDISCPILOT01", "DM", "01-705-1280", "", "", "ITT", "Intent to Treat Population Flag", "Y", "DERIVED", "CLINICAL STUDY SPONSOR"]
["CDISCPILOT01", "DM", "01-705-1280", "", "", "SAFETY", "Safety Population Flag", "Y", "DERIVED", "CLINICAL STUDY SPONSOR"]
["CDISCPILOT01", "DM", "01-705-1281", "", "", "COMPLT16", "Completers of Week 16 Population Flag", "Y", "DERIVED", "CLINICAL STUDY SPONSOR"]
["CDISCPILOT01", "DM", "01-705-1281", "", "", "COMPLT8", "Completers of Week 8 Population Flag", "Y", "DERIVED", "CLINICAL STUDY SPONSOR"]
["CDISCPILOT01", "DM", "01-705-1281", "", "", "EFFICACY", "Efficacy Population Flag", "Y", "DERIVED", "CLINICAL STUDY SPONSOR"]
["CDISCPILOT01", "DM", "01-705-1281", "", "", "ITT", "Intent to Treat Population Flag", "Y", "DERIVED", "CLINICAL STUDY SPONSOR"]
["CDISCPILOT01", "DM", "01-705-1281", "", "", "SAFETY", "Safety Population Flag", "Y", "DERIVED", "CLINICAL STUDY SPONSOR"]
["CDISCPILOT01", "DM", "01-705-1282", "", "", "COMPLT16", "Completers of Week 16 Population Flag", "Y", "DERIVED", "CLINICAL STUDY SPONSOR"]
["CDISCPILOT01", "DM", "01-705-1282", "", "", "COMPLT24", "Completers of Week 24 Population Flag", "Y", "DERIVED", "CLINICAL STUDY SPONSOR"]
["CDISCPILOT01", "DM", "01-705-1282", "", "", "COMPLT8", "Completers of Week 8 Population Flag", "Y", "DERIVED", "CLINICAL STUDY SPONSOR"]
["CDISCPILOT01", "DM", "01-705-1282", "", "", "EFFICACY", "Efficacy Population Flag", "Y", "DERIVED", "CLINICAL STUDY SPONSOR"]
["CDISCPILOT01", "DM", "01-705-1282", "", "", "ITT", "Intent to Treat Population Flag", "Y", "DERIVED", "CLINICAL STUDY SPONSOR"]
["CDISCPILOT01", "DM", "01-705-1282", "", "", "SAFETY", "Safety Population Flag", "Y", "DERIVED", "CLINICAL STUDY SPONSOR"]
["CDISCPILOT01", "DM", "01-705-1292", "", "", "COMPLT16", "Completers of Week 16 Population Flag", "Y", "DERIVED", "CLINICAL STUDY SPONSOR"]
["CDISCPILOT01", "DM", "01-705-1292", "", "", "COMPLT24", "Completers of Week 24 Population Flag", "Y", "DERIVED", "CLINICAL STUDY SPONSOR"]
["CDISCPILOT01", "DM", "01-705-1292", "", "", "COMPLT8", "Completers of Week 8 Population Flag", "Y", "DERIVED", "CLINICAL STUDY SPONSOR"]
["CDISCPILOT01", "DM", "01-705-1292", "", "", "EFFICACY", "Efficacy Population Flag", "Y", "DERIVED", "CLINICAL STUDY SPONSOR"]
["CDISCPILOT01", "DM", "01-705-1292", "", "", "ITT", "Intent to Treat Population Flag", "Y", "DERIVED", "CLINICAL STUDY SPONSOR"]
["CDISCPILOT01", "DM", "01-705-1292", "", "", "SAFETY", "Safety Population Flag", "Y", "DERIVED", "CLINICAL STUDY SPONSOR"]
["CDISCPILOT01", "DM", "01-705-1303", "", "", "COMPLT16", "Completers of Week 16 Population Flag", "Y", "DERIVED", "CLINICAL STUDY SPONSOR"]
["CDISCPILOT01", "DM", "01-705-1303", "", "", "COMPLT8", "Completers of Week 8 Population Flag", "Y", "DERIVED", "CLINICAL STUDY SPONSOR"]
["CDISCPILOT01", "DM", "01-705-1303", "", "", "EFFICACY", "Efficacy Population Flag", "Y", "DERIVED", "CLINICAL STUDY SPONSOR"]
["CDISCPILOT01", "DM", "01-705-1303", "", "", "ITT", "Intent to Treat Population Flag", "Y", "DERIVED", "CLINICAL STUDY SPONSOR"]
["CDISCPILOT01", "DM", "01-705-1303", "", "", "SAFETY", "Safety Population Flag", "Y", "DERIVED", "CLINICAL STUDY SPONSOR"]
["CDISCPILOT01", "DM", "01-705-1310", "", "", "COMPLT8", "Completers of Week 8 Population Flag", "Y", "DERIVED", "CLINICAL STUDY SPONSOR"]
["CDISCPILOT01", "DM", "01-705-1310", "", "", "EFFICACY", "Efficacy Population Flag", "Y", "DERIVED", "CLINICAL STUDY SPONSOR"]
["CDISCPILOT01", "DM", "01-705-1310", "", "", "ITT", "Intent to Treat Population Flag", "Y", "DERIVED", "CLINICAL STUDY SPONSOR"]
["CDISCPILOT01", "DM", "01-705-1310", "", "", "SAFETY", "Safety Population Flag", "Y", "DERIVED", "CLINICAL STUDY SPONSOR"]
["CDISCPILOT01", "DM", "01-705-1349", "", "", "COMPLT16", "Completers of Week 16 Population Flag", "Y", "DERIVED", "CLINICAL STUDY SPONSOR"]
["CDISCPILOT01", "DM", "01-705-1349", "", "", "COMPLT24", "Completers of Week 24 Population Flag", "Y", "DERIVED", "CLINICAL STUDY SPONSOR"]
["CDISCPILOT01", "DM", "01-705-1349", "", "", "COMPLT8", "Completers of Week 8 Population Flag", "Y", "DERIVED", "CLINICAL STUDY SPONSOR"]
["CDISCPILOT01", "DM", "01-705-1349", "", "", "EFFICACY", "Efficacy Population Flag", "Y", "DERIVED", "CLINICAL STUDY SPONSOR"]
["CDISCPILOT01", "DM", "01-705-1349", "", "", "ITT", "Intent to Treat Population Flag", "Y", "DERIVED", "CLINICAL STUDY SPONSOR"]
["CDISCPILOT01", "DM", "01-705-1349", "", "", "SAFETY", "Safety Population Flag", "Y", "DERIVED", "CLINICAL STUDY SPONSOR"]
["CDISCPILOT01", "DM", "01-705-1377", "", "", "ITT", "Intent to Treat Population Flag", "Y", "DERIVED", "CLINICAL STUDY SPONSOR"]
["CDISCPILOT01", "DM", "01-705-1377", "", "", "SAFETY", "Safety Population Flag", "Y", "DERIVED", "CLINICAL STUDY SPONSOR"]
["CDISCPILOT01", "DM", "01-705-1382", "", "", "ITT", "Intent to Treat Population Flag", "Y", "DERIVED", "CLINICAL STUDY SPONSOR"]
["CDISCPILOT01", "DM", "01-705-1382", "", "", "SAFETY", "Safety Population Flag", "Y", "DERIVED", "CLINICAL STUDY SPONSOR"]
["CDISCPILOT01", "DM", "01-705-1393", "", "", "COMPLT16", "Completers of Week 16 Population Flag", "Y", "DERIVED", "CLINICAL STUDY SPONSOR"]
["CDISCPILOT01", "DM", "01-705-1393", "", "", "COMPLT8", "Completers of Week 8 Population Flag", "Y", "DERIVED", "CLINICAL STUDY SPONSOR"]
["CDISCPILOT01", "DM", "01-705-1393", "", "", "EFFICACY", "Efficacy Population Flag", "Y", "DERIVED", "CLINICAL STUDY SPONSOR"]
["CDISCPILOT01", "DM", "01-705-1393", "", "", "ITT", "Intent to Treat Population Flag", "Y", "DERIVED", "CLINICAL STUDY SPONSOR"]
["CDISCPILOT01", "DM", "01-705-1393", "", "", "SAFETY", "Safety Population Flag", "Y", "DERIVED", "CLINICAL STUDY SPONSOR"]
["CDISCPILOT01", "DM", "01-705-1431", "", "", "COMPLT16", "Completers of Week 16 Population Flag", "Y", "DERIVED", "CLINICAL STUDY SPONSOR"]
["CDISCPILOT01", "DM", "01-705-1431", "", "", "COMPLT24", "Completers of Week 24 Population Flag", "Y", "DERIVED", "CLINICAL STUDY SPONSOR"]
["CDISCPILOT01", "DM", "01-705-1431", "", "", "COMPLT8", "Completers of Week 8 Population Flag", "Y", "DERIVED", "CLINICAL STUDY SPONSOR"]
["CDISCPILOT01", "DM", "01-705-1431", "", "", "EFFICACY", "Efficacy Population Flag", "Y", "DERIVED", "CLINICAL STUDY SPONSOR"]
["CDISCPILOT01", "DM", "01-705-1431", "", "", "ITT", "Intent to Treat Population Flag", "Y", "DERIVED", "CLINICAL STUDY SPONSOR"]
["CDISCPILOT01", "DM", "01-705-1431", "", "", "SAFETY", "Safety Population Flag", "Y", "DERIVED", "CLINICAL STUDY SPONSOR"]
["CDISCPILOT01", "DM", "01-706-1041", "", "", "COMPLT16", "Completers of Week 16 Population Flag", "Y", "DERIVED", "CLINICAL STUDY SPONSOR"]
["CDISCPILOT01", "DM", "01-706-1041", "", "", "COMPLT24", "Completers of Week 24 Population Flag", "Y", "DERIVED", "CLINICAL STUDY SPONSOR"]
["CDISCPILOT01", "DM", "01-706-1041", "", "", "COMPLT8", "Completers of Week 8 Population Flag", "Y", "DERIVED", "CLINICAL STUDY SPONSOR"]
["CDISCPILOT01", "DM", "01-706-1041", "", "", "EFFICACY", "Efficacy Population Flag", "Y", "DERIVED", "CLINICAL STUDY SPONSOR"]
["CDISCPILOT01", "DM", "01-706-1041", "", "", "ITT", "Intent to Treat Population Flag", "Y", "DERIVED", "CLINICAL STUDY SPONSOR"]
["CDISCPILOT01", "DM", "01-706-1041", "", "", "SAFETY", "Safety Population Flag", "Y", "DERIVED", "CLINICAL STUDY SPONSOR"]
["CDISCPILOT01", "DM", "01-706-1049", "", "", "EFFICACY", "Efficacy Population Flag", "Y", "DERIVED", "CLINICAL STUDY SPONSOR"]
["CDISCPILOT01", "DM", "01-706-1049", "", "", "ITT", "Intent to Treat Population Flag", "Y", "DERIVED", "CLINICAL STUDY SPONSOR"]
["CDISCPILOT01", "DM", "01-706-1049", "", "", "SAFETY", "Safety Population Flag", "Y", "DERIVED", "CLINICAL STUDY SPONSOR"]
["CDISCPILOT01", "DM", "01-706-1384", "", "", "EFFICACY", "Efficacy Population Flag", "Y", "DERIVED", "CLINICAL STUDY SPONSOR"]
["CDISCPILOT01", "DM", "01-706-1384", "", "", "ITT", "Intent to Treat Population Flag", "Y", "DERIVED", "CLINICAL STUDY SPONSOR"]
["CDISCPILOT01", "DM", "01-706-1384", "", "", "SAFETY", "Safety Population Flag", "Y", "DERIVED", "CLINICAL STUDY SPONSOR"]
["CDISCPILOT01", "DM", "01-707-1037", "", "", "EFFICACY", "Efficacy Population Flag", "Y", "DERIVED", "CLINICAL STUDY SPONSOR"]
["CDISCPILOT01", "DM", "01-707-1037", "", "", "ITT", "Intent to Treat Population Flag", "Y", "DERIVED", "CLINICAL STUDY SPONSOR"]
["CDISCPILOT01", "DM", "01-707-1037", "", "", "SAFETY", "Safety Population Flag", "Y", "DERIVED", "CLINICAL STUDY SPONSOR"]
["CDISCPILOT01", "DM", "01-707-1206", "", "", "COMPLT16", "Completers of Week 16 Population Flag", "Y", "DERIVED", "CLINICAL STUDY SPONSOR"]
["CDISCPILOT01", "DM", "01-707-1206", "", "", "COMPLT24", "Completers of Week 24 Population Flag", "Y", "DERIVED", "CLINICAL STUDY SPONSOR"]
["CDISCPILOT01", "DM", "01-707-1206", "", "", "COMPLT8", "Completers of Week 8 Population Flag", "Y", "DERIVED", "CLINICAL STUDY SPONSOR"]
["CDISCPILOT01", "DM", "01-707-1206", "", "", "EFFICACY", "Efficacy Population Flag", "Y", "DERIVED", "CLINICAL STUDY SPONSOR"]
["CDISCPILOT01", "DM", "01-707-1206", "", "", "ITT", "Intent to Treat Population Flag", "Y", "DERIVED", "CLINICAL STUDY SPONSOR"]
["CDISCPILOT01", "DM", "01-707-1206", "", "", "SAFETY", "Safety Population Flag", "Y", "DERIVED", "CLINICAL STUDY SPONSOR"]
["CDISCPILOT01", "DM", "01-708-1019", "", "", "EFFICACY", "Efficacy Population Flag", "Y", "DERIVED", "CLINICAL STUDY SPONSOR"]
["CDISCPILOT01", "DM", "01-708-1019", "", "", "ITT", "Intent to Treat Population Flag", "Y", "DERIVED", "CLINICAL STUDY SPONSOR"]
["CDISCPILOT01", "DM", "01-708-1019", "", "", "SAFETY", "Safety Population Flag", "Y", "DERIVED", "CLINICAL STUDY SPONSOR"]
["CDISCPILOT01", "DM", "01-708-1032", "", "", "EFFICACY", "Efficacy Population Flag", "Y", "DERIVED", "CLINICAL STUDY SPONSOR"]
["CDISCPILOT01", "DM", "01-708-1032", "", "", "ITT", "Intent to Treat Population Flag", "Y", "DERIVED", "CLINICAL STUDY SPONSOR"]
["CDISCPILOT01", "DM", "01-708-1032", "", "", "SAFETY", "Safety Population Flag", "Y", "DERIVED", "CLINICAL STUDY SPONSOR"]
["CDISCPILOT01", "DM", "01-708-1084", "", "", "COMPLT16", "Completers of Week 16 Population Flag", "Y", "DERIVED", "CLINICAL STUDY SPONSOR"]
["CDISCPILOT01", "DM", "01-708-1084", "", "", "COMPLT24", "Completers of Week 24 Population Flag", "Y", "DERIVED", "CLINICAL STUDY SPONSOR"]
["CDISCPILOT01", "DM", "01-708-1084", "", "", "COMPLT8", "Completers of Week 8 Population Flag", "Y", "DERIVED", "CLINICAL STUDY SPONSOR"]
["CDISCPILOT01", "DM", "01-708-1084", "", "", "EFFICACY", "Efficacy Population Flag", "Y", "DERIVED", "CLINICAL STUDY SPONSOR"]
["CDISCPILOT01", "DM", "01-708-1084", "", "", "ITT", "Intent to Treat Population Flag", "Y", "DERIVED", "CLINICAL STUDY SPONSOR"]
["CDISCPILOT01", "DM", "01-708-1084", "", "", "SAFETY", "Safety Population Flag", "Y", "DERIVED", "CLINICAL STUDY SPONSOR"]
["CDISCPILOT01", "DM", "01-708-1087", "", "", "COMPLT16", "Completers of Week 16 Population Flag", "Y", "DERIVED", "CLINICAL STUDY SPONSOR"]
["CDISCPILOT01", "DM", "01-708-1087", "", "", "COMPLT24", "Completers of Week 24 Population Flag", "Y", "DERIVED", "CLINICAL STUDY SPONSOR"]
["CDISCPILOT01", "DM", "01-708-1087", "", "", "COMPLT8", "Completers of Week 8 Population Flag", "Y", "DERIVED", "CLINICAL STUDY SPONSOR"]
["CDISCPILOT01", "DM", "01-708-1087", "", "", "EFFICACY", "Efficacy Population Flag", "Y", "DERIVED", "CLINICAL STUDY SPONSOR"]
["CDISCPILOT01", "DM", "01-708-1087", "", "", "ITT", "Intent to Treat Population Flag", "Y", "DERIVED", "CLINICAL STUDY SPONSOR"]
["CDISCPILOT01", "DM", "01-708-1087", "", "", "SAFETY", "Safety Population Flag", "Y", "DERIVED", "CLINICAL STUDY SPONSOR"]
["CDISCPILOT01", "DM", "01-708-1158", "", "", "EFFICACY", "Efficacy Population Flag", "Y", "DERIVED", "CLINICAL STUDY SPONSOR"]
["CDISCPILOT01", "DM", "01-708-1158", "", "", "ITT", "Intent to Treat Population Flag", "Y", "DERIVED", "CLINICAL STUDY SPONSOR"]
["CDISCPILOT01", "DM", "01-708-1158", "", "", "SAFETY", "Safety Population Flag", "Y", "DERIVED", "CLINICAL STUDY SPONSOR"]
["CDISCPILOT01", "DM", "01-708-1171", "", "", "COMPLT16", "Completers of Week 16 Population Flag", "Y", "DERIVED", "CLINICAL STUDY SPONSOR"]
["CDISCPILOT01", "DM", "01-708-1171", "", "", "COMPLT24", "Completers of Week 24 Population Flag", "Y", "DERIVED", "CLINICAL STUDY SPONSOR"]
["CDISCPILOT01", "DM", "01-708-1171", "", "", "COMPLT8", "Completers of Week 8 Population Flag", "Y", "DERIVED", "CLINICAL STUDY SPONSOR"]
["CDISCPILOT01", "DM", "01-708-1171", "", "", "EFFICACY", "Efficacy Population Flag", "Y", "DERIVED", "CLINICAL STUDY SPONSOR"]
["CDISCPILOT01", "DM", "01-708-1171", "", "", "ITT", "Intent to Treat Population Flag", "Y", "DERIVED", "CLINICAL STUDY SPONSOR"]
["CDISCPILOT01", "DM", "01-708-1171", "", "", "SAFETY", "Safety Population Flag", "Y", "DERIVED", "CLINICAL STUDY SPONSOR"]
["CDISCPILOT01", "DM", "01-708-1178", "", "", "COMPLT8", "Completers of Week 8 Population Flag", "Y", "DERIVED", "CLINICAL STUDY SPONSOR"]
["CDISCPILOT01", "DM", "01-708-1178", "", "", "EFFICACY", "Efficacy Population Flag", "Y", "DERIVED", "CLINICAL STUDY SPONSOR"]
["CDISCPILOT01", "DM", "01-708-1178", "", "", "ITT", "Intent to Treat Population Flag", "Y", "DERIVED", "CLINICAL STUDY SPONSOR"]
["CDISCPILOT01", "DM", "01-708-1178", "", "", "SAFETY", "Safety Population Flag", "Y", "DERIVED", "CLINICAL STUDY SPONSOR"]
["CDISCPILOT01", "DM", "01-708-1213", "", "", "ITT", "Intent to Treat Population Flag", "Y", "DERIVED", "CLINICAL STUDY SPONSOR"]
["CDISCPILOT01", "DM", "01-708-1213", "", "", "SAFETY", "Safety Population Flag", "Y", "DERIVED", "CLINICAL STUDY SPONSOR"]
["CDISCPILOT01", "DM", "01-708-1216", "", "", "EFFICACY", "Efficacy Population Flag", "Y", "DERIVED", "CLINICAL STUDY SPONSOR"]
["CDISCPILOT01", "DM", "01-708-1216", "", "", "ITT", "Intent to Treat Population Flag", "Y", "DERIVED", "CLINICAL STUDY SPONSOR"]
["CDISCPILOT01", "DM", "01-708-1216", "", "", "SAFETY", "Safety Population Flag", "Y", "DERIVED", "CLINICAL STUDY SPONSOR"]
["CDISCPILOT01", "DM", "01-708-1236", "", "", "ITT", "Intent to Treat Population Flag", "Y", "DERIVED", "CLINICAL STUDY SPONSOR"]
["CDISCPILOT01", "DM", "01-708-1236", "", "", "SAFETY", "Safety Population Flag", "Y", "DERIVED", "CLINICAL STUDY SPONSOR"]
["CDISCPILOT01", "DM", "01-708-1253", "", "", "COMPLT16", "Completers of Week 16 Population Flag", "Y", "DERIVED", "CLINICAL STUDY SPONSOR"]
["CDISCPILOT01", "DM", "01-708-1253", "", "", "COMPLT24", "Completers of Week 24 Population Flag", "Y", "DERIVED", "CLINICAL STUDY SPONSOR"]
["CDISCPILOT01", "DM", "01-708-1253", "", "", "COMPLT8", "Completers of Week 8 Population Flag", "Y", "DERIVED", "CLINICAL STUDY SPONSOR"]
["CDISCPILOT01", "DM", "01-708-1253", "", "", "EFFICACY", "Efficacy Population Flag", "Y", "DERIVED", "CLINICAL STUDY SPONSOR"]
["CDISCPILOT01", "DM", "01-708-1253", "", "", "ITT", "Intent to Treat Population Flag", "Y", "DERIVED", "CLINICAL STUDY SPONSOR"]
["CDISCPILOT01", "DM", "01-708-1253", "", "", "SAFETY", "Safety Population Flag", "Y", "DERIVED", "CLINICAL STUDY SPONSOR"]
["CDISCPILOT01", "DM", "01-708-1272", "", "", "COMPLT8", "Completers of Week 8 Population Flag", "Y", "DERIVED", "CLINICAL STUDY SPONSOR"]
["CDISCPILOT01", "DM", "01-708-1272", "", "", "EFFICACY", "Efficacy Population Flag", "Y", "DERIVED", "CLINICAL STUDY SPONSOR"]
["CDISCPILOT01", "DM", "01-708-1272", "", "", "ITT", "Intent to Treat Population Flag", "Y", "DERIVED", "CLINICAL STUDY SPONSOR"]
["CDISCPILOT01", "DM", "01-708-1272", "", "", "SAFETY", "Safety Population Flag", "Y", "DERIVED", "CLINICAL STUDY SPONSOR"]
["CDISCPILOT01", "DM", "01-708-1286", "", "", "COMPLT16", "Completers of Week 16 Population Flag", "Y", "DERIVED", "CLINICAL STUDY SPONSOR"]
["CDISCPILOT01", "DM", "01-708-1286", "", "", "COMPLT24", "Completers of Week 24 Population Flag", "Y", "DERIVED", "CLINICAL STUDY SPONSOR"]
["CDISCPILOT01", "DM", "01-708-1286", "", "", "COMPLT8", "Completers of Week 8 Population Flag", "Y", "DERIVED", "CLINICAL STUDY SPONSOR"]
["CDISCPILOT01", "DM", "01-708-1286", "", "", "EFFICACY", "Efficacy Population Flag", "Y", "DERIVED", "CLINICAL STUDY SPONSOR"]
["CDISCPILOT01", "DM", "01-708-1286", "", "", "ITT", "Intent to Treat Population Flag", "Y", "DERIVED", "CLINICAL STUDY SPONSOR"]
["CDISCPILOT01", "DM", "01-708-1286", "", "", "SAFETY", "Safety Population Flag", "Y", "DERIVED", "CLINICAL STUDY SPONSOR"]
["CDISCPILOT01", "DM", "01-708-1296", "", "", "COMPLT16", "Completers of Week 16 Population Flag", "Y", "DERIVED", "CLINICAL STUDY SPONSOR"]
["CDISCPILOT01", "DM", "01-708-1296", "", "", "COMPLT24", "Completers of Week 24 Population Flag", "Y", "DERIVED", "CLINICAL STUDY SPONSOR"]
["CDISCPILOT01", "DM", "01-708-1296", "", "", "COMPLT8", "Completers of Week 8 Population Flag", "Y", "DERIVED", "CLINICAL STUDY SPONSOR"]
["CDISCPILOT01", "DM", "01-708-1296", "", "", "EFFICACY", "Efficacy Population Flag", "Y", "DERIVED", "CLINICAL STUDY SPONSOR"]
["CDISCPILOT01", "DM", "01-708-1296", "", "", "ITT", "Intent to Treat Population Flag", "Y", "DERIVED", "CLINICAL STUDY SPONSOR"]
["CDISCPILOT01", "DM", "01-708-1296", "", "", "SAFETY", "Safety Population Flag", "Y", "DERIVED", "CLINICAL STUDY SPONSOR"]
["CDISCPILOT01", "DM", "01-708-1297", "", "", "COMPLT16", "Completers of Week 16 Population Flag", "Y", "DERIVED", "CLINICAL STUDY SPONSOR"]
["CDISCPILOT01", "DM", "01-708-1297", "", "", "COMPLT8", "Completers of Week 8 Population Flag", "Y", "DERIVED", "CLINICAL STUDY SPONSOR"]
["CDISCPILOT01", "DM", "01-708-1297", "", "", "EFFICACY", "Efficacy Population Flag", "Y", "DERIVED", "CLINICAL STUDY SPONSOR"]
["CDISCPILOT01", "DM", "01-708-1297", "", "", "ITT", "Intent to Treat Population Flag", "Y", "DERIVED", "CLINICAL STUDY SPONSOR"]
["CDISCPILOT01", "DM", "01-708-1297", "", "", "SAFETY", "Safety Population Flag", "Y", "DERIVED", "CLINICAL STUDY SPONSOR"]
["CDISCPILOT01", "DM", "01-708-1316", "", "", "COMPLT16", "Completers of Week 16 Population Flag", "Y", "DERIVED", "CLINICAL STUDY SPONSOR"]
["CDISCPILOT01", "DM", "01-708-1316", "", "", "COMPLT24", "Completers of Week 24 Population Flag", "Y", "DERIVED", "CLINICAL STUDY SPONSOR"]
["CDISCPILOT01", "DM", "01-708-1316", "", "", "COMPLT8", "Completers of Week 8 Population Flag", "Y", "DERIVED", "CLINICAL STUDY SPONSOR"]
["CDISCPILOT01", "DM", "01-708-1316", "", "", "EFFICACY", "Efficacy Population Flag", "Y", "DERIVED", "CLINICAL STUDY SPONSOR"]
["CDISCPILOT01", "DM", "01-708-1316", "", "", "ITT", "Intent to Treat Population Flag", "Y", "DERIVED", "CLINICAL STUDY SPONSOR"]
["CDISCPILOT01", "DM", "01-708-1316", "", "", "SAFETY", "Safety Population Flag", "Y", "DERIVED", "CLINICAL STUDY SPONSOR"]
["CDISCPILOT01", "DM", "01-708-1336", "", "", "COMPLT16", "Completers of Week 16 Population Flag", "Y", "DERIVED", "CLINICAL STUDY SPONSOR"]
["CDISCPILOT01", "DM", "01-708-1336", "", "", "COMPLT24", "Completers of Week 24 Population Flag", "Y", "DERIVED", "CLINICAL STUDY SPONSOR"]
["CDISCPILOT01", "DM", "01-708-1336", "", "", "COMPLT8", "Completers of Week 8 Population Flag", "Y", "DERIVED", "CLINICAL STUDY SPONSOR"]
["CDISCPILOT01", "DM", "01-708-1336", "", "", "EFFICACY", "Efficacy Population Flag", "Y", "DERIVED", "CLINICAL STUDY SPONSOR"]
["CDISCPILOT01", "DM", "01-708-1336", "", "", "ITT", "Intent to Treat Population Flag", "Y", "DERIVED", "CLINICAL STUDY SPONSOR"]
["CDISCPILOT01", "DM", "01-708-1336", "", "", "SAFETY", "Safety Population Flag", "Y", "DERIVED", "CLINICAL STUDY SPONSOR"]
["CDISCPILOT01", "DM", "01-708-1342", "", "", "COMPLT16", "Completers of Week 16 Population Flag", "Y", "DERIVED", "CLINICAL STUDY SPONSOR"]
["CDISCPILOT01", "DM", "01-708-1342", "", "", "COMPLT24", "Completers of Week 24 Population Flag", "Y", "DERIVED", "CLINICAL STUDY SPONSOR"]
["CDISCPILOT01", "DM", "01-708-1342", "", "", "COMPLT8", "Completers of Week 8 Population Flag", "Y", "DERIVED", "CLINICAL STUDY SPONSOR"]
["CDISCPILOT01", "DM", "01-708-1342", "", "", "EFFICACY", "Efficacy Population Flag", "Y", "DERIVED", "CLINICAL STUDY SPONSOR"]
["CDISCPILOT01", "DM", "01-708-1342", "", "", "ITT", "Intent to Treat Population Flag", "Y", "DERIVED", "CLINICAL STUDY SPONSOR"]
["CDISCPILOT01", "DM", "01-708-1342", "", "", "SAFETY", "Safety Population Flag", "Y", "DERIVED", "CLINICAL STUDY SPONSOR"]
["CDISCPILOT01", "DM", "01-708-1347", "", "", "COMPLT8", "Completers of Week 8 Population Flag", "Y", "DERIVED", "CLINICAL STUDY SPONSOR"]
["CDISCPILOT01", "DM", "01-708-1347", "", "", "EFFICACY", "Efficacy Population Flag", "Y", "DERIVED", "CLINICAL STUDY SPONSOR"]
["CDISCPILOT01", "DM", "01-708-1347", "", "", "ITT", "Intent to Treat Population Flag", "Y", "DERIVED", "CLINICAL STUDY SPONSOR"]
["CDISCPILOT01", "DM", "01-708-1347", "", "", "SAFETY", "Safety Population Flag", "Y", "DERIVED", "CLINICAL STUDY SPONSOR"]
["CDISCPILOT01", "DM", "01-708-1348", "", "", "COMPLT16", "Completers of Week 16 Population Flag", "Y", "DERIVED", "CLINICAL STUDY SPONSOR"]
["CDISCPILOT01", "DM", "01-708-1348", "", "", "COMPLT24", "Completers of Week 24 Population Flag", "Y", "DERIVED", "CLINICAL STUDY SPONSOR"]
["CDISCPILOT01", "DM", "01-708-1348", "", "", "COMPLT8", "Completers of Week 8 Population Flag", "Y", "DERIVED", "CLINICAL STUDY SPONSOR"]
["CDISCPILOT01", "DM", "01-708-1348", "", "", "EFFICACY", "Efficacy Population Flag", "Y", "DERIVED", "CLINICAL STUDY SPONSOR"]
["CDISCPILOT01", "DM", "01-708-1348", "", "", "ITT", "Intent to Treat Population Flag", "Y", "DERIVED", "CLINICAL STUDY SPONSOR"]
["CDISCPILOT01", "DM", "01-708-1348", "", "", "SAFETY", "Safety Population Flag", "Y", "DERIVED", "CLINICAL STUDY SPONSOR"]
["CDISCPILOT01", "DM", "01-708-1353", "", "", "COMPLT8", "Completers of Week 8 Population Flag", "Y", "DERIVED", "CLINICAL STUDY SPONSOR"]
["CDISCPILOT01", "DM", "01-708-1353", "", "", "EFFICACY", "Efficacy Population Flag", "Y", "DERIVED", "CLINICAL STUDY SPONSOR"]
["CDISCPILOT01", "DM", "01-708-1353", "", "", "ITT", "Intent to Treat Population Flag", "Y", "DERIVED", "CLINICAL STUDY SPONSOR"]
["CDISCPILOT01", "DM", "01-708-1353", "", "", "SAFETY", "Safety Population Flag", "Y", "DERIVED", "CLINICAL STUDY SPONSOR"]
["CDISCPILOT01", "DM", "01-708-1372", "", "", "ITT", "Intent to Treat Population Flag", "Y", "DERIVED", "CLINICAL STUDY SPONSOR"]
["CDISCPILOT01", "DM", "01-708-1372", "", "", "SAFETY", "Safety Population Flag", "Y", "DERIVED", "CLINICAL STUDY SPONSOR"]
["CDISCPILOT01", "DM", "01-708-1378", "", "", "COMPLT16", "Completers of Week 16 Population Flag", "Y", "DERIVED", "CLINICAL STUDY SPONSOR"]
["CDISCPILOT01", "DM", "01-708-1378", "", "", "COMPLT8", "Completers of Week 8 Population Flag", "Y", "DERIVED", "CLINICAL STUDY SPONSOR"]
["CDISCPILOT01", "DM", "01-708-1378", "", "", "EFFICACY", "Efficacy Population Flag", "Y", "DERIVED", "CLINICAL STUDY SPONSOR"]
["CDISCPILOT01", "DM", "01-708-1378", "", "", "ITT", "Intent to Treat Population Flag", "Y", "DERIVED", "CLINICAL STUDY SPONSOR"]
["CDISCPILOT01", "DM", "01-708-1378", "", "", "SAFETY", "Safety Population Flag", "Y", "DERIVED", "CLINICAL STUDY SPONSOR"]
["CDISCPILOT01", "DM", "01-708-1406", "", "", "COMPLT16", "Completers of Week 16 Population Flag", "Y", "DERIVED", "CLINICAL STUDY SPONSOR"]
["CDISCPILOT01", "DM", "01-708-1406", "", "", "COMPLT24", "Completers of Week 24 Population Flag", "Y", "DERIVED", "CLINICAL STUDY SPONSOR"]
["CDISCPILOT01", "DM", "01-708-1406", "", "", "COMPLT8", "Completers of Week 8 Population Flag", "Y", "DERIVED", "CLINICAL STUDY SPONSOR"]
["CDISCPILOT01", "DM", "01-708-1406", "", "", "EFFICACY", "Efficacy Population Flag", "Y", "DERIVED", "CLINICAL STUDY SPONSOR"]
["CDISCPILOT01", "DM", "01-708-1406", "", "", "ITT", "Intent to Treat Population Flag", "Y", "DERIVED", "CLINICAL STUDY SPONSOR"]
["CDISCPILOT01", "DM", "01-708-1406", "", "", "SAFETY", "Safety Population Flag", "Y", "DERIVED", "CLINICAL STUDY SPONSOR"]
["CDISCPILOT01", "DM", "01-708-1428", "", "", "COMPLT8", "Completers of Week 8 Population Flag", "Y", "DERIVED", "CLINICAL STUDY SPONSOR"]
["CDISCPILOT01", "DM", "01-708-1428", "", "", "EFFICACY", "Efficacy Population Flag", "Y", "DERIVED", "CLINICAL STUDY SPONSOR"]
["CDISCPILOT01", "DM", "01-708-1428", "", "", "ITT", "Intent to Treat Population Flag", "Y", "DERIVED", "CLINICAL STUDY SPONSOR"]
["CDISCPILOT01", "DM", "01-708-1428", "", "", "SAFETY", "Safety Population Flag", "Y", "DERIVED", "CLINICAL STUDY SPONSOR"]
["CDISCPILOT01", "DM", "01-709-1001", "", "", "COMPLT16", "Completers of Week 16 Population Flag", "Y", "DERIVED", "CLINICAL STUDY SPONSOR"]
["CDISCPILOT01", "DM", "01-709-1001", "", "", "COMPLT24", "Completers of Week 24 Population Flag", "Y", "DERIVED", "CLINICAL STUDY SPONSOR"]
["CDISCPILOT01", "DM", "01-709-1001", "", "", "COMPLT8", "Completers of Week 8 Population Flag", "Y", "DERIVED", "CLINICAL STUDY SPONSOR"]
["CDISCPILOT01", "DM", "01-709-1001", "", "", "EFFICACY", "Efficacy Population Flag", "Y", "DERIVED", "CLINICAL STUDY SPONSOR"]
["CDISCPILOT01", "DM", "01-709-1001", "", "", "ITT", "Intent to Treat Population Flag", "Y", "DERIVED", "CLINICAL STUDY SPONSOR"]
["CDISCPILOT01", "DM", "01-709-1001", "", "", "SAFETY", "Safety Population Flag", "Y", "DERIVED", "CLINICAL STUDY SPONSOR"]
["CDISCPILOT01", "DM", "01-709-1007", "", "", "ITT", "Intent to Treat Population Flag", "Y", "DERIVED", "CLINICAL STUDY SPONSOR"]
["CDISCPILOT01", "DM", "01-709-1007", "", "", "SAFETY", "Safety Population Flag", "Y", "DERIVED", "CLINICAL STUDY SPONSOR"]
["CDISCPILOT01", "DM", "01-709-1020", "", "", "COMPLT16", "Completers of Week 16 Population Flag", "Y", "DERIVED", "CLINICAL STUDY SPONSOR"]
["CDISCPILOT01", "DM", "01-709-1020", "", "", "COMPLT24", "Completers of Week 24 Population Flag", "Y", "DERIVED", "CLINICAL STUDY SPONSOR"]
["CDISCPILOT01", "DM", "01-709-1020", "", "", "COMPLT8", "Completers of Week 8 Population Flag", "Y", "DERIVED", "CLINICAL STUDY SPONSOR"]
["CDISCPILOT01", "DM", "01-709-1020", "", "", "EFFICACY", "Efficacy Population Flag", "Y", "DERIVED", "CLINICAL STUDY SPONSOR"]
["CDISCPILOT01", "DM", "01-709-1020", "", "", "ITT", "Intent to Treat Population Flag", "Y", "DERIVED", "CLINICAL STUDY SPONSOR"]
["CDISCPILOT01", "DM", "01-709-1020", "", "", "SAFETY", "Safety Population Flag", "Y", "DERIVED", "CLINICAL STUDY SPONSOR"]
["CDISCPILOT01", "DM", "01-709-1029", "", "", "COMPLT16", "Completers of Week 16 Population Flag", "Y", "DERIVED", "CLINICAL STUDY SPONSOR"]
["CDISCPILOT01", "DM", "01-709-1029", "", "", "COMPLT24", "Completers of Week 24 Population Flag", "Y", "DERIVED", "CLINICAL STUDY SPONSOR"]
["CDISCPILOT01", "DM", "01-709-1029", "", "", "COMPLT8", "Completers of Week 8 Population Flag", "Y", "DERIVED", "CLINICAL STUDY SPONSOR"]
["CDISCPILOT01", "DM", "01-709-1029", "", "", "EFFICACY", "Efficacy Population Flag", "Y", "DERIVED", "CLINICAL STUDY SPONSOR"]
["CDISCPILOT01", "DM", "01-709-1029", "", "", "ITT", "Intent to Treat Population Flag", "Y", "DERIVED", "CLINICAL STUDY SPONSOR"]
["CDISCPILOT01", "DM", "01-709-1029", "", "", "SAFETY", "Safety Population Flag", "Y", "DERIVED", "CLINICAL STUDY SPONSOR"]
["CDISCPILOT01", "DM", "01-709-1081", "", "", "COMPLT16", "Completers of Week 16 Population Flag", "Y", "DERIVED", "CLINICAL STUDY SPONSOR"]
["CDISCPILOT01", "DM", "01-709-1081", "", "", "COMPLT8", "Completers of Week 8 Population Flag", "Y", "DERIVED", "CLINICAL STUDY SPONSOR"]
["CDISCPILOT01", "DM", "01-709-1081", "", "", "EFFICACY", "Efficacy Population Flag", "Y", "DERIVED", "CLINICAL STUDY SPONSOR"]
["CDISCPILOT01", "DM", "01-709-1081", "", "", "ITT", "Intent to Treat Population Flag", "Y", "DERIVED", "CLINICAL STUDY SPONSOR"]
["CDISCPILOT01", "DM", "01-709-1081", "", "", "SAFETY", "Safety Population Flag", "Y", "DERIVED", "CLINICAL STUDY SPONSOR"]
["CDISCPILOT01", "DM", "01-709-1088", "", "", "COMPLT16", "Completers of Week 16 Population Flag", "Y", "DERIVED", "CLINICAL STUDY SPONSOR"]
["CDISCPILOT01", "DM", "01-709-1088", "", "", "COMPLT24", "Completers of Week 24 Population Flag", "Y", "DERIVED", "CLINICAL STUDY SPONSOR"]
["CDISCPILOT01", "DM", "01-709-1088", "", "", "COMPLT8", "Completers of Week 8 Population Flag", "Y", "DERIVED", "CLINICAL STUDY SPONSOR"]
["CDISCPILOT01", "DM", "01-709-1088", "", "", "EFFICACY", "Efficacy Population Flag", "Y", "DERIVED", "CLINICAL STUDY SPONSOR"]
["CDISCPILOT01", "DM", "01-709-1088", "", "", "ITT", "Intent to Treat Population Flag", "Y", "DERIVED", "CLINICAL STUDY SPONSOR"]
["CDISCPILOT01", "DM", "01-709-1088", "", "", "SAFETY", "Safety Population Flag", "Y", "DERIVED", "CLINICAL STUDY SPONSOR"]
["CDISCPILOT01", "DM", "01-709-1099", "", "", "COMPLT16", "Completers of Week 16 Population Flag", "Y", "DERIVED", "CLINICAL STUDY SPONSOR"]
["CDISCPILOT01", "DM", "01-709-1099", "", "", "COMPLT24", "Completers of Week 24 Population Flag", "Y", "DERIVED", "CLINICAL STUDY SPONSOR"]
["CDISCPILOT01", "DM", "01-709-1099", "", "", "COMPLT8", "Completers of Week 8 Population Flag", "Y", "DERIVED", "CLINICAL STUDY SPONSOR"]
["CDISCPILOT01", "DM", "01-709-1099", "", "", "EFFICACY", "Efficacy Population Flag", "Y", "DERIVED", "CLINICAL STUDY SPONSOR"]
["CDISCPILOT01", "DM", "01-709-1099", "", "", "ITT", "Intent to Treat Population Flag", "Y", "DERIVED", "CLINICAL STUDY SPONSOR"]
["CDISCPILOT01", "DM", "01-709-1099", "", "", "SAFETY", "Safety Population Flag", "Y", "DERIVED", "CLINICAL STUDY SPONSOR"]
["CDISCPILOT01", "DM", "01-709-1102", "", "", "COMPLT8", "Completers of Week 8 Population Flag", "Y", "DERIVED", "CLINICAL STUDY SPONSOR"]
["CDISCPILOT01", "DM", "01-709-1102", "", "", "EFFICACY", "Efficacy Population Flag", "Y", "DERIVED", "CLINICAL STUDY SPONSOR"]
["CDISCPILOT01", "DM", "01-709-1102", "", "", "ITT", "Intent to Treat Population Flag", "Y", "DERIVED", "CLINICAL STUDY SPONSOR"]
["CDISCPILOT01", "DM", "01-709-1102", "", "", "SAFETY", "Safety Population Flag", "Y", "DERIVED", "CLINICAL STUDY SPONSOR"]
["CDISCPILOT01", "DM", "01-709-1168", "", "", "COMPLT8", "Completers of Week 8 Population Flag", "Y", "DERIVED", "CLINICAL STUDY SPONSOR"]
["CDISCPILOT01", "DM", "01-709-1168", "", "", "EFFICACY", "Efficacy Population Flag", "Y", "DERIVED", "CLINICAL STUDY SPONSOR"]
["CDISCPILOT01", "DM", "01-709-1168", "", "", "ITT", "Intent to Treat Population Flag", "Y", "DERIVED", "CLINICAL STUDY SPONSOR"]
["CDISCPILOT01", "DM", "01-709-1168", "", "", "SAFETY", "Safety Population Flag", "Y", "DERIVED", "CLINICAL STUDY SPONSOR"]
["CDISCPILOT01", "DM", "01-709-1217", "", "", "COMPLT16", "Completers of Week 16 Population Flag", "Y", "DERIVED", "CLINICAL STUDY SPONSOR"]
["CDISCPILOT01", "DM", "01-709-1217", "", "", "COMPLT8", "Completers of Week 8 Population Flag", "Y", "DERIVED", "CLINICAL STUDY SPONSOR"]
["CDISCPILOT01", "DM", "01-709-1217", "", "", "EFFICACY", "Efficacy Population Flag", "Y", "DERIVED", "CLINICAL STUDY SPONSOR"]
["CDISCPILOT01", "DM", "01-709-1217", "", "", "ITT", "Intent to Treat Population Flag", "Y", "DERIVED", "CLINICAL STUDY SPONSOR"]
["CDISCPILOT01", "DM", "01-709-1217", "", "", "SAFETY", "Safety Population Flag", "Y", "DERIVED", "CLINICAL STUDY SPONSOR"]
["CDISCPILOT01", "DM", "01-709-1238", "", "", "COMPLT8", "Completers of Week 8 Population Flag", "Y", "DERIVED", "CLINICAL STUDY SPONSOR"]
["CDISCPILOT01", "DM", "01-709-1238", "", "", "EFFICACY", "Efficacy Population Flag", "Y", "DERIVED", "CLINICAL STUDY SPONSOR"]
["CDISCPILOT01", "DM", "01-709-1238", "", "", "ITT", "Intent to Treat Population Flag", "Y", "DERIVED", "CLINICAL STUDY SPONSOR"]
["CDISCPILOT01", "DM", "01-709-1238", "", "", "SAFETY", "Safety Population Flag", "Y", "DERIVED", "CLINICAL STUDY SPONSOR"]
["CDISCPILOT01", "DM", "01-709-1259", "", "", "COMPLT16", "Completers of Week 16 Population Flag", "Y", "DERIVED", "CLINICAL STUDY SPONSOR"]
["CDISCPILOT01", "DM", "01-709-1259", "", "", "COMPLT8", "Completers of Week 8 Population Flag", "Y", "DERIVED", "CLINICAL STUDY SPONSOR"]
["CDISCPILOT01", "DM", "01-709-1259", "", "", "EFFICACY", "Efficacy Population Flag", "Y", "DERIVED", "CLINICAL STUDY SPONSOR"]
["CDISCPILOT01", "DM", "01-709-1259", "", "", "ITT", "Intent to Treat Population Flag", "Y", "DERIVED", "CLINICAL STUDY SPONSOR"]
["CDISCPILOT01", "DM", "01-709-1259", "", "", "SAFETY", "Safety Population Flag", "Y", "DERIVED", "CLINICAL STUDY SPONSOR"]
["CDISCPILOT01", "DM", "01-709-1285", "", "", "COMPLT8", "Completers of Week 8 Population Flag", "Y", "DERIVED", "CLINICAL STUDY SPONSOR"]
["CDISCPILOT01", "DM", "01-709-1285", "", "", "EFFICACY", "Efficacy Population Flag", "Y", "DERIVED", "CLINICAL STUDY SPONSOR"]
["CDISCPILOT01", "DM", "01-709-1285", "", "", "ITT", "Intent to Treat Population Flag", "Y", "DERIVED", "CLINICAL STUDY SPONSOR"]
["CDISCPILOT01", "DM", "01-709-1285", "", "", "SAFETY", "Safety Population Flag", "Y", "DERIVED", "CLINICAL STUDY SPONSOR"]
["CDISCPILOT01", "DM", "01-709-1301", "", "", "COMPLT16", "Completers of Week 16 Population Flag", "Y", "DERIVED", "CLINICAL STUDY SPONSOR"]
["CDISCPILOT01", "DM", "01-709-1301", "", "", "COMPLT24", "Completers of Week 24 Population Flag", "Y", "DERIVED", "CLINICAL STUDY SPONSOR"]
["CDISCPILOT01", "DM", "01-709-1301", "", "", "COMPLT8", "Completers of Week 8 Population Flag", "Y", "DERIVED", "CLINICAL STUDY SPONSOR"]
["CDISCPILOT01", "DM", "01-709-1301", "", "", "EFFICACY", "Efficacy Population Flag", "Y", "DERIVED", "CLINICAL STUDY SPONSOR"]
["CDISCPILOT01", "DM", "01-709-1301", "", "", "ITT", "Intent to Treat Population Flag", "Y", "DERIVED", "CLINICAL STUDY SPONSOR"]
["CDISCPILOT01", "DM", "01-709-1301", "", "", "SAFETY", "Safety Population Flag", "Y", "DERIVED", "CLINICAL STUDY SPONSOR"]
["CDISCPILOT01", "DM", "01-709-1306", "", "", "COMPLT16", "Completers of Week 16 Population Flag", "Y", "DERIVED", "CLINICAL STUDY SPONSOR"]
["CDISCPILOT01", "DM", "01-709-1306", "", "", "COMPLT8", "Completers of Week 8 Population Flag", "Y", "DERIVED", "CLINICAL STUDY SPONSOR"]
["CDISCPILOT01", "DM", "01-709-1306", "", "", "EFFICACY", "Efficacy Population Flag", "Y", "DERIVED", "CLINICAL STUDY SPONSOR"]
["CDISCPILOT01", "DM", "01-709-1306", "", "", "ITT", "Intent to Treat Population Flag", "Y", "DERIVED", "CLINICAL STUDY SPONSOR"]
["CDISCPILOT01", "DM", "01-709-1306", "", "", "SAFETY", "Safety Population Flag", "Y", "DERIVED", "CLINICAL STUDY SPONSOR"]
["CDISCPILOT01", "DM", "01-709-1309", "", "", "COMPLT16", "Completers of Week 16 Population Flag", "Y", "DERIVED", "CLINICAL STUDY SPONSOR"]
["CDISCPILOT01", "DM", "01-709-1309", "", "", "COMPLT24", "Completers of Week 24 Population Flag", "Y", "DERIVED", "CLINICAL STUDY SPONSOR"]
["CDISCPILOT01", "DM", "01-709-1309", "", "", "COMPLT8", "Completers of Week 8 Population Flag", "Y", "DERIVED", "CLINICAL STUDY SPONSOR"]
["CDISCPILOT01", "DM", "01-709-1309", "", "", "EFFICACY", "Efficacy Population Flag", "Y", "DERIVED", "CLINICAL STUDY SPONSOR"]
["CDISCPILOT01", "DM", "01-709-1309", "", "", "ITT", "Intent to Treat Population Flag", "Y", "DERIVED", "CLINICAL STUDY SPONSOR"]
["CDISCPILOT01", "DM", "01-709-1309", "", "", "SAFETY", "Safety Population Flag", "Y", "DERIVED", "CLINICAL STUDY SPONSOR"]
["CDISCPILOT01", "DM", "01-709-1312", "", "", "COMPLT16", "Completers of Week 16 Population Flag", "Y", "DERIVED", "CLINICAL STUDY SPONSOR"]
["CDISCPILOT01", "DM", "01-709-1312", "", "", "COMPLT24", "Completers of Week 24 Population Flag", "Y", "DERIVED", "CLINICAL STUDY SPONSOR"]
["CDISCPILOT01", "DM", "01-709-1312", "", "", "COMPLT8", "Completers of Week 8 Population Flag", "Y", "DERIVED", "CLINICAL STUDY SPONSOR"]
["CDISCPILOT01", "DM", "01-709-1312", "", "", "EFFICACY", "Efficacy Population Flag", "Y", "DERIVED", "CLINICAL STUDY SPONSOR"]
["CDISCPILOT01", "DM", "01-709-1312", "", "", "ITT", "Intent to Treat Population Flag", "Y", "DERIVED", "CLINICAL STUDY SPONSOR"]
["CDISCPILOT01", "DM", "01-709-1312", "", "", "SAFETY", "Safety Population Flag", "Y", "DERIVED", "CLINICAL STUDY SPONSOR"]
["CDISCPILOT01", "DM", "01-709-1326", "", "", "COMPLT16", "Completers of Week 16 Population Flag", "Y", "DERIVED", "CLINICAL STUDY SPONSOR"]
["CDISCPILOT01", "DM", "01-709-1326", "", "", "COMPLT24", "Completers of Week 24 Population Flag", "Y", "DERIVED", "CLINICAL STUDY SPONSOR"]
["CDISCPILOT01", "DM", "01-709-1326", "", "", "COMPLT8", "Completers of Week 8 Population Flag", "Y", "DERIVED", "CLINICAL STUDY SPONSOR"]
["CDISCPILOT01", "DM", "01-709-1326", "", "", "EFFICACY", "Efficacy Population Flag", "Y", "DERIVED", "CLINICAL STUDY SPONSOR"]
["CDISCPILOT01", "DM", "01-709-1326", "", "", "ITT", "Intent to Treat Population Flag", "Y", "DERIVED", "CLINICAL STUDY SPONSOR"]
["CDISCPILOT01", "DM", "01-709-1326", "", "", "SAFETY", "Safety Population Flag", "Y", "DERIVED", "CLINICAL STUDY SPONSOR"]
["CDISCPILOT01", "DM", "01-709-1329", "", "", "EFFICACY", "Efficacy Population Flag", "Y", "DERIVED", "CLINICAL STUDY SPONSOR"]
["CDISCPILOT01", "DM", "01-709-1329", "", "", "ITT", "Intent to Treat Population Flag", "Y", "DERIVED", "CLINICAL STUDY SPONSOR"]
["CDISCPILOT01", "DM", "01-709-1329", "", "", "SAFETY", "Safety Population Flag", "Y", "DERIVED", "CLINICAL STUDY SPONSOR"]
["CDISCPILOT01", "DM", "01-709-1339", "", "", "COMPLT16", "Completers of Week 16 Population Flag", "Y", "DERIVED", "CLINICAL STUDY SPONSOR"]
["CDISCPILOT01", "DM", "01-709-1339", "", "", "COMPLT24", "Completers of Week 24 Population Flag", "Y", "DERIVED", "CLINICAL STUDY SPONSOR"]
["CDISCPILOT01", "DM", "01-709-1339", "", "", "COMPLT8", "Completers of Week 8 Population Flag", "Y", "DERIVED", "CLINICAL STUDY SPONSOR"]
["CDISCPILOT01", "DM", "01-709-1339", "", "", "EFFICACY", "Efficacy Population Flag", "Y", "DERIVED", "CLINICAL STUDY SPONSOR"]
["CDISCPILOT01", "DM", "01-709-1339", "", "", "ITT", "Intent to Treat Population Flag", "Y", "DERIVED", "CLINICAL STUDY SPONSOR"]
["CDISCPILOT01", "DM", "01-709-1339", "", "", "SAFETY", "Safety Population Flag", "Y", "DERIVED", "CLINICAL STUDY SPONSOR"]
["CDISCPILOT01", "DM", "01-709-1424", "", "", "EFFICACY", "Efficacy Population Flag", "Y", "DERIVED", "CLINICAL STUDY SPONSOR"]
["CDISCPILOT01", "DM", "01-709-1424", "", "", "ITT", "Intent to Treat Population Flag", "Y", "DERIVED", "CLINICAL STUDY SPONSOR"]
["CDISCPILOT01", "DM", "01-709-1424", "", "", "SAFETY", "Safety Population Flag", "Y", "DERIVED", "CLINICAL STUDY SPONSOR"]
["CDISCPILOT01", "DM", "01-710-1002", "", "", "EFFICACY", "Efficacy Population Flag", "Y", "DERIVED", "CLINICAL STUDY SPONSOR"]
["CDISCPILOT01", "DM", "01-710-1002", "", "", "ITT", "Intent to Treat Population Flag", "Y", "DERIVED", "CLINICAL STUDY SPONSOR"]
["CDISCPILOT01", "DM", "01-710-1002", "", "", "SAFETY", "Safety Population Flag", "Y", "DERIVED", "CLINICAL STUDY SPONSOR"]
["CDISCPILOT01", "DM", "01-710-1006", "", "", "COMPLT16", "Completers of Week 16 Population Flag", "Y", "DERIVED", "CLINICAL STUDY SPONSOR"]
["CDISCPILOT01", "DM", "01-710-1006", "", "", "COMPLT24", "Completers of Week 24 Population Flag", "Y", "DERIVED", "CLINICAL STUDY SPONSOR"]
["CDISCPILOT01", "DM", "01-710-1006", "", "", "COMPLT8", "Completers of Week 8 Population Flag", "Y", "DERIVED", "CLINICAL STUDY SPONSOR"]
["CDISCPILOT01", "DM", "01-710-1006", "", "", "EFFICACY", "Efficacy Population Flag", "Y", "DERIVED", "CLINICAL STUDY SPONSOR"]
["CDISCPILOT01", "DM", "01-710-1006", "", "", "ITT", "Intent to Treat Population Flag", "Y", "DERIVED", "CLINICAL STUDY SPONSOR"]
["CDISCPILOT01", "DM", "01-710-1006", "", "", "SAFETY", "Safety Population Flag", "Y", "DERIVED", "CLINICAL STUDY SPONSOR"]
["CDISCPILOT01", "DM", "01-710-1021", "", "", "ITT", "Intent to Treat Population Flag", "Y", "DERIVED", "CLINICAL STUDY SPONSOR"]
["CDISCPILOT01", "DM", "01-710-1021", "", "", "SAFETY", "Safety Population Flag", "Y", "DERIVED", "CLINICAL STUDY SPONSOR"]
["CDISCPILOT01", "DM", "01-710-1027", "", "", "COMPLT16", "Completers of Week 16 Population Flag", "Y", "DERIVED", "CLINICAL STUDY SPONSOR"]
["CDISCPILOT01", "DM", "01-710-1027", "", "", "COMPLT24", "Completers of Week 24 Population Flag", "Y", "DERIVED", "CLINICAL STUDY SPONSOR"]
["CDISCPILOT01", "DM", "01-710-1027", "", "", "COMPLT8", "Completers of Week 8 Population Flag", "Y", "DERIVED", "CLINICAL STUDY SPONSOR"]
["CDISCPILOT01", "DM", "01-710-1027", "", "", "EFFICACY", "Efficacy Population Flag", "Y", "DERIVED", "CLINICAL STUDY SPONSOR"]
["CDISCPILOT01", "DM", "01-710-1027", "", "", "ITT", "Intent to Treat Population Flag", "Y", "DERIVED", "CLINICAL STUDY SPONSOR"]
["CDISCPILOT01", "DM", "01-710-1027", "", "", "SAFETY", "Safety Population Flag", "Y", "DERIVED", "CLINICAL STUDY SPONSOR"]
["CDISCPILOT01", "DM", "01-710-1045", "", "", "COMPLT8", "Completers of Week 8 Population Flag", "Y", "DERIVED", "CLINICAL STUDY SPONSOR"]
["CDISCPILOT01", "DM", "01-710-1045", "", "", "EFFICACY", "Efficacy Population Flag", "Y", "DERIVED", "CLINICAL STUDY SPONSOR"]
["CDISCPILOT01", "DM", "01-710-1045", "", "", "ITT", "Intent to Treat Population Flag", "Y", "DERIVED", "CLINICAL STUDY SPONSOR"]
["CDISCPILOT01", "DM", "01-710-1045", "", "", "SAFETY", "Safety Population Flag", "Y", "DERIVED", "CLINICAL STUDY SPONSOR"]
["CDISCPILOT01", "DM", "01-710-1053", "", "", "COMPLT8", "Completers of Week 8 Population Flag", "Y", "DERIVED", "CLINICAL STUDY SPONSOR"]
["CDISCPILOT01", "DM", "01-710-1053", "", "", "EFFICACY", "Efficacy Population Flag", "Y", "DERIVED", "CLINICAL STUDY SPONSOR"]
["CDISCPILOT01", "DM", "01-710-1053", "", "", "ITT", "Intent to Treat Population Flag", "Y", "DERIVED", "CLINICAL STUDY SPONSOR"]
["CDISCPILOT01", "DM", "01-710-1053", "", "", "SAFETY", "Safety Population Flag", "Y", "DERIVED", "CLINICAL STUDY SPONSOR"]
["CDISCPILOT01", "DM", "01-710-1060", "", "", "COMPLT16", "Completers of Week 16 Population Flag", "Y", "DERIVED", "CLINICAL STUDY SPONSOR"]
["CDISCPILOT01", "DM", "01-710-1060", "", "", "COMPLT24", "Completers of Week 24 Population Flag", "Y", "DERIVED", "CLINICAL STUDY SPONSOR"]
["CDISCPILOT01", "DM", "01-710-1060", "", "", "COMPLT8", "Completers of Week 8 Population Flag", "Y", "DERIVED", "CLINICAL STUDY SPONSOR"]
["CDISCPILOT01", "DM", "01-710-1060", "", "", "EFFICACY", "Efficacy Population Flag", "Y", "DERIVED", "CLINICAL STUDY SPONSOR"]
["CDISCPILOT01", "DM", "01-710-1060", "", "", "ITT", "Intent to Treat Population Flag", "Y", "DERIVED", "CLINICAL STUDY SPONSOR"]
["CDISCPILOT01", "DM", "01-710-1060", "", "", "SAFETY", "Safety Population Flag", "Y", "DERIVED", "CLINICAL STUDY SPONSOR"]
["CDISCPILOT01", "DM", "01-710-1070", "", "", "COMPLT16", "Completers of Week 16 Population Flag", "Y", "DERIVED", "CLINICAL STUDY SPONSOR"]
["CDISCPILOT01", "DM", "01-710-1070", "", "", "COMPLT8", "Completers of Week 8 Population Flag", "Y", "DERIVED", "CLINICAL STUDY SPONSOR"]
["CDISCPILOT01", "DM", "01-710-1070", "", "", "EFFICACY", "Efficacy Population Flag", "Y", "DERIVED", "CLINICAL STUDY SPONSOR"]
["CDISCPILOT01", "DM", "01-710-1070", "", "", "ITT", "Intent to Treat Population Flag", "Y", "DERIVED", "CLINICAL STUDY SPONSOR"]
["CDISCPILOT01", "DM", "01-710-1070", "", "", "SAFETY", "Safety Population Flag", "Y", "DERIVED", "CLINICAL STUDY SPONSOR"]
["CDISCPILOT01", "DM", "01-710-1077", "", "", "COMPLT16", "Completers of Week 16 Population Flag", "Y", "DERIVED", "CLINICAL STUDY SPONSOR"]
["CDISCPILOT01", "DM", "01-710-1077", "", "", "COMPLT24", "Completers of Week 24 Population Flag", "Y", "DERIVED", "CLINICAL STUDY SPONSOR"]
["CDISCPILOT01", "DM", "01-710-1077", "", "", "COMPLT8", "Completers of Week 8 Population Flag", "Y", "DERIVED", "CLINICAL STUDY SPONSOR"]
["CDISCPILOT01", "DM", "01-710-1077", "", "", "EFFICACY", "Efficacy Population Flag", "Y", "DERIVED", "CLINICAL STUDY SPONSOR"]
["CDISCPILOT01", "DM", "01-710-1077", "", "", "ITT", "Intent to Treat Population Flag", "Y", "DERIVED", "CLINICAL STUDY SPONSOR"]
["CDISCPILOT01", "DM", "01-710-1077", "", "", "SAFETY", "Safety Population Flag", "Y", "DERIVED", "CLINICAL STUDY SPONSOR"]
["CDISCPILOT01", "DM", "01-710-1078", "", "", "COMPLT16", "Completers of Week 16 Population Flag", "Y", "DERIVED", "CLINICAL STUDY SPONSOR"]
["CDISCPILOT01", "DM", "01-710-1078", "", "", "COMPLT24", "Completers of Week 24 Population Flag", "Y", "DERIVED", "CLINICAL STUDY SPONSOR"]
["CDISCPILOT01", "DM", "01-710-1078", "", "", "COMPLT8", "Completers of Week 8 Population Flag", "Y", "DERIVED", "CLINICAL STUDY SPONSOR"]
["CDISCPILOT01", "DM", "01-710-1078", "", "", "EFFICACY", "Efficacy Population Flag", "Y", "DERIVED", "CLINICAL STUDY SPONSOR"]
["CDISCPILOT01", "DM", "01-710-1078", "", "", "ITT", "Intent to Treat Population Flag", "Y", "DERIVED", "CLINICAL STUDY SPONSOR"]
["CDISCPILOT01", "DM", "01-710-1078", "", "", "SAFETY", "Safety Population Flag", "Y", "DERIVED", "CLINICAL STUDY SPONSOR"]
["CDISCPILOT01", "DM", "01-710-1083", "", "", "ITT", "Intent to Treat Population Flag", "Y", "DERIVED", "CLINICAL STUDY SPONSOR"]
["CDISCPILOT01", "DM", "01-710-1083", "", "", "SAFETY", "Safety Population Flag", "Y", "DERIVED", "CLINICAL STUDY SPONSOR"]
["CDISCPILOT01", "DM", "01-710-1137", "", "", "ITT", "Intent to Treat Population Flag", "Y", "DERIVED", "CLINICAL STUDY SPONSOR"]
["CDISCPILOT01", "DM", "01-710-1137", "", "", "SAFETY", "Safety Population Flag", "Y", "DERIVED", "CLINICAL STUDY SPONSOR"]
["CDISCPILOT01", "DM", "01-710-1142", "", "", "EFFICACY", "Efficacy Population Flag", "Y", "DERIVED", "CLINICAL STUDY SPONSOR"]
["CDISCPILOT01", "DM", "01-710-1142", "", "", "ITT", "Intent to Treat Population Flag", "Y", "DERIVED", "CLINICAL STUDY SPONSOR"]
["CDISCPILOT01", "DM", "01-710-1142", "", "", "SAFETY", "Safety Population Flag", "Y", "DERIVED", "CLINICAL STUDY SPONSOR"]
["CDISCPILOT01", "DM", "01-710-1154", "", "", "EFFICACY", "Efficacy Population Flag", "Y", "DERIVED", "CLINICAL STUDY SPONSOR"]
["CDISCPILOT01", "DM", "01-710-1154", "", "", "ITT", "Intent to Treat Population Flag", "Y", "DERIVED", "CLINICAL STUDY SPONSOR"]
["CDISCPILOT01", "DM", "01-710-1154", "", "", "SAFETY", "Safety Population Flag", "Y", "DERIVED", "CLINICAL STUDY SPONSOR"]
["CDISCPILOT01", "DM", "01-710-1166", "", "", "COMPLT16", "Completers of Week 16 Population Flag", "Y", "DERIVED", "CLINICAL STUDY SPONSOR"]
["CDISCPILOT01", "DM", "01-710-1166", "", "", "COMPLT8", "Completers of Week 8 Population Flag", "Y", "DERIVED", "CLINICAL STUDY SPONSOR"]
["CDISCPILOT01", "DM", "01-710-1166", "", "", "EFFICACY", "Efficacy Population Flag", "Y", "DERIVED", "CLINICAL STUDY SPONSOR"]
["CDISCPILOT01", "DM", "01-710-1166", "", "", "ITT", "Intent to Treat Population Flag", "Y", "DERIVED", "CLINICAL STUDY SPONSOR"]
["CDISCPILOT01", "DM", "01-710-1166", "", "", "SAFETY", "Safety Population Flag", "Y", "DERIVED", "CLINICAL STUDY SPONSOR"]
["CDISCPILOT01", "DM", "01-710-1183", "", "", "COMPLT16", "Completers of Week 16 Population Flag", "Y", "DERIVED", "CLINICAL STUDY SPONSOR"]
["CDISCPILOT01", "DM", "01-710-1183", "", "", "COMPLT24", "Completers of Week 24 Population Flag", "Y", "DERIVED", "CLINICAL STUDY SPONSOR"]
["CDISCPILOT01", "DM", "01-710-1183", "", "", "COMPLT8", "Completers of Week 8 Population Flag", "Y", "DERIVED", "CLINICAL STUDY SPONSOR"]
["CDISCPILOT01", "DM", "01-710-1183", "", "", "EFFICACY", "Efficacy Population Flag", "Y", "DERIVED", "CLINICAL STUDY SPONSOR"]
["CDISCPILOT01", "DM", "01-710-1183", "", "", "ITT", "Intent to Treat Population Flag", "Y", "DERIVED", "CLINICAL STUDY SPONSOR"]
["CDISCPILOT01", "DM", "01-710-1183", "", "", "SAFETY", "Safety Population Flag", "Y", "DERIVED", "CLINICAL STUDY SPONSOR"]
["CDISCPILOT01", "DM", "01-710-1187", "", "", "COMPLT16", "Completers of Week 16 Population Flag", "Y", "DERIVED", "CLINICAL STUDY SPONSOR"]
["CDISCPILOT01", "DM", "01-710-1187", "", "", "COMPLT24", "Completers of Week 24 Population Flag", "Y", "DERIVED", "CLINICAL STUDY SPONSOR"]
["CDISCPILOT01", "DM", "01-710-1187", "", "", "COMPLT8", "Completers of Week 8 Population Flag", "Y", "DERIVED", "CLINICAL STUDY SPONSOR"]
["CDISCPILOT01", "DM", "01-710-1187", "", "", "EFFICACY", "Efficacy Population Flag", "Y", "DERIVED", "CLINICAL STUDY SPONSOR"]
["CDISCPILOT01", "DM", "01-710-1187", "", "", "ITT", "Intent to Treat Population Flag", "Y", "DERIVED", "CLINICAL STUDY SPONSOR"]
["CDISCPILOT01", "DM", "01-710-1187", "", "", "SAFETY", "Safety Population Flag", "Y", "DERIVED", "CLINICAL STUDY SPONSOR"]
["CDISCPILOT01", "DM", "01-710-1235", "", "", "COMPLT16", "Completers of Week 16 Population Flag", "Y", "DERIVED", "CLINICAL STUDY SPONSOR"]
["CDISCPILOT01", "DM", "01-710-1235", "", "", "COMPLT24", "Completers of Week 24 Population Flag", "Y", "DERIVED", "CLINICAL STUDY SPONSOR"]
["CDISCPILOT01", "DM", "01-710-1235", "", "", "COMPLT8", "Completers of Week 8 Population Flag", "Y", "DERIVED", "CLINICAL STUDY SPONSOR"]
["CDISCPILOT01", "DM", "01-710-1235", "", "", "EFFICACY", "Efficacy Population Flag", "Y", "DERIVED", "CLINICAL STUDY SPONSOR"]
["CDISCPILOT01", "DM", "01-710-1235", "", "", "ITT", "Intent to Treat Population Flag", "Y", "DERIVED", "CLINICAL STUDY SPONSOR"]
["CDISCPILOT01", "DM", "01-710-1235", "", "", "SAFETY", "Safety Population Flag", "Y", "DERIVED", "CLINICAL STUDY SPONSOR"]
["CDISCPILOT01", "DM", "01-710-1249", "", "", "COMPLT16", "Completers of Week 16 Population Flag", "Y", "DERIVED", "CLINICAL STUDY SPONSOR"]
["CDISCPILOT01", "DM", "01-710-1249", "", "", "COMPLT24", "Completers of Week 24 Population Flag", "Y", "DERIVED", "CLINICAL STUDY SPONSOR"]
["CDISCPILOT01", "DM", "01-710-1249", "", "", "COMPLT8", "Completers of Week 8 Population Flag", "Y", "DERIVED", "CLINICAL STUDY SPONSOR"]
["CDISCPILOT01", "DM", "01-710-1249", "", "", "EFFICACY", "Efficacy Population Flag", "Y", "DERIVED", "CLINICAL STUDY SPONSOR"]
["CDISCPILOT01", "DM", "01-710-1249", "", "", "ITT", "Intent to Treat Population Flag", "Y", "DERIVED", "CLINICAL STUDY SPONSOR"]
["CDISCPILOT01", "DM", "01-710-1249", "", "", "SAFETY", "Safety Population Flag", "Y", "DERIVED", "CLINICAL STUDY SPONSOR"]
["CDISCPILOT01", "DM", "01-710-1264", "", "", "COMPLT16", "Completers of Week 16 Population Flag", "Y", "DERIVED", "CLINICAL STUDY SPONSOR"]
["CDISCPILOT01", "DM", "01-710-1264", "", "", "COMPLT8", "Completers of Week 8 Population Flag", "Y", "DERIVED", "CLINICAL STUDY SPONSOR"]
["CDISCPILOT01", "DM", "01-710-1264", "", "", "EFFICACY", "Efficacy Population Flag", "Y", "DERIVED", "CLINICAL STUDY SPONSOR"]
["CDISCPILOT01", "DM", "01-710-1264", "", "", "ITT", "Intent to Treat Population Flag", "Y", "DERIVED", "CLINICAL STUDY SPONSOR"]
["CDISCPILOT01", "DM", "01-710-1264", "", "", "SAFETY", "Safety Population Flag", "Y", "DERIVED", "CLINICAL STUDY SPONSOR"]
["CDISCPILOT01", "DM", "01-710-1270", "", "", "EFFICACY", "Efficacy Population Flag", "Y", "DERIVED", "CLINICAL STUDY SPONSOR"]
["CDISCPILOT01", "DM", "01-710-1270", "", "", "ITT", "Intent to Treat Population Flag", "Y", "DERIVED", "CLINICAL STUDY SPONSOR"]
["CDISCPILOT01", "DM", "01-710-1270", "", "", "SAFETY", "Safety Population Flag", "Y", "DERIVED", "CLINICAL STUDY SPONSOR"]
["CDISCPILOT01", "DM", "01-710-1271", "", "", "COMPLT8", "Completers of Week 8 Population Flag", "Y", "DERIVED", "CLINICAL STUDY SPONSOR"]
["CDISCPILOT01", "DM", "01-710-1271", "", "", "ITT", "Intent to Treat Population Flag", "Y", "DERIVED", "CLINICAL STUDY SPONSOR"]
["CDISCPILOT01", "DM", "01-710-1271", "", "", "SAFETY", "Safety Population Flag", "Y", "DERIVED", "CLINICAL STUDY SPONSOR"]
["CDISCPILOT01", "DM", "01-710-1278", "", "", "COMPLT8", "Completers of Week 8 Population Flag", "Y", "DERIVED", "CLINICAL STUDY SPONSOR"]
["CDISCPILOT01", "DM", "01-710-1278", "", "", "EFFICACY", "Efficacy Population Flag", "Y", "DERIVED", "CLINICAL STUDY SPONSOR"]
["CDISCPILOT01", "DM", "01-710-1278", "", "", "ITT", "Intent to Treat Population Flag", "Y", "DERIVED", "CLINICAL STUDY SPONSOR"]
["CDISCPILOT01", "DM", "01-710-1278", "", "", "SAFETY", "Safety Population Flag", "Y", "DERIVED", "CLINICAL STUDY SPONSOR"]
["CDISCPILOT01", "DM", "01-710-1300", "", "", "COMPLT8", "Completers of Week 8 Population Flag", "Y", "DERIVED", "CLINICAL STUDY SPONSOR"]
["CDISCPILOT01", "DM", "01-710-1300", "", "", "EFFICACY", "Efficacy Population Flag", "Y", "DERIVED", "CLINICAL STUDY SPONSOR"]
["CDISCPILOT01", "DM", "01-710-1300", "", "", "ITT", "Intent to Treat Population Flag", "Y", "DERIVED", "CLINICAL STUDY SPONSOR"]
["CDISCPILOT01", "DM", "01-710-1300", "", "", "SAFETY", "Safety Population Flag", "Y", "DERIVED", "CLINICAL STUDY SPONSOR"]
["CDISCPILOT01", "DM", "01-710-1314", "", "", "ITT", "Intent to Treat Population Flag", "Y", "DERIVED", "CLINICAL STUDY SPONSOR"]
["CDISCPILOT01", "DM", "01-710-1314", "", "", "SAFETY", "Safety Population Flag", "Y", "DERIVED", "CLINICAL STUDY SPONSOR"]
["CDISCPILOT01", "DM", "01-710-1315", "", "", "COMPLT16", "Completers of Week 16 Population Flag", "Y", "DERIVED", "CLINICAL STUDY SPONSOR"]
["CDISCPILOT01", "DM", "01-710-1315", "", "", "COMPLT8", "Completers of Week 8 Population Flag", "Y", "DERIVED", "CLINICAL STUDY SPONSOR"]
["CDISCPILOT01", "DM", "01-710-1315", "", "", "EFFICACY", "Efficacy Population Flag", "Y", "DERIVED", "CLINICAL STUDY SPONSOR"]
["CDISCPILOT01", "DM", "01-710-1315", "", "", "ITT", "Intent to Treat Population Flag", "Y", "DERIVED", "CLINICAL STUDY SPONSOR"]
["CDISCPILOT01", "DM", "01-710-1315", "", "", "SAFETY", "Safety Population Flag", "Y", "DERIVED", "CLINICAL STUDY SPONSOR"]
["CDISCPILOT01", "DM", "01-710-1354", "", "", "COMPLT16", "Completers of Week 16 Population Flag", "Y", "DERIVED", "CLINICAL STUDY SPONSOR"]
["CDISCPILOT01", "DM", "01-710-1354", "", "", "COMPLT24", "Completers of Week 24 Population Flag", "Y", "DERIVED", "CLINICAL STUDY SPONSOR"]
["CDISCPILOT01", "DM", "01-710-1354", "", "", "COMPLT8", "Completers of Week 8 Population Flag", "Y", "DERIVED", "CLINICAL STUDY SPONSOR"]
["CDISCPILOT01", "DM", "01-710-1354", "", "", "EFFICACY", "Efficacy Population Flag", "Y", "DERIVED", "CLINICAL STUDY SPONSOR"]
["CDISCPILOT01", "DM", "01-710-1354", "", "", "ITT", "Intent to Treat Population Flag", "Y", "DERIVED", "CLINICAL STUDY SPONSOR"]
["CDISCPILOT01", "DM", "01-710-1354", "", "", "SAFETY", "Safety Population Flag", "Y", "DERIVED", "CLINICAL STUDY SPONSOR"]
["CDISCPILOT01", "DM", "01-710-1358", "", "", "COMPLT16", "Completers of Week 16 Population Flag", "Y", "DERIVED", "CLINICAL STUDY SPONSOR"]
["CDISCPILOT01", "DM", "01-710-1358", "", "", "COMPLT24", "Completers of Week 24 Population Flag", "Y", "DERIVED", "CLINICAL STUDY SPONSOR"]
["CDISCPILOT01", "DM", "01-710-1358", "", "", "COMPLT8", "Completers of Week 8 Population Flag", "Y", "DERIVED", "CLINICAL STUDY SPONSOR"]
["CDISCPILOT01", "DM", "01-710-1358", "", "", "EFFICACY", "Efficacy Population Flag", "Y", "DERIVED", "CLINICAL STUDY SPONSOR"]
["CDISCPILOT01", "DM", "01-710-1358", "", "", "ITT", "Intent to Treat Population Flag", "Y", "DERIVED", "CLINICAL STUDY SPONSOR"]
["CDISCPILOT01", "DM", "01-710-1358", "", "", "SAFETY", "Safety Population Flag", "Y", "DERIVED", "CLINICAL STUDY SPONSOR"]
["CDISCPILOT01", "DM", "01-710-1368", "", "", "COMPLT16", "Completers of Week 16 Population Flag", "Y", "DERIVED", "CLINICAL STUDY SPONSOR"]
["CDISCPILOT01", "DM", "01-710-1368", "", "", "COMPLT24", "Completers of Week 24 Population Flag", "Y", "DERIVED", "CLINICAL STUDY SPONSOR"]
["CDISCPILOT01", "DM", "01-710-1368", "", "", "COMPLT8", "Completers of Week 8 Population Flag", "Y", "DERIVED", "CLINICAL STUDY SPONSOR"]
["CDISCPILOT01", "DM", "01-710-1368", "", "", "EFFICACY", "Efficacy Population Flag", "Y", "DERIVED", "CLINICAL STUDY SPONSOR"]
["CDISCPILOT01", "DM", "01-710-1368", "", "", "ITT", "Intent to Treat Population Flag", "Y", "DERIVED", "CLINICAL STUDY SPONSOR"]
["CDISCPILOT01", "DM", "01-710-1368", "", "", "SAFETY", "Safety Population Flag", "Y", "DERIVED", "CLINICAL STUDY SPONSOR"]
["CDISCPILOT01", "DM", "01-710-1385", "", "", "COMPLT16", "Completers of Week 16 Population Flag", "Y", "DERIVED", "CLINICAL STUDY SPONSOR"]
["CDISCPILOT01", "DM", "01-710-1385", "", "", "COMPLT8", "Completers of Week 8 Population Flag", "Y", "DERIVED", "CLINICAL STUDY SPONSOR"]
["CDISCPILOT01", "DM", "01-710-1385", "", "", "EFFICACY", "Efficacy Population Flag", "Y", "DERIVED", "CLINICAL STUDY SPONSOR"]
["CDISCPILOT01", "DM", "01-710-1385", "", "", "ITT", "Intent to Treat Population Flag", "Y", "DERIVED", "CLINICAL STUDY SPONSOR"]
["CDISCPILOT01", "DM", "01-710-1385", "", "", "SAFETY", "Safety Population Flag", "Y", "DERIVED", "CLINICAL STUDY SPONSOR"]
["CDISCPILOT01", "DM", "01-710-1408", "", "", "COMPLT16", "Completers of Week 16 Population Flag", "Y", "DERIVED", "CLINICAL STUDY SPONSOR"]
["CDISCPILOT01", "DM", "01-710-1408", "", "", "COMPLT24", "Completers of Week 24 Population Flag", "Y", "DERIVED", "CLINICAL STUDY SPONSOR"]
["CDISCPILOT01", "DM", "01-710-1408", "", "", "COMPLT8", "Completers of Week 8 Population Flag", "Y", "DERIVED", "CLINICAL STUDY SPONSOR"]
["CDISCPILOT01", "DM", "01-710-1408", "", "", "EFFICACY", "Efficacy Population Flag", "Y", "DERIVED", "CLINICAL STUDY SPONSOR"]
["CDISCPILOT01", "DM", "01-710-1408", "", "", "ITT", "Intent to Treat Population Flag", "Y", "DERIVED", "CLINICAL STUDY SPONSOR"]
["CDISCPILOT01", "DM", "01-710-1408", "", "", "SAFETY", "Safety Population Flag", "Y", "DERIVED", "CLINICAL STUDY SPONSOR"]
["CDISCPILOT01", "DM", "01-711-1012", "", "", "EFFICACY", "Efficacy Population Flag", "Y", "DERIVED", "CLINICAL STUDY SPONSOR"]
["CDISCPILOT01", "DM", "01-711-1012", "", "", "ITT", "Intent to Treat Population Flag", "Y", "DERIVED", "CLINICAL STUDY SPONSOR"]
["CDISCPILOT01", "DM", "01-711-1012", "", "", "SAFETY", "Safety Population Flag", "Y", "DERIVED", "CLINICAL STUDY SPONSOR"]
["CDISCPILOT01", "DM", "01-711-1036", "", "", "COMPLT16", "Completers of Week 16 Population Flag", "Y", "DERIVED", "CLINICAL STUDY SPONSOR"]
["CDISCPILOT01", "DM", "01-711-1036", "", "", "COMPLT24", "Completers of Week 24 Population Flag", "Y", "DERIVED", "CLINICAL STUDY SPONSOR"]
["CDISCPILOT01", "DM", "01-711-1036", "", "", "COMPLT8", "Completers of Week 8 Population Flag", "Y", "DERIVED", "CLINICAL STUDY SPONSOR"]
["CDISCPILOT01", "DM", "01-711-1036", "", "", "EFFICACY", "Efficacy Population Flag", "Y", "DERIVED", "CLINICAL STUDY SPONSOR"]
["CDISCPILOT01", "DM", "01-711-1036", "", "", "ITT", "Intent to Treat Population Flag", "Y", "DERIVED", "CLINICAL STUDY SPONSOR"]
["CDISCPILOT01", "DM", "01-711-1036", "", "", "SAFETY", "Safety Population Flag", "Y", "DERIVED", "CLINICAL STUDY SPONSOR"]
["CDISCPILOT01", "DM", "01-711-1143", "", "", "COMPLT8", "Completers of Week 8 Population Flag", "Y", "DERIVED", "CLINICAL STUDY SPONSOR"]
["CDISCPILOT01", "DM", "01-711-1143", "", "", "EFFICACY", "Efficacy Population Flag", "Y", "DERIVED", "CLINICAL STUDY SPONSOR"]
["CDISCPILOT01", "DM", "01-711-1143", "", "", "ITT", "Intent to Treat Population Flag", "Y", "DERIVED", "CLINICAL STUDY SPONSOR"]
["CDISCPILOT01", "DM", "01-711-1143", "", "", "SAFETY", "Safety Population Flag", "Y", "DERIVED", "CLINICAL STUDY SPONSOR"]
["CDISCPILOT01", "DM", "01-711-1433", "", "", "ITT", "Intent to Treat Population Flag", "Y", "DERIVED", "CLINICAL STUDY SPONSOR"]
["CDISCPILOT01", "DM", "01-711-1433", "", "", "SAFETY", "Safety Population Flag", "Y", "DERIVED", "CLINICAL STUDY SPONSOR"]
["CDISCPILOT01", "DM", "01-713-1043", "", "", "COMPLT16", "Completers of Week 16 Population Flag", "Y", "DERIVED", "CLINICAL STUDY SPONSOR"]
["CDISCPILOT01", "DM", "01-713-1043", "", "", "COMPLT24", "Completers of Week 24 Population Flag", "Y", "DERIVED", "CLINICAL STUDY SPONSOR"]
["CDISCPILOT01", "DM", "01-713-1043", "", "", "COMPLT8", "Completers of Week 8 Population Flag", "Y", "DERIVED", "CLINICAL STUDY SPONSOR"]
["CDISCPILOT01", "DM", "01-713-1043", "", "", "EFFICACY", "Efficacy Population Flag", "Y", "DERIVED", "CLINICAL STUDY SPONSOR"]
["CDISCPILOT01", "DM", "01-713-1043", "", "", "ITT", "Intent to Treat Population Flag", "Y", "DERIVED", "CLINICAL STUDY SPONSOR"]
["CDISCPILOT01", "DM", "01-713-1043", "", "", "SAFETY", "Safety Population Flag", "Y", "DERIVED", "CLINICAL STUDY SPONSOR"]
["CDISCPILOT01", "DM", "01-713-1073", "", "", "COMPLT16", "Completers of Week 16 Population Flag", "Y", "DERIVED", "CLINICAL STUDY SPONSOR"]
["CDISCPILOT01", "DM", "01-713-1073", "", "", "COMPLT24", "Completers of Week 24 Population Flag", "Y", "DERIVED", "CLINICAL STUDY SPONSOR"]
["CDISCPILOT01", "DM", "01-713-1073", "", "", "COMPLT8", "Completers of Week 8 Population Flag", "Y", "DERIVED", "CLINICAL STUDY SPONSOR"]
["CDISCPILOT01", "DM", "01-713-1073", "", "", "EFFICACY", "Efficacy Population Flag", "Y", "DERIVED", "CLINICAL STUDY SPONSOR"]
["CDISCPILOT01", "DM", "01-713-1073", "", "", "ITT", "Intent to Treat Population Flag", "Y", "DERIVED", "CLINICAL STUDY SPONSOR"]
["CDISCPILOT01", "DM", "01-713-1073", "", "", "SAFETY", "Safety Population Flag", "Y", "DERIVED", "CLINICAL STUDY SPONSOR"]
["CDISCPILOT01", "DM", "01-713-1106", "", "", "COMPLT16", "Completers of Week 16 Population Flag", "Y", "DERIVED", "CLINICAL STUDY SPONSOR"]
["CDISCPILOT01", "DM", "01-713-1106", "", "", "COMPLT24", "Completers of Week 24 Population Flag", "Y", "DERIVED", "CLINICAL STUDY SPONSOR"]
["CDISCPILOT01", "DM", "01-713-1106", "", "", "COMPLT8", "Completers of Week 8 Population Flag", "Y", "DERIVED", "CLINICAL STUDY SPONSOR"]
["CDISCPILOT01", "DM", "01-713-1106", "", "", "EFFICACY", "Efficacy Population Flag", "Y", "DERIVED", "CLINICAL STUDY SPONSOR"]
["CDISCPILOT01", "DM", "01-713-1106", "", "", "ITT", "Intent to Treat Population Flag", "Y", "DERIVED", "CLINICAL STUDY SPONSOR"]
["CDISCPILOT01", "DM", "01-713-1106", "", "", "SAFETY", "Safety Population Flag", "Y", "DERIVED", "CLINICAL STUDY SPONSOR"]
["CDISCPILOT01", "DM", "01-713-1141", "", "", "ITT", "Intent to Treat Population Flag", "Y", "DERIVED", "CLINICAL STUDY SPONSOR"]
["CDISCPILOT01", "DM", "01-713-1141", "", "", "SAFETY", "Safety Population Flag", "Y", "DERIVED", "CLINICAL STUDY SPONSOR"]
["CDISCPILOT01", "DM", "01-713-1179", "", "", "COMPLT16", "Completers of Week 16 Population Flag", "Y", "DERIVED", "CLINICAL STUDY SPONSOR"]
["CDISCPILOT01", "DM", "01-713-1179", "", "", "COMPLT24", "Completers of Week 24 Population Flag", "Y", "DERIVED", "CLINICAL STUDY SPONSOR"]
["CDISCPILOT01", "DM", "01-713-1179", "", "", "COMPLT8", "Completers of Week 8 Population Flag", "Y", "DERIVED", "CLINICAL STUDY SPONSOR"]
["CDISCPILOT01", "DM", "01-713-1179", "", "", "EFFICACY", "Efficacy Population Flag", "Y", "DERIVED", "CLINICAL STUDY SPONSOR"]
["CDISCPILOT01", "DM", "01-713-1179", "", "", "ITT", "Intent to Treat Population Flag", "Y", "DERIVED", "CLINICAL STUDY SPONSOR"]
["CDISCPILOT01", "DM", "01-713-1179", "", "", "SAFETY", "Safety Population Flag", "Y", "DERIVED", "CLINICAL STUDY SPONSOR"]
["CDISCPILOT01", "DM", "01-713-1209", "", "", "COMPLT16", "Completers of Week 16 Population Flag", "Y", "DERIVED", "CLINICAL STUDY SPONSOR"]
["CDISCPILOT01", "DM", "01-713-1209", "", "", "COMPLT24", "Completers of Week 24 Population Flag", "Y", "DERIVED", "CLINICAL STUDY SPONSOR"]
["CDISCPILOT01", "DM", "01-713-1209", "", "", "COMPLT8", "Completers of Week 8 Population Flag", "Y", "DERIVED", "CLINICAL STUDY SPONSOR"]
["CDISCPILOT01", "DM", "01-713-1209", "", "", "EFFICACY", "Efficacy Population Flag", "Y", "DERIVED", "CLINICAL STUDY SPONSOR"]
["CDISCPILOT01", "DM", "01-713-1209", "", "", "ITT", "Intent to Treat Population Flag", "Y", "DERIVED", "CLINICAL STUDY SPONSOR"]
["CDISCPILOT01", "DM", "01-713-1209", "", "", "SAFETY", "Safety Population Flag", "Y", "DERIVED", "CLINICAL STUDY SPONSOR"]
["CDISCPILOT01", "DM", "01-713-1256", "", "", "COMPLT16", "Completers of Week 16 Population Flag", "Y", "DERIVED", "CLINICAL STUDY SPONSOR"]
["CDISCPILOT01", "DM", "01-713-1256", "", "", "COMPLT24", "Completers of Week 24 Population Flag", "Y", "DERIVED", "CLINICAL STUDY SPONSOR"]
["CDISCPILOT01", "DM", "01-713-1256", "", "", "COMPLT8", "Completers of Week 8 Population Flag", "Y", "DERIVED", "CLINICAL STUDY SPONSOR"]
["CDISCPILOT01", "DM", "01-713-1256", "", "", "EFFICACY", "Efficacy Population Flag", "Y", "DERIVED", "CLINICAL STUDY SPONSOR"]
["CDISCPILOT01", "DM", "01-713-1256", "", "", "ITT", "Intent to Treat Population Flag", "Y", "DERIVED", "CLINICAL STUDY SPONSOR"]
["CDISCPILOT01", "DM", "01-713-1256", "", "", "SAFETY", "Safety Population Flag", "Y", "DERIVED", "CLINICAL STUDY SPONSOR"]
["CDISCPILOT01", "DM", "01-713-1269", "", "", "COMPLT16", "Completers of Week 16 Population Flag", "Y", "DERIVED", "CLINICAL STUDY SPONSOR"]
["CDISCPILOT01", "DM", "01-713-1269", "", "", "COMPLT24", "Completers of Week 24 Population Flag", "Y", "DERIVED", "CLINICAL STUDY SPONSOR"]
["CDISCPILOT01", "DM", "01-713-1269", "", "", "COMPLT8", "Completers of Week 8 Population Flag", "Y", "DERIVED", "CLINICAL STUDY SPONSOR"]
["CDISCPILOT01", "DM", "01-713-1269", "", "", "EFFICACY", "Efficacy Population Flag", "Y", "DERIVED", "CLINICAL STUDY SPONSOR"]
["CDISCPILOT01", "DM", "01-713-1269", "", "", "ITT", "Intent to Treat Population Flag", "Y", "DERIVED", "CLINICAL STUDY SPONSOR"]
["CDISCPILOT01", "DM", "01-713-1269", "", "", "SAFETY", "Safety Population Flag", "Y", "DERIVED", "CLINICAL STUDY SPONSOR"]
["CDISCPILOT01", "DM", "01-713-1448", "", "", "COMPLT16", "Completers of Week 16 Population Flag", "Y", "DERIVED", "CLINICAL STUDY SPONSOR"]
["CDISCPILOT01", "DM", "01-713-1448", "", "", "COMPLT8", "Completers of Week 8 Population Flag", "Y", "DERIVED", "CLINICAL STUDY SPONSOR"]
["CDISCPILOT01", "DM", "01-713-1448", "", "", "EFFICACY", "Efficacy Population Flag", "Y", "DERIVED", "CLINICAL STUDY SPONSOR"]
["CDISCPILOT01", "DM", "01-713-1448", "", "", "ITT", "Intent to Treat Population Flag", "Y", "DERIVED", "CLINICAL STUDY SPONSOR"]
["CDISCPILOT01", "DM", "01-713-1448", "", "", "SAFETY", "Safety Population Flag", "Y", "DERIVED", "CLINICAL STUDY SPONSOR"]
["CDISCPILOT01", "DM", "01-714-1035", "", "", "COMPLT16", "Completers of Week 16 Population Flag", "Y", "DERIVED", "CLINICAL STUDY SPONSOR"]
["CDISCPILOT01", "DM", "01-714-1035", "", "", "COMPLT24", "Completers of Week 24 Population Flag", "Y", "DERIVED", "CLINICAL STUDY SPONSOR"]
["CDISCPILOT01", "DM", "01-714-1035", "", "", "COMPLT8", "Completers of Week 8 Population Flag", "Y", "DERIVED", "CLINICAL STUDY SPONSOR"]
["CDISCPILOT01", "DM", "01-714-1035", "", "", "EFFICACY", "Efficacy Population Flag", "Y", "DERIVED", "CLINICAL STUDY SPONSOR"]
["CDISCPILOT01", "DM", "01-714-1035", "", "", "ITT", "Intent to Treat Population Flag", "Y", "DERIVED", "CLINICAL STUDY SPONSOR"]
["CDISCPILOT01", "DM", "01-714-1035", "", "", "SAFETY", "Safety Population Flag", "Y", "DERIVED", "CLINICAL STUDY SPONSOR"]
["CDISCPILOT01", "DM", "01-714-1068", "", "", "COMPLT8", "Completers of Week 8 Population Flag", "Y", "DERIVED", "CLINICAL STUDY SPONSOR"]
["CDISCPILOT01", "DM", "01-714-1068", "", "", "EFFICACY", "Efficacy Population Flag", "Y", "DERIVED", "CLINICAL STUDY SPONSOR"]
["CDISCPILOT01", "DM", "01-714-1068", "", "", "ITT", "Intent to Treat Population Flag", "Y", "DERIVED", "CLINICAL STUDY SPONSOR"]
["CDISCPILOT01", "DM", "01-714-1068", "", "", "SAFETY", "Safety Population Flag", "Y", "DERIVED", "CLINICAL STUDY SPONSOR"]
["CDISCPILOT01", "DM", "01-714-1195", "", "", "COMPLT16", "Completers of Week 16 Population Flag", "Y", "DERIVED", "CLINICAL STUDY SPONSOR"]
["CDISCPILOT01", "DM", "01-714-1195", "", "", "COMPLT24", "Completers of Week 24 Population Flag", "Y", "DERIVED", "CLINICAL STUDY SPONSOR"]
["CDISCPILOT01", "DM", "01-714-1195", "", "", "COMPLT8", "Completers of Week 8 Population Flag", "Y", "DERIVED", "CLINICAL STUDY SPONSOR"]
["CDISCPILOT01", "DM", "01-714-1195", "", "", "EFFICACY", "Efficacy Population Flag", "Y", "DERIVED", "CLINICAL STUDY SPONSOR"]
["CDISCPILOT01", "DM", "01-714-1195", "", "", "ITT", "Intent to Treat Population Flag", "Y", "DERIVED", "CLINICAL STUDY SPONSOR"]
["CDISCPILOT01", "DM", "01-714-1195", "", "", "SAFETY", "Safety Population Flag", "Y", "DERIVED", "CLINICAL STUDY SPONSOR"]
["CDISCPILOT01", "DM", "01-714-1288", "", "", "COMPLT16", "Completers of Week 16 Population Flag", "Y", "DERIVED", "CLINICAL STUDY SPONSOR"]
["CDISCPILOT01", "DM", "01-714-1288", "", "", "COMPLT24", "Completers of Week 24 Population Flag", "Y", "DERIVED", "CLINICAL STUDY SPONSOR"]
["CDISCPILOT01", "DM", "01-714-1288", "", "", "COMPLT8", "Completers of Week 8 Population Flag", "Y", "DERIVED", "CLINICAL STUDY SPONSOR"]
["CDISCPILOT01", "DM", "01-714-1288", "", "", "EFFICACY", "Efficacy Population Flag", "Y", "DERIVED", "CLINICAL STUDY SPONSOR"]
["CDISCPILOT01", "DM", "01-714-1288", "", "", "ITT", "Intent to Treat Population Flag", "Y", "DERIVED", "CLINICAL STUDY SPONSOR"]
["CDISCPILOT01", "DM", "01-714-1288", "", "", "SAFETY", "Safety Population Flag", "Y", "DERIVED", "CLINICAL STUDY SPONSOR"]
["CDISCPILOT01", "DM", "01-714-1375", "", "", "COMPLT16", "Completers of Week 16 Population Flag", "Y", "DERIVED", "CLINICAL STUDY SPONSOR"]
["CDISCPILOT01", "DM", "01-714-1375", "", "", "COMPLT24", "Completers of Week 24 Population Flag", "Y", "DERIVED", "CLINICAL STUDY SPONSOR"]
["CDISCPILOT01", "DM", "01-714-1375", "", "", "COMPLT8", "Completers of Week 8 Population Flag", "Y", "DERIVED", "CLINICAL STUDY SPONSOR"]
["CDISCPILOT01", "DM", "01-714-1375", "", "", "EFFICACY", "Efficacy Population Flag", "Y", "DERIVED", "CLINICAL STUDY SPONSOR"]
["CDISCPILOT01", "DM", "01-714-1375", "", "", "ITT", "Intent to Treat Population Flag", "Y", "DERIVED", "CLINICAL STUDY SPONSOR"]
["CDISCPILOT01", "DM", "01-714-1375", "", "", "SAFETY", "Safety Population Flag", "Y", "DERIVED", "CLINICAL STUDY SPONSOR"]
["CDISCPILOT01", "DM", "01-714-1425", "", "", "EFFICACY", "Efficacy Population Flag", "Y", "DERIVED", "CLINICAL STUDY SPONSOR"]
["CDISCPILOT01", "DM", "01-714-1425", "", "", "ITT", "Intent to Treat Population Flag", "Y", "DERIVED", "CLINICAL STUDY SPONSOR"]
["CDISCPILOT01", "DM", "01-714-1425", "", "", "SAFETY", "Safety Population Flag", "Y", "DERIVED", "CLINICAL STUDY SPONSOR"]
["CDISCPILOT01", "DM", "01-715-1085", "", "", "COMPLT16", "Completers of Week 16 Population Flag", "Y", "DERIVED", "CLINICAL STUDY SPONSOR"]
["CDISCPILOT01", "DM", "01-715-1085", "", "", "COMPLT24", "Completers of Week 24 Population Flag", "Y", "DERIVED", "CLINICAL STUDY SPONSOR"]
["CDISCPILOT01", "DM", "01-715-1085", "", "", "COMPLT8", "Completers of Week 8 Population Flag", "Y", "DERIVED", "CLINICAL STUDY SPONSOR"]
["CDISCPILOT01", "DM", "01-715-1085", "", "", "EFFICACY", "Efficacy Population Flag", "Y", "DERIVED", "CLINICAL STUDY SPONSOR"]
["CDISCPILOT01", "DM", "01-715-1085", "", "", "ITT", "Intent to Treat Population Flag", "Y", "DERIVED", "CLINICAL STUDY SPONSOR"]
["CDISCPILOT01", "DM", "01-715-1085", "", "", "SAFETY", "Safety Population Flag", "Y", "DERIVED", "CLINICAL STUDY SPONSOR"]
["CDISCPILOT01", "DM", "01-715-1107", "", "", "COMPLT8", "Completers of Week 8 Population Flag", "Y", "DERIVED", "CLINICAL STUDY SPONSOR"]
["CDISCPILOT01", "DM", "01-715-1107", "", "", "EFFICACY", "Efficacy Population Flag", "Y", "DERIVED", "CLINICAL STUDY SPONSOR"]
["CDISCPILOT01", "DM", "01-715-1107", "", "", "ITT", "Intent to Treat Population Flag", "Y", "DERIVED", "CLINICAL STUDY SPONSOR"]
["CDISCPILOT01", "DM", "01-715-1107", "", "", "SAFETY", "Safety Population Flag", "Y", "DERIVED", "CLINICAL STUDY SPONSOR"]
["CDISCPILOT01", "DM", "01-715-1155", "", "", "ITT", "Intent to Treat Population Flag", "Y", "DERIVED", "CLINICAL STUDY SPONSOR"]
["CDISCPILOT01", "DM", "01-715-1155", "", "", "SAFETY", "Safety Population Flag", "Y", "DERIVED", "CLINICAL STUDY SPONSOR"]
["CDISCPILOT01", "DM", "01-715-1207", "", "", "COMPLT16", "Completers of Week 16 Population Flag", "Y", "DERIVED", "CLINICAL STUDY SPONSOR"]
["CDISCPILOT01", "DM", "01-715-1207", "", "", "COMPLT24", "Completers of Week 24 Population Flag", "Y", "DERIVED", "CLINICAL STUDY SPONSOR"]
["CDISCPILOT01", "DM", "01-715-1207", "", "", "COMPLT8", "Completers of Week 8 Population Flag", "Y", "DERIVED", "CLINICAL STUDY SPONSOR"]
["CDISCPILOT01", "DM", "01-715-1207", "", "", "EFFICACY", "Efficacy Population Flag", "Y", "DERIVED", "CLINICAL STUDY SPONSOR"]
["CDISCPILOT01", "DM", "01-715-1207", "", "", "ITT", "Intent to Treat Population Flag", "Y", "DERIVED", "CLINICAL STUDY SPONSOR"]
["CDISCPILOT01", "DM", "01-715-1207", "", "", "SAFETY", "Safety Population Flag", "Y", "DERIVED", "CLINICAL STUDY SPONSOR"]
["CDISCPILOT01", "DM", "01-715-1319", "", "", "EFFICACY", "Efficacy Population Flag", "Y", "DERIVED", "CLINICAL STUDY SPONSOR"]
["CDISCPILOT01", "DM", "01-715-1319", "", "", "ITT", "Intent to Treat Population Flag", "Y", "DERIVED", "CLINICAL STUDY SPONSOR"]
["CDISCPILOT01", "DM", "01-715-1319", "", "", "SAFETY", "Safety Population Flag", "Y", "DERIVED", "CLINICAL STUDY SPONSOR"]
["CDISCPILOT01", "DM", "01-715-1321", "", "", "COMPLT8", "Completers of Week 8 Population Flag", "Y", "DERIVED", "CLINICAL STUDY SPONSOR"]
["CDISCPILOT01", "DM", "01-715-1321", "", "", "EFFICACY", "Efficacy Population Flag", "Y", "DERIVED", "CLINICAL STUDY SPONSOR"]
["CDISCPILOT01", "DM", "01-715-1321", "", "", "ITT", "Intent to Treat Population Flag", "Y", "DERIVED", "CLINICAL STUDY SPONSOR"]
["CDISCPILOT01", "DM", "01-715-1321", "", "", "SAFETY", "Safety Population Flag", "Y", "DERIVED", "CLINICAL STUDY SPONSOR"]
["CDISCPILOT01", "DM", "01-715-1397", "", "", "COMPLT16", "Completers of Week 16 Population Flag", "Y", "DERIVED", "CLINICAL STUDY SPONSOR"]
["CDISCPILOT01", "DM", "01-715-1397", "", "", "COMPLT24", "Completers of Week 24 Population Flag", "Y", "DERIVED", "CLINICAL STUDY SPONSOR"]
["CDISCPILOT01", "DM", "01-715-1397", "", "", "COMPLT8", "Completers of Week 8 Population Flag", "Y", "DERIVED", "CLINICAL STUDY SPONSOR"]
["CDISCPILOT01", "DM", "01-715-1397", "", "", "EFFICACY", "Efficacy Population Flag", "Y", "DERIVED", "CLINICAL STUDY SPONSOR"]
["CDISCPILOT01", "DM", "01-715-1397", "", "", "ITT", "Intent to Treat Population Flag", "Y", "DERIVED", "CLINICAL STUDY SPONSOR"]
["CDISCPILOT01", "DM", "01-715-1397", "", "", "SAFETY", "Safety Population Flag", "Y", "DERIVED", "CLINICAL STUDY SPONSOR"]
["CDISCPILOT01", "DM", "01-715-1405", "", "", "EFFICACY", "Efficacy Population Flag", "Y", "DERIVED", "CLINICAL STUDY SPONSOR"]
["CDISCPILOT01", "DM", "01-715-1405", "", "", "ITT", "Intent to Treat Population Flag", "Y", "DERIVED", "CLINICAL STUDY SPONSOR"]
["CDISCPILOT01", "DM", "01-715-1405", "", "", "SAFETY", "Safety Population Flag", "Y", "DERIVED", "CLINICAL STUDY SPONSOR"]
["CDISCPILOT01", "DM", "01-716-1024", "", "", "COMPLT16", "Completers of Week 16 Population Flag", "Y", "DERIVED", "CLINICAL STUDY SPONSOR"]
["CDISCPILOT01", "DM", "01-716-1024", "", "", "COMPLT24", "Completers of Week 24 Population Flag", "Y", "DERIVED", "CLINICAL STUDY SPONSOR"]
["CDISCPILOT01", "DM", "01-716-1024", "", "", "COMPLT8", "Completers of Week 8 Population Flag", "Y", "DERIVED", "CLINICAL STUDY SPONSOR"]
["CDISCPILOT01", "DM", "01-716-1024", "", "", "EFFICACY", "Efficacy Population Flag", "Y", "DERIVED", "CLINICAL STUDY SPONSOR"]
["CDISCPILOT01", "DM", "01-716-1024", "", "", "ITT", "Intent to Treat Population Flag", "Y", "DERIVED", "CLINICAL STUDY SPONSOR"]
["CDISCPILOT01", "DM", "01-716-1024", "", "", "SAFETY", "Safety Population Flag", "Y", "DERIVED", "CLINICAL STUDY SPONSOR"]
["CDISCPILOT01", "DM", "01-716-1026", "", "", "COMPLT16", "Completers of Week 16 Population Flag", "Y", "DERIVED", "CLINICAL STUDY SPONSOR"]
["CDISCPILOT01", "DM", "01-716-1026", "", "", "COMPLT24", "Completers of Week 24 Population Flag", "Y", "DERIVED", "CLINICAL STUDY SPONSOR"]
["CDISCPILOT01", "DM", "01-716-1026", "", "", "COMPLT8", "Completers of Week 8 Population Flag", "Y", "DERIVED", "CLINICAL STUDY SPONSOR"]
["CDISCPILOT01", "DM", "01-716-1026", "", "", "EFFICACY", "Efficacy Population Flag", "Y", "DERIVED", "CLINICAL STUDY SPONSOR"]
["CDISCPILOT01", "DM", "01-716-1026", "", "", "ITT", "Intent to Treat Population Flag", "Y", "DERIVED", "CLINICAL STUDY SPONSOR"]
["CDISCPILOT01", "DM", "01-716-1026", "", "", "SAFETY", "Safety Population Flag", "Y", "DERIVED", "CLINICAL STUDY SPONSOR"]
["CDISCPILOT01", "DM", "01-716-1030", "", "", "EFFICACY", "Efficacy Population Flag", "Y", "DERIVED", "CLINICAL STUDY SPONSOR"]
["CDISCPILOT01", "DM", "01-716-1030", "", "", "ITT", "Intent to Treat Population Flag", "Y", "DERIVED", "CLINICAL STUDY SPONSOR"]
["CDISCPILOT01", "DM", "01-716-1030", "", "", "SAFETY", "Safety Population Flag", "Y", "DERIVED", "CLINICAL STUDY SPONSOR"]
["CDISCPILOT01", "DM", "01-716-1044", "", "", "COMPLT16", "Completers of Week 16 Population Flag", "Y", "DERIVED", "CLINICAL STUDY SPONSOR"]
["CDISCPILOT01", "DM", "01-716-1044", "", "", "COMPLT24", "Completers of Week 24 Population Flag", "Y", "DERIVED", "CLINICAL STUDY SPONSOR"]
["CDISCPILOT01", "DM", "01-716-1044", "", "", "COMPLT8", "Completers of Week 8 Population Flag", "Y", "DERIVED", "CLINICAL STUDY SPONSOR"]
["CDISCPILOT01", "DM", "01-716-1044", "", "", "EFFICACY", "Efficacy Population Flag", "Y", "DERIVED", "CLINICAL STUDY SPONSOR"]
["CDISCPILOT01", "DM", "01-716-1044", "", "", "ITT", "Intent to Treat Population Flag", "Y", "DERIVED", "CLINICAL STUDY SPONSOR"]
["CDISCPILOT01", "DM", "01-716-1044", "", "", "SAFETY", "Safety Population Flag", "Y", "DERIVED", "CLINICAL STUDY SPONSOR"]
["CDISCPILOT01", "DM", "01-716-1063", "", "", "COMPLT16", "Completers of Week 16 Population Flag", "Y", "DERIVED", "CLINICAL STUDY SPONSOR"]
["CDISCPILOT01", "DM", "01-716-1063", "", "", "COMPLT8", "Completers of Week 8 Population Flag", "Y", "DERIVED", "CLINICAL STUDY SPONSOR"]
["CDISCPILOT01", "DM", "01-716-1063", "", "", "EFFICACY", "Efficacy Population Flag", "Y", "DERIVED", "CLINICAL STUDY SPONSOR"]
["CDISCPILOT01", "DM", "01-716-1063", "", "", "ITT", "Intent to Treat Population Flag", "Y", "DERIVED", "CLINICAL STUDY SPONSOR"]
["CDISCPILOT01", "DM", "01-716-1063", "", "", "SAFETY", "Safety Population Flag", "Y", "DERIVED", "CLINICAL STUDY SPONSOR"]
["CDISCPILOT01", "DM", "01-716-1071", "", "", "COMPLT8", "Completers of Week 8 Population Flag", "Y", "DERIVED", "CLINICAL STUDY SPONSOR"]
["CDISCPILOT01", "DM", "01-716-1071", "", "", "EFFICACY", "Efficacy Population Flag", "Y", "DERIVED", "CLINICAL STUDY SPONSOR"]
["CDISCPILOT01", "DM", "01-716-1071", "", "", "ITT", "Intent to Treat Population Flag", "Y", "DERIVED", "CLINICAL STUDY SPONSOR"]
["CDISCPILOT01", "DM", "01-716-1071", "", "", "SAFETY", "Safety Population Flag", "Y", "DERIVED", "CLINICAL STUDY SPONSOR"]
["CDISCPILOT01", "DM", "01-716-1094", "", "", "EFFICACY", "Efficacy Population Flag", "Y", "DERIVED", "CLINICAL STUDY SPONSOR"]
["CDISCPILOT01", "DM", "01-716-1094", "", "", "ITT", "Intent to Treat Population Flag", "Y", "DERIVED", "CLINICAL STUDY SPONSOR"]
["CDISCPILOT01", "DM", "01-716-1094", "", "", "SAFETY", "Safety Population Flag", "Y", "DERIVED", "CLINICAL STUDY SPONSOR"]
["CDISCPILOT01", "DM", "01-716-1103", "", "", "COMPLT16", "Completers of Week 16 Population Flag", "Y", "DERIVED", "CLINICAL STUDY SPONSOR"]
["CDISCPILOT01", "DM", "01-716-1103", "", "", "COMPLT24", "Completers of Week 24 Population Flag", "Y", "DERIVED", "CLINICAL STUDY SPONSOR"]
["CDISCPILOT01", "DM", "01-716-1103", "", "", "COMPLT8", "Completers of Week 8 Population Flag", "Y", "DERIVED", "CLINICAL STUDY SPONSOR"]
["CDISCPILOT01", "DM", "01-716-1103", "", "", "EFFICACY", "Efficacy Population Flag", "Y", "DERIVED", "CLINICAL STUDY SPONSOR"]
["CDISCPILOT01", "DM", "01-716-1103", "", "", "ITT", "Intent to Treat Population Flag", "Y", "DERIVED", "CLINICAL STUDY SPONSOR"]
["CDISCPILOT01", "DM", "01-716-1103", "", "", "SAFETY", "Safety Population Flag", "Y", "DERIVED", "CLINICAL STUDY SPONSOR"]
["CDISCPILOT01", "DM", "01-716-1108", "", "", "COMPLT16", "Completers of Week 16 Population Flag", "Y", "DERIVED", "CLINICAL STUDY SPONSOR"]
["CDISCPILOT01", "DM", "01-716-1108", "", "", "COMPLT24", "Completers of Week 24 Population Flag", "Y", "DERIVED", "CLINICAL STUDY SPONSOR"]
["CDISCPILOT01", "DM", "01-716-1108", "", "", "COMPLT8", "Completers of Week 8 Population Flag", "Y", "DERIVED", "CLINICAL STUDY SPONSOR"]
["CDISCPILOT01", "DM", "01-716-1108", "", "", "EFFICACY", "Efficacy Population Flag", "Y", "DERIVED", "CLINICAL STUDY SPONSOR"]
["CDISCPILOT01", "DM", "01-716-1108", "", "", "ITT", "Intent to Treat Population Flag", "Y", "DERIVED", "CLINICAL STUDY SPONSOR"]
["CDISCPILOT01", "DM", "01-716-1108", "", "", "SAFETY", "Safety Population Flag", "Y", "DERIVED", "CLINICAL STUDY SPONSOR"]
["CDISCPILOT01", "DM", "01-716-1151", "", "", "COMPLT16", "Completers of Week 16 Population Flag", "Y", "DERIVED", "CLINICAL STUDY SPONSOR"]
["CDISCPILOT01", "DM", "01-716-1151", "", "", "COMPLT8", "Completers of Week 8 Population Flag", "Y", "DERIVED", "CLINICAL STUDY SPONSOR"]
["CDISCPILOT01", "DM", "01-716-1151", "", "", "EFFICACY", "Efficacy Population Flag", "Y", "DERIVED", "CLINICAL STUDY SPONSOR"]
["CDISCPILOT01", "DM", "01-716-1151", "", "", "ITT", "Intent to Treat Population Flag", "Y", "DERIVED", "CLINICAL STUDY SPONSOR"]
["CDISCPILOT01", "DM", "01-716-1151", "", "", "SAFETY", "Safety Population Flag", "Y", "DERIVED", "CLINICAL STUDY SPONSOR"]
["CDISCPILOT01", "DM", "01-716-1157", "", "", "COMPLT16", "Completers of Week 16 Population Flag", "Y", "DERIVED", "CLINICAL STUDY SPONSOR"]
["CDISCPILOT01", "DM", "01-716-1157", "", "", "COMPLT24", "Completers of Week 24 Population Flag", "Y", "DERIVED", "CLINICAL STUDY SPONSOR"]
["CDISCPILOT01", "DM", "01-716-1157", "", "", "COMPLT8", "Completers of Week 8 Population Flag", "Y", "DERIVED", "CLINICAL STUDY SPONSOR"]
["CDISCPILOT01", "DM", "01-716-1157", "", "", "EFFICACY", "Efficacy Population Flag", "Y", "DERIVED", "CLINICAL STUDY SPONSOR"]
["CDISCPILOT01", "DM", "01-716-1157", "", "", "ITT", "Intent to Treat Population Flag", "Y", "DERIVED", "CLINICAL STUDY SPONSOR"]
["CDISCPILOT01", "DM", "01-716-1157", "", "", "SAFETY", "Safety Population Flag", "Y", "DERIVED", "CLINICAL STUDY SPONSOR"]
["CDISCPILOT01", "DM", "01-716-1160", "", "", "COMPLT16", "Completers of Week 16 Population Flag", "Y", "DERIVED", "CLINICAL STUDY SPONSOR"]
["CDISCPILOT01", "DM", "01-716-1160", "", "", "COMPLT24", "Completers of Week 24 Population Flag", "Y", "DERIVED", "CLINICAL STUDY SPONSOR"]
["CDISCPILOT01", "DM", "01-716-1160", "", "", "COMPLT8", "Completers of Week 8 Population Flag", "Y", "DERIVED", "CLINICAL STUDY SPONSOR"]
["CDISCPILOT01", "DM", "01-716-1160", "", "", "EFFICACY", "Efficacy Population Flag", "Y", "DERIVED", "CLINICAL STUDY SPONSOR"]
["CDISCPILOT01", "DM", "01-716-1160", "", "", "ITT", "Intent to Treat Population Flag", "Y", "DERIVED", "CLINICAL STUDY SPONSOR"]
["CDISCPILOT01", "DM", "01-716-1160", "", "", "SAFETY", "Safety Population Flag", "Y", "DERIVED", "CLINICAL STUDY SPONSOR"]
["CDISCPILOT01", "DM", "01-716-1167", "", "", "COMPLT16", "Completers of Week 16 Population Flag", "Y", "DERIVED", "CLINICAL STUDY SPONSOR"]
["CDISCPILOT01", "DM", "01-716-1167", "", "", "COMPLT24", "Completers of Week 24 Population Flag", "Y", "DERIVED", "CLINICAL STUDY SPONSOR"]
["CDISCPILOT01", "DM", "01-716-1167", "", "", "COMPLT8", "Completers of Week 8 Population Flag", "Y", "DERIVED", "CLINICAL STUDY SPONSOR"]
["CDISCPILOT01", "DM", "01-716-1167", "", "", "EFFICACY", "Efficacy Population Flag", "Y", "DERIVED", "CLINICAL STUDY SPONSOR"]
["CDISCPILOT01", "DM", "01-716-1167", "", "", "ITT", "Intent to Treat Population Flag", "Y", "DERIVED", "CLINICAL STUDY SPONSOR"]
["CDISCPILOT01", "DM", "01-716-1167", "", "", "SAFETY", "Safety Population Flag", "Y", "DERIVED", "CLINICAL STUDY SPONSOR"]
["CDISCPILOT01", "DM", "01-716-1177", "", "", "COMPLT16", "Completers of Week 16 Population Flag", "Y", "DERIVED", "CLINICAL STUDY SPONSOR"]
["CDISCPILOT01", "DM", "01-716-1177", "", "", "COMPLT24", "Completers of Week 24 Population Flag", "Y", "DERIVED", "CLINICAL STUDY SPONSOR"]
["CDISCPILOT01", "DM", "01-716-1177", "", "", "COMPLT8", "Completers of Week 8 Population Flag", "Y", "DERIVED", "CLINICAL STUDY SPONSOR"]
["CDISCPILOT01", "DM", "01-716-1177", "", "", "EFFICACY", "Efficacy Population Flag", "Y", "DERIVED", "CLINICAL STUDY SPONSOR"]
["CDISCPILOT01", "DM", "01-716-1177", "", "", "ITT", "Intent to Treat Population Flag", "Y", "DERIVED", "CLINICAL STUDY SPONSOR"]
["CDISCPILOT01", "DM", "01-716-1177", "", "", "SAFETY", "Safety Population Flag", "Y", "DERIVED", "CLINICAL STUDY SPONSOR"]
["CDISCPILOT01", "DM", "01-716-1189", "", "", "COMPLT16", "Completers of Week 16 Population Flag", "Y", "DERIVED", "CLINICAL STUDY SPONSOR"]
["CDISCPILOT01", "DM", "01-716-1189", "", "", "COMPLT8", "Completers of Week 8 Population Flag", "Y", "DERIVED", "CLINICAL STUDY SPONSOR"]
["CDISCPILOT01", "DM", "01-716-1189", "", "", "EFFICACY", "Efficacy Population Flag", "Y", "DERIVED", "CLINICAL STUDY SPONSOR"]
["CDISCPILOT01", "DM", "01-716-1189", "", "", "ITT", "Intent to Treat Population Flag", "Y", "DERIVED", "CLINICAL STUDY SPONSOR"]
["CDISCPILOT01", "DM", "01-716-1189", "", "", "SAFETY", "Safety Population Flag", "Y", "DERIVED", "CLINICAL STUDY SPONSOR"]
["CDISCPILOT01", "DM", "01-716-1229", "", "", "EFFICACY", "Efficacy Population Flag", "Y", "DERIVED", "CLINICAL STUDY SPONSOR"]
["CDISCPILOT01", "DM", "01-716-1229", "", "", "ITT", "Intent to Treat Population Flag", "Y", "DERIVED", "CLINICAL STUDY SPONSOR"]
["CDISCPILOT01", "DM", "01-716-1229", "", "", "SAFETY", "Safety Population Flag", "Y", "DERIVED", "CLINICAL STUDY SPONSOR"]
["CDISCPILOT01", "DM", "01-716-1298", "", "", "COMPLT8", "Completers of Week 8 Population Flag", "Y", "DERIVED", "CLINICAL STUDY SPONSOR"]
["CDISCPILOT01", "DM", "01-716-1298", "", "", "EFFICACY", "Efficacy Population Flag", "Y", "DERIVED", "CLINICAL STUDY SPONSOR"]
["CDISCPILOT01", "DM", "01-716-1298", "", "", "ITT", "Intent to Treat Population Flag", "Y", "DERIVED", "CLINICAL STUDY SPONSOR"]
["CDISCPILOT01", "DM", "01-716-1298", "", "", "SAFETY", "Safety Population Flag", "Y", "DERIVED", "CLINICAL STUDY SPONSOR"]
["CDISCPILOT01", "DM", "01-716-1308", "", "", "EFFICACY", "Efficacy Population Flag", "Y", "DERIVED", "CLINICAL STUDY SPONSOR"]
["CDISCPILOT01", "DM", "01-716-1308", "", "", "ITT", "Intent to Treat Population Flag", "Y", "DERIVED", "CLINICAL STUDY SPONSOR"]
["CDISCPILOT01", "DM", "01-716-1308", "", "", "SAFETY", "Safety Population Flag", "Y", "DERIVED", "CLINICAL STUDY SPONSOR"]
["CDISCPILOT01", "DM", "01-716-1311", "", "", "COMPLT16", "Completers of Week 16 Population Flag", "Y", "DERIVED", "CLINICAL STUDY SPONSOR"]
["CDISCPILOT01", "DM", "01-716-1311", "", "", "COMPLT8", "Completers of Week 8 Population Flag", "Y", "DERIVED", "CLINICAL STUDY SPONSOR"]
["CDISCPILOT01", "DM", "01-716-1311", "", "", "EFFICACY", "Efficacy Population Flag", "Y", "DERIVED", "CLINICAL STUDY SPONSOR"]
["CDISCPILOT01", "DM", "01-716-1311", "", "", "ITT", "Intent to Treat Population Flag", "Y", "DERIVED", "CLINICAL STUDY SPONSOR"]
["CDISCPILOT01", "DM", "01-716-1311", "", "", "SAFETY", "Safety Population Flag", "Y", "DERIVED", "CLINICAL STUDY SPONSOR"]
["CDISCPILOT01", "DM", "01-716-1364", "", "", "COMPLT16", "Completers of Week 16 Population Flag", "Y", "DERIVED", "CLINICAL STUDY SPONSOR"]
["CDISCPILOT01", "DM", "01-716-1364", "", "", "COMPLT24", "Completers of Week 24 Population Flag", "Y", "DERIVED", "CLINICAL STUDY SPONSOR"]
["CDISCPILOT01", "DM", "01-716-1364", "", "", "COMPLT8", "Completers of Week 8 Population Flag", "Y", "DERIVED", "CLINICAL STUDY SPONSOR"]
["CDISCPILOT01", "DM", "01-716-1364", "", "", "EFFICACY", "Efficacy Population Flag", "Y", "DERIVED", "CLINICAL STUDY SPONSOR"]
["CDISCPILOT01", "DM", "01-716-1364", "", "", "ITT", "Intent to Treat Population Flag", "Y", "DERIVED", "CLINICAL STUDY SPONSOR"]
["CDISCPILOT01", "DM", "01-716-1364", "", "", "SAFETY", "Safety Population Flag", "Y", "DERIVED", "CLINICAL STUDY SPONSOR"]
["CDISCPILOT01", "DM", "01-716-1373", "", "", "COMPLT8", "Completers of Week 8 Population Flag", "Y", "DERIVED", "CLINICAL STUDY SPONSOR"]
["CDISCPILOT01", "DM", "01-716-1373", "", "", "EFFICACY", "Efficacy Population Flag", "Y", "DERIVED", "CLINICAL STUDY SPONSOR"]
["CDISCPILOT01", "DM", "01-716-1373", "", "", "ITT", "Intent to Treat Population Flag", "Y", "DERIVED", "CLINICAL STUDY SPONSOR"]
["CDISCPILOT01", "DM", "01-716-1373", "", "", "SAFETY", "Safety Population Flag", "Y", "DERIVED", "CLINICAL STUDY SPONSOR"]
["CDISCPILOT01", "DM", "01-716-1418", "", "", "COMPLT16", "Completers of Week 16 Population Flag", "Y", "DERIVED", "CLINICAL STUDY SPONSOR"]
["CDISCPILOT01", "DM", "01-716-1418", "", "", "COMPLT24", "Completers of Week 24 Population Flag", "Y", "DERIVED", "CLINICAL STUDY SPONSOR"]
["CDISCPILOT01", "DM", "01-716-1418", "", "", "COMPLT8", "Completers of Week 8 Population Flag", "Y", "DERIVED", "CLINICAL STUDY SPONSOR"]
["CDISCPILOT01", "DM", "01-716-1418", "", "", "EFFICACY", "Efficacy Population Flag", "Y", "DERIVED", "CLINICAL STUDY SPONSOR"]
["CDISCPILOT01", "DM", "01-716-1418", "", "", "ITT", "Intent to Treat Population Flag", "Y", "DERIVED", "CLINICAL STUDY SPONSOR"]
["CDISCPILOT01", "DM", "01-716-1418", "", "", "SAFETY", "Safety Population Flag", "Y", "DERIVED", "CLINICAL STUDY SPONSOR"]
["CDISCPILOT01", "DM", "01-716-1441", "", "", "COMPLT16", "Completers of Week 16 Population Flag", "Y", "DERIVED", "CLINICAL STUDY SPONSOR"]
["CDISCPILOT01", "DM", "01-716-1441", "", "", "COMPLT24", "Completers of Week 24 Population Flag", "Y", "DERIVED", "CLINICAL STUDY SPONSOR"]
["CDISCPILOT01", "DM", "01-716-1441", "", "", "COMPLT8", "Completers of Week 8 Population Flag", "Y", "DERIVED", "CLINICAL STUDY SPONSOR"]
["CDISCPILOT01", "DM", "01-716-1441", "", "", "EFFICACY", "Efficacy Population Flag", "Y", "DERIVED", "CLINICAL STUDY SPONSOR"]
["CDISCPILOT01", "DM", "01-716-1441", "", "", "ITT", "Intent to Treat Population Flag", "Y", "DERIVED", "CLINICAL STUDY SPONSOR"]
["CDISCPILOT01", "DM", "01-716-1441", "", "", "SAFETY", "Safety Population Flag", "Y", "DERIVED", "CLINICAL STUDY SPONSOR"]
["CDISCPILOT01", "DM", "01-716-1447", "", "", "COMPLT16", "Completers of Week 16 Population Flag", "Y", "DERIVED", "CLINICAL STUDY SPONSOR"]
["CDISCPILOT01", "DM", "01-716-1447", "", "", "COMPLT24", "Completers of Week 24 Population Flag", "Y", "DERIVED", "CLINICAL STUDY SPONSOR"]
["CDISCPILOT01", "DM", "01-716-1447", "", "", "COMPLT8", "Completers of Week 8 Population Flag", "Y", "DERIVED", "CLINICAL STUDY SPONSOR"]
["CDISCPILOT01", "DM", "01-716-1447", "", "", "EFFICACY", "Efficacy Population Flag", "Y", "DERIVED", "CLINICAL STUDY SPONSOR"]
["CDISCPILOT01", "DM", "01-716-1447", "", "", "ITT", "Intent to Treat Population Flag", "Y", "DERIVED", "CLINICAL STUDY SPONSOR"]
["CDISCPILOT01", "DM", "01-716-1447", "", "", "SAFETY", "Safety Population Flag", "Y", "DERIVED", "CLINICAL STUDY SPONSOR"]
["CDISCPILOT01", "DM", "01-717-1004", "", "", "COMPLT16", "Completers of Week 16 Population Flag", "Y", "DERIVED", "CLINICAL STUDY SPONSOR"]
["CDISCPILOT01", "DM", "01-717-1004", "", "", "COMPLT24", "Completers of Week 24 Population Flag", "Y", "DERIVED", "CLINICAL STUDY SPONSOR"]
["CDISCPILOT01", "DM", "01-717-1004", "", "", "COMPLT8", "Completers of Week 8 Population Flag", "Y", "DERIVED", "CLINICAL STUDY SPONSOR"]
["CDISCPILOT01", "DM", "01-717-1004", "", "", "EFFICACY", "Efficacy Population Flag", "Y", "DERIVED", "CLINICAL STUDY SPONSOR"]
["CDISCPILOT01", "DM", "01-717-1004", "", "", "ITT", "Intent to Treat Population Flag", "Y", "DERIVED", "CLINICAL STUDY SPONSOR"]
["CDISCPILOT01", "DM", "01-717-1004", "", "", "SAFETY", "Safety Population Flag", "Y", "DERIVED", "CLINICAL STUDY SPONSOR"]
["CDISCPILOT01", "DM", "01-717-1109", "", "", "COMPLT16", "Completers of Week 16 Population Flag", "Y", "DERIVED", "CLINICAL STUDY SPONSOR"]
["CDISCPILOT01", "DM", "01-717-1109", "", "", "COMPLT24", "Completers of Week 24 Population Flag", "Y", "DERIVED", "CLINICAL STUDY SPONSOR"]
["CDISCPILOT01", "DM", "01-717-1109", "", "", "COMPLT8", "Completers of Week 8 Population Flag", "Y", "DERIVED", "CLINICAL STUDY SPONSOR"]
["CDISCPILOT01", "DM", "01-717-1109", "", "", "EFFICACY", "Efficacy Population Flag", "Y", "DERIVED", "CLINICAL STUDY SPONSOR"]
["CDISCPILOT01", "DM", "01-717-1109", "", "", "ITT", "Intent to Treat Population Flag", "Y", "DERIVED", "CLINICAL STUDY SPONSOR"]
["CDISCPILOT01", "DM", "01-717-1109", "", "", "SAFETY", "Safety Population Flag", "Y", "DERIVED", "CLINICAL STUDY SPONSOR"]
["CDISCPILOT01", "DM", "01-717-1174", "", "", "COMPLT16", "Completers of Week 16 Population Flag", "Y", "DERIVED", "CLINICAL STUDY SPONSOR"]
["CDISCPILOT01", "DM", "01-717-1174", "", "", "COMPLT24", "Completers of Week 24 Population Flag", "Y", "DERIVED", "CLINICAL STUDY SPONSOR"]
["CDISCPILOT01", "DM", "01-717-1174", "", "", "COMPLT8", "Completers of Week 8 Population Flag", "Y", "DERIVED", "CLINICAL STUDY SPONSOR"]
["CDISCPILOT01", "DM", "01-717-1174", "", "", "EFFICACY", "Efficacy Population Flag", "Y", "DERIVED", "CLINICAL STUDY SPONSOR"]
["CDISCPILOT01", "DM", "01-717-1174", "", "", "ITT", "Intent to Treat Population Flag", "Y", "DERIVED", "CLINICAL STUDY SPONSOR"]
["CDISCPILOT01", "DM", "01-717-1174", "", "", "SAFETY", "Safety Population Flag", "Y", "DERIVED", "CLINICAL STUDY SPONSOR"]
["CDISCPILOT01", "DM", "01-717-1201", "", "", "COMPLT8", "Completers of Week 8 Population Flag", "Y", "DERIVED", "CLINICAL STUDY SPONSOR"]
["CDISCPILOT01", "DM", "01-717-1201", "", "", "EFFICACY", "Efficacy Population Flag", "Y", "DERIVED", "CLINICAL STUDY SPONSOR"]
["CDISCPILOT01", "DM", "01-717-1201", "", "", "ITT", "Intent to Treat Population Flag", "Y", "DERIVED", "CLINICAL STUDY SPONSOR"]
["CDISCPILOT01", "DM", "01-717-1201", "", "", "SAFETY", "Safety Population Flag", "Y", "DERIVED", "CLINICAL STUDY SPONSOR"]
["CDISCPILOT01", "DM", "01-717-1344", "", "", "COMPLT8", "Completers of Week 8 Population Flag", "Y", "DERIVED", "CLINICAL STUDY SPONSOR"]
["CDISCPILOT01", "DM", "01-717-1344", "", "", "EFFICACY", "Efficacy Population Flag", "Y", "DERIVED", "CLINICAL STUDY SPONSOR"]
["CDISCPILOT01", "DM", "01-717-1344", "", "", "ITT", "Intent to Treat Population Flag", "Y", "DERIVED", "CLINICAL STUDY SPONSOR"]
["CDISCPILOT01", "DM", "01-717-1344", "", "", "SAFETY", "Safety Population Flag", "Y", "DERIVED", "CLINICAL STUDY SPONSOR"]
["CDISCPILOT01", "DM", "01-717-1357", "", "", "COMPLT16", "Completers of Week 16 Population Flag", "Y", "DERIVED", "CLINICAL STUDY SPONSOR"]
["CDISCPILOT01", "DM", "01-717-1357", "", "", "COMPLT24", "Completers of Week 24 Population Flag", "Y", "DERIVED", "CLINICAL STUDY SPONSOR"]
["CDISCPILOT01", "DM", "01-717-1357", "", "", "COMPLT8", "Completers of Week 8 Population Flag", "Y", "DERIVED", "CLINICAL STUDY SPONSOR"]
["CDISCPILOT01", "DM", "01-717-1357", "", "", "EFFICACY", "Efficacy Population Flag", "Y", "DERIVED", "CLINICAL STUDY SPONSOR"]
["CDISCPILOT01", "DM", "01-717-1357", "", "", "ITT", "Intent to Treat Population Flag", "Y", "DERIVED", "CLINICAL STUDY SPONSOR"]
["CDISCPILOT01", "DM", "01-717-1357", "", "", "SAFETY", "Safety Population Flag", "Y", "DERIVED", "CLINICAL STUDY SPONSOR"]
["CDISCPILOT01", "DM", "01-717-1446", "", "", "COMPLT16", "Completers of Week 16 Population Flag", "Y", "DERIVED", "CLINICAL STUDY SPONSOR"]
["CDISCPILOT01", "DM", "01-717-1446", "", "", "COMPLT24", "Completers of Week 24 Population Flag", "Y", "DERIVED", "CLINICAL STUDY SPONSOR"]
["CDISCPILOT01", "DM", "01-717-1446", "", "", "COMPLT8", "Completers of Week 8 Population Flag", "Y", "DERIVED", "CLINICAL STUDY SPONSOR"]
["CDISCPILOT01", "DM", "01-717-1446", "", "", "EFFICACY", "Efficacy Population Flag", "Y", "DERIVED", "CLINICAL STUDY SPONSOR"]
["CDISCPILOT01", "DM", "01-717-1446", "", "", "ITT", "Intent to Treat Population Flag", "Y", "DERIVED", "CLINICAL STUDY SPONSOR"]
["CDISCPILOT01", "DM", "01-717-1446", "", "", "SAFETY", "Safety Population Flag", "Y", "DERIVED", "CLINICAL STUDY SPONSOR"]
["CDISCPILOT01", "DM", "01-718-1066", "", "", "EFFICACY", "Efficacy Population Flag", "Y", "DERIVED", "CLINICAL STUDY SPONSOR"]
["CDISCPILOT01", "DM", "01-718-1066", "", "", "ITT", "Intent to Treat Population Flag", "Y", "DERIVED", "CLINICAL STUDY SPONSOR"]
["CDISCPILOT01", "DM", "01-718-1066", "", "", "SAFETY", "Safety Population Flag", "Y", "DERIVED", "CLINICAL STUDY SPONSOR"]
["CDISCPILOT01", "DM", "01-718-1079", "", "", "EFFICACY", "Efficacy Population Flag", "Y", "DERIVED", "CLINICAL STUDY SPONSOR"]
["CDISCPILOT01", "DM", "01-718-1079", "", "", "ITT", "Intent to Treat Population Flag", "Y", "DERIVED", "CLINICAL STUDY SPONSOR"]
["CDISCPILOT01", "DM", "01-718-1079", "", "", "SAFETY", "Safety Population Flag", "Y", "DERIVED", "CLINICAL STUDY SPONSOR"]
["CDISCPILOT01", "DM", "01-718-1101", "", "", "COMPLT16", "Completers of Week 16 Population Flag", "Y", "DERIVED", "CLINICAL STUDY SPONSOR"]
["CDISCPILOT01", "DM", "01-718-1101", "", "", "COMPLT24", "Completers of Week 24 Population Flag", "Y", "DERIVED", "CLINICAL STUDY SPONSOR"]
["CDISCPILOT01", "DM", "01-718-1101", "", "", "COMPLT8", "Completers of Week 8 Population Flag", "Y", "DERIVED", "CLINICAL STUDY SPONSOR"]
["CDISCPILOT01", "DM", "01-718-1101", "", "", "EFFICACY", "Efficacy Population Flag", "Y", "DERIVED", "CLINICAL STUDY SPONSOR"]
["CDISCPILOT01", "DM", "01-718-1101", "", "", "ITT", "Intent to Treat Population Flag", "Y", "DERIVED", "CLINICAL STUDY SPONSOR"]
["CDISCPILOT01", "DM", "01-718-1101", "", "", "SAFETY", "Safety Population Flag", "Y", "DERIVED", "CLINICAL STUDY SPONSOR"]
["CDISCPILOT01", "DM", "01-718-1139", "", "", "COMPLT16", "Completers of Week 16 Population Flag", "Y", "DERIVED", "CLINICAL STUDY SPONSOR"]
["CDISCPILOT01", "DM", "01-718-1139", "", "", "COMPLT24", "Completers of Week 24 Population Flag", "Y", "DERIVED", "CLINICAL STUDY SPONSOR"]
["CDISCPILOT01", "DM", "01-718-1139", "", "", "COMPLT8", "Completers of Week 8 Population Flag", "Y", "DERIVED", "CLINICAL STUDY SPONSOR"]
["CDISCPILOT01", "DM", "01-718-1139", "", "", "EFFICACY", "Efficacy Population Flag", "Y", "DERIVED", "CLINICAL STUDY SPONSOR"]
["CDISCPILOT01", "DM", "01-718-1139", "", "", "ITT", "Intent to Treat Population Flag", "Y", "DERIVED", "CLINICAL STUDY SPONSOR"]
["CDISCPILOT01", "DM", "01-718-1139", "", "", "SAFETY", "Safety Population Flag", "Y", "DERIVED", "CLINICAL STUDY SPONSOR"]
["CDISCPILOT01", "DM", "01-718-1150", "", "", "COMPLT16", "Completers of Week 16 Population Flag", "Y", "DERIVED", "CLINICAL STUDY SPONSOR"]
["CDISCPILOT01", "DM", "01-718-1150", "", "", "COMPLT24", "Completers of Week 24 Population Flag", "Y", "DERIVED", "CLINICAL STUDY SPONSOR"]
["CDISCPILOT01", "DM", "01-718-1150", "", "", "COMPLT8", "Completers of Week 8 Population Flag", "Y", "DERIVED", "CLINICAL STUDY SPONSOR"]
["CDISCPILOT01", "DM", "01-718-1150", "", "", "EFFICACY", "Efficacy Population Flag", "Y", "DERIVED", "CLINICAL STUDY SPONSOR"]
["CDISCPILOT01", "DM", "01-718-1150", "", "", "ITT", "Intent to Treat Population Flag", "Y", "DERIVED", "CLINICAL STUDY SPONSOR"]
["CDISCPILOT01", "DM", "01-718-1150", "", "", "SAFETY", "Safety Population Flag", "Y", "DERIVED", "CLINICAL STUDY SPONSOR"]
["CDISCPILOT01", "DM", "01-718-1170", "", "", "EFFICACY", "Efficacy Population Flag", "Y", "DERIVED", "CLINICAL STUDY SPONSOR"]
["CDISCPILOT01", "DM", "01-718-1170", "", "", "ITT", "Intent to Treat Population Flag", "Y", "DERIVED", "CLINICAL STUDY SPONSOR"]
["CDISCPILOT01", "DM", "01-718-1170", "", "", "SAFETY", "Safety Population Flag", "Y", "DERIVED", "CLINICAL STUDY SPONSOR"]
["CDISCPILOT01", "DM", "01-718-1172", "", "", "COMPLT8", "Completers of Week 8 Population Flag", "Y", "DERIVED", "CLINICAL STUDY SPONSOR"]
["CDISCPILOT01", "DM", "01-718-1172", "", "", "EFFICACY", "Efficacy Population Flag", "Y", "DERIVED", "CLINICAL STUDY SPONSOR"]
["CDISCPILOT01", "DM", "01-718-1172", "", "", "ITT", "Intent to Treat Population Flag", "Y", "DERIVED", "CLINICAL STUDY SPONSOR"]
["CDISCPILOT01", "DM", "01-718-1172", "", "", "SAFETY", "Safety Population Flag", "Y", "DERIVED", "CLINICAL STUDY SPONSOR"]
["CDISCPILOT01", "DM", "01-718-1250", "", "", "COMPLT16", "Completers of Week 16 Population Flag", "Y", "DERIVED", "CLINICAL STUDY SPONSOR"]
["CDISCPILOT01", "DM", "01-718-1250", "", "", "COMPLT8", "Completers of Week 8 Population Flag", "Y", "DERIVED", "CLINICAL STUDY SPONSOR"]
["CDISCPILOT01", "DM", "01-718-1250", "", "", "EFFICACY", "Efficacy Population Flag", "Y", "DERIVED", "CLINICAL STUDY SPONSOR"]
["CDISCPILOT01", "DM", "01-718-1250", "", "", "ITT", "Intent to Treat Population Flag", "Y", "DERIVED", "CLINICAL STUDY SPONSOR"]
["CDISCPILOT01", "DM", "01-718-1250", "", "", "SAFETY", "Safety Population Flag", "Y", "DERIVED", "CLINICAL STUDY SPONSOR"]
["CDISCPILOT01", "DM", "01-718-1254", "", "", "COMPLT16", "Completers of Week 16 Population Flag", "Y", "DERIVED", "CLINICAL STUDY SPONSOR"]
["CDISCPILOT01", "DM", "01-718-1254", "", "", "COMPLT24", "Completers of Week 24 Population Flag", "Y", "DERIVED", "CLINICAL STUDY SPONSOR"]
["CDISCPILOT01", "DM", "01-718-1254", "", "", "COMPLT8", "Completers of Week 8 Population Flag", "Y", "DERIVED", "CLINICAL STUDY SPONSOR"]
["CDISCPILOT01", "DM", "01-718-1254", "", "", "EFFICACY", "Efficacy Population Flag", "Y", "DERIVED", "CLINICAL STUDY SPONSOR"]
["CDISCPILOT01", "DM", "01-718-1254", "", "", "ITT", "Intent to Treat Population Flag", "Y", "DERIVED", "CLINICAL STUDY SPONSOR"]
["CDISCPILOT01", "DM", "01-718-1254", "", "", "SAFETY", "Safety Population Flag", "Y", "DERIVED", "CLINICAL STUDY SPONSOR"]
["CDISCPILOT01", "DM", "01-718-1328", "", "", "COMPLT8", "Completers of Week 8 Population Flag", "Y", "DERIVED", "CLINICAL STUDY SPONSOR"]
["CDISCPILOT01", "DM", "01-718-1328", "", "", "EFFICACY", "Efficacy Population Flag", "Y", "DERIVED", "CLINICAL STUDY SPONSOR"]
["CDISCPILOT01", "DM", "01-718-1328", "", "", "ITT", "Intent to Treat Population Flag", "Y", "DERIVED", "CLINICAL STUDY SPONSOR"]
["CDISCPILOT01", "DM", "01-718-1328", "", "", "SAFETY", "Safety Population Flag", "Y", "DERIVED", "CLINICAL STUDY SPONSOR"]
["CDISCPILOT01", "DM", "01-718-1355", "", "", "COMPLT16", "Completers of Week 16 Population Flag", "Y", "DERIVED", "CLINICAL STUDY SPONSOR"]
["CDISCPILOT01", "DM", "01-718-1355", "", "", "COMPLT24", "Completers of Week 24 Population Flag", "Y", "DERIVED", "CLINICAL STUDY SPONSOR"]
["CDISCPILOT01", "DM", "01-718-1355", "", "", "COMPLT8", "Completers of Week 8 Population Flag", "Y", "DERIVED", "CLINICAL STUDY SPONSOR"]
["CDISCPILOT01", "DM", "01-718-1355", "", "", "EFFICACY", "Efficacy Population Flag", "Y", "DERIVED", "CLINICAL STUDY SPONSOR"]
["CDISCPILOT01", "DM", "01-718-1355", "", "", "ITT", "Intent to Treat Population Flag", "Y", "DERIVED", "CLINICAL STUDY SPONSOR"]
["CDISCPILOT01", "DM", "01-718-1355", "", "", "SAFETY", "Safety Population Flag", "Y", "DERIVED", "CLINICAL STUDY SPONSOR"]
["CDISCPILOT01", "DM", "01-718-1371", "", "", "COMPLT8", "Completers of Week 8 Population Flag", "Y", "DERIVED", "CLINICAL STUDY SPONSOR"]
["CDISCPILOT01", "DM", "01-718-1371", "", "", "EFFICACY", "Efficacy Population Flag", "Y", "DERIVED", "CLINICAL STUDY SPONSOR"]
["CDISCPILOT01", "DM", "01-718-1371", "", "", "ITT", "Intent to Treat Population Flag", "Y", "DERIVED", "CLINICAL STUDY SPONSOR"]
["CDISCPILOT01", "DM", "01-718-1371", "", "", "SAFETY", "Safety Population Flag", "Y", "DERIVED", "CLINICAL STUDY SPONSOR"]
["CDISCPILOT01", "DM", "01-718-1427", "", "", "COMPLT8", "Completers of Week 8 Population Flag", "Y", "DERIVED", "CLINICAL STUDY SPONSOR"]
["CDISCPILOT01", "DM", "01-718-1427", "", "", "EFFICACY", "Efficacy Population Flag", "Y", "DERIVED", "CLINICAL STUDY SPONSOR"]
["CDISCPILOT01", "DM", "01-718-1427", "", "", "ITT", "Intent to Treat Population Flag", "Y", "DERIVED", "CLINICAL STUDY SPONSOR"]
["CDISCPILOT01", "DM", "01-718-1427", "", "", "SAFETY", "Safety Population Flag", "Y", "DERIVED", "CLINICAL STUDY SPONSOR"]
