{"datasetJSONCreationDateTime": "2025-10-13T16:28:55", "datasetJSONVersion": "1.1.0", "fileOID": "UpdatedCDISCPILOT.CDISC SDTM.3.2.SV", "studyOID": "UpdatedCDISCPILOT.CDISC SDTM.3.2", "metaDataVersionOID": "MDV.UpdatedCDISCPILOT.CDISC SDTM.3.2", "itemGroupOID": "{SV", "records": 3559, "name": "SV", "label": "Subject Visits", "columns": [{"itemOID": "IT.SV.STUDYID", "name": "STUDYID", "label": "Study Identifier", "dataType": "string", "length": 12, "keySequence": 1}, {"itemOID": "IT.SV.DOMAIN", "name": "DOMAIN", "label": "Domain Abbreviation", "dataType": "string", "length": 2}, {"itemOID": "IT.SV.USUBJID", "name": "USUBJID", "label": "Unique Subject Identifier", "dataType": "string", "length": 11, "keySequence": 2}, {"itemOID": "IT.SV.VISITNUM", "name": "VISITNUM", "label": "Visit Number", "dataType": "double", "length": 8, "keySequence": 3}, {"itemOID": "IT.SV.VISIT", "name": "VISIT", "label": "Visit Name", "dataType": "string", "length": 19}, {"itemOID": "IT.SV.VISITDY", "name": "VISITDY", "label": "Planned Study Day of Visit", "dataType": "integer", "length": 8}, {"itemOID": "IT.SV.EPOCH", "name": "EPOCH", "label": "Epoch", "dataType": "string", "length": 9}, {"itemOID": "IT.SV.SVSTDTC", "name": "SVSTDTC", "label": "Start Date/Time of Visit", "dataType": "string", "length": 10}, {"itemOID": "IT.SV.SVENDTC", "name": "SVENDTC", "label": "End Date/Time of Visit", "dataType": "string", "length": 10}, {"itemOID": "IT.SV.SVSTDY", "name": "SVSTDY", "label": "Study Day of Start of Visit", "dataType": "integer", "length": 8}, {"itemOID": "IT.SV.SVENDY", "name": "SVENDY", "label": "Study Day of End of Visit", "dataType": "integer", "length": 8}, {"itemOID": "IT.SV.SVUPDES", "name": "SVUPDES", "label": "Description of Unplanned Visit", "dataType": "string", "length": 51}], "rows": [["CDISCPILOT01", "SV", "01-701-1015", 1.0, "SCREENING 1", -7, "SCREENING", "2013-12-26", "2013-12-26", -7, -7, ""], ["CDISCPILOT01", "SV", "01-701-1015", 2.0, "SCREENING 2", -1, "SCREENING", "2013-12-31", "2013-12-31", -2, -2, ""], ["CDISCPILOT01", "SV", "01-701-1015", 3.0, "BASELINE", 1, "TREATMENT", "2014-01-02", "2014-01-02", 1, 1, ""], ["CDISCPILOT01", "SV", "01-701-1015", 3.5, "AMBUL ECG PLACEMENT", 13, "TREATMENT", "2014-01-14", "2014-01-14", 13, 13, ""], ["CDISCPILOT01", "SV", "01-701-1015", 4.0, "WEEK 2", 14, "TREATMENT", "2014-01-16", "2014-01-16", 15, 15, ""], ["CDISCPILOT01", "SV", "01-701-1015", 5.0, "WEEK 4", 28, "TREATMENT", "2014-01-30", "2014-01-30", 29, 29, ""], ["CDISCPILOT01", "SV", "01-701-1015", 6.0, "AMBUL ECG REMOVAL", 30, "TREATMENT", "2014-02-01", "2014-02-01", 31, 31, ""], ["CDISCPILOT01", "SV", "01-701-1015", 7.0, "WEEK 6", 42, "TREATMENT", "2014-02-12", "2014-02-12", 42, 42, ""], ["CDISCPILOT01", "SV", "01-701-1015", 8.0, "WEEK 8", 56, "TREATMENT", "2014-03-05", "2014-03-05", 63, 63, ""], ["CDISCPILOT01", "SV", "01-701-1015", 9.0, "WEEK 12", 84, "TREATMENT", "2014-03-26", "2014-03-26", 84, 84, ""], ["CDISCPILOT01", "SV", "01-701-1015", 9.1, "WEEK 14 (T)", 98, "TREATMENT", "2014-04-09", "2014-04-09", 98, 98, ""], ["CDISCPILOT01", "SV", "01-701-1015", 10.0, "WEEK 16", 112, "TREATMENT", "2014-05-07", "2014-05-07", 126, 126, ""], ["CDISCPILOT01", "SV", "01-701-1015", 11.0, "WEEK 20", 140, "TREATMENT", "2014-05-21", "2014-05-21", 140, 140, ""], ["CDISCPILOT01", "SV", "01-701-1015", 11.1, "WEEK 22 (T)", 154, "TREATMENT", "2014-06-04", "2014-06-04", 154, 154, ""], ["CDISCPILOT01", "SV", "01-701-1015", 12.0, "WEEK 24", 168, "TREATMENT", "2014-06-18", "2014-06-18", 168, 168, ""], ["CDISCPILOT01", "SV", "01-701-1015", 13.0, "WEEK 26", 182, "TREATMENT", "2014-07-02", "2014-07-02", 182, 182, ""], ["CDISCPILOT01", "SV", "01-701-1023", 1.0, "SCREENING 1", -7, "SCREENING", "2012-07-22", "2012-07-22", -14, -14, ""], ["CDISCPILOT01", "SV", "01-701-1023", 2.0, "SCREENING 2", -1, "SCREENING", "2012-08-03", "2012-08-03", -2, -2, ""], ["CDISCPILOT01", "SV", "01-701-1023", 3.0, "BASELINE", 1, "TREATMENT", "2012-08-05", "2012-08-05", 1, 1, ""], ["CDISCPILOT01", "SV", "01-701-1023", 3.5, "AMBUL ECG PLACEMENT", 13, "TREATMENT", "2012-08-26", "2012-08-26", 22, 22, ""], ["CDISCPILOT01", "SV", "01-701-1023", 4.0, "WEEK 2", 14, "TREATMENT", "2012-08-27", "2012-08-27", 23, 23, ""], ["CDISCPILOT01", "SV", "01-701-1023", 5.0, "WEEK 4", 28, "TREATMENT", "2012-09-02", "2012-09-02", 29, 29, ""], ["CDISCPILOT01", "SV", "01-701-1023", 5.1, "UNSCHEDULED 5.1", null, "TREATMENT", "2013-02-18", "2013-02-18", 198, 198, "Unplanned visit to complete unscheduled assessments"], ["CDISCPILOT01", "SV", "01-701-1023", 101.0, "AE FOLLOW-UP", null, "TREATMENT", "2013-02-18", "2013-02-18", 198, 198, ""], ["CDISCPILOT01", "SV", "01-701-1023", 201.0, "RETRIEVAL", 168, "TREATMENT", "2013-02-18", "2013-02-18", 198, 198, ""], ["CDISCPILOT01", "SV", "01-701-1028", 1.0, "SCREENING 1", -7, "SCREENING", "2013-07-11", "2013-07-11", -8, -8, ""], ["CDISCPILOT01", "SV", "01-701-1028", 2.0, "SCREENING 2", -1, "SCREENING", "2013-07-17", "2013-07-17", -2, -2, ""], ["CDISCPILOT01", "SV", "01-701-1028", 3.0, "BASELINE", 1, "TREATMENT", "2013-07-19", "2013-07-19", 1, 1, ""], ["CDISCPILOT01", "SV", "01-701-1028", 3.5, "AMBUL ECG PLACEMENT", 13, "TREATMENT", "2013-07-31", "2013-07-31", 13, 13, ""], ["CDISCPILOT01", "SV", "01-701-1028", 4.0, "WEEK 2", 14, "TREATMENT", "2013-08-01", "2013-08-01", 14, 14, ""], ["CDISCPILOT01", "SV", "01-701-1028", 5.0, "WEEK 4", 28, "TREATMENT", "2013-08-14", "2013-08-14", 27, 27, ""], ["CDISCPILOT01", "SV", "01-701-1028", 6.0, "AMBUL ECG REMOVAL", 30, "TREATMENT", "2013-08-16", "2013-08-16", 29, 29, ""], ["CDISCPILOT01", "SV", "01-701-1028", 7.0, "WEEK 6", 42, "TREATMENT", "2013-08-29", "2013-08-29", 42, 42, ""], ["CDISCPILOT01", "SV", "01-701-1028", 8.0, "WEEK 8", 56, "TREATMENT", "2013-09-10", "2013-09-10", 54, 54, ""], ["CDISCPILOT01", "SV", "01-701-1028", 8.1, "WEEK 10 (T)", 70, "TREATMENT", "2013-09-24", "2013-09-24", 68, 68, ""], ["CDISCPILOT01", "SV", "01-701-1028", 9.0, "WEEK 12", 84, "TREATMENT", "2013-10-09", "2013-10-09", 83, 83, ""], ["CDISCPILOT01", "SV", "01-701-1028", 9.1, "WEEK 14 (T)", 98, "TREATMENT", "2013-10-23", "2013-10-23", 97, 97, ""], ["CDISCPILOT01", "SV", "01-701-1028", 10.0, "WEEK 16", 112, "TREATMENT", "2013-11-06", "2013-11-06", 111, 111, ""], ["CDISCPILOT01", "SV", "01-701-1028", 10.1, "WEEK 18 (T)", 126, "TREATMENT", "2013-11-20", "2013-11-20", 125, 125, ""], ["CDISCPILOT01", "SV", "01-701-1028", 11.0, "WEEK 20", 140, "TREATMENT", "2013-12-04", "2013-12-04", 139, 139, ""], ["CDISCPILOT01", "SV", "01-701-1028", 11.1, "WEEK 22 (T)", 154, "TREATMENT", "2013-12-18", "2013-12-18", 153, 153, ""], ["CDISCPILOT01", "SV", "01-701-1028", 12.0, "WEEK 24", 168, "TREATMENT", "2014-01-06", "2014-01-06", 172, 172, ""], ["CDISCPILOT01", "SV", "01-701-1028", 13.0, "WEEK 26", 182, "TREATMENT", "2014-01-14", "2014-01-14", 180, 180, ""], ["CDISCPILOT01", "SV", "01-701-1033", 1.0, "SCREENING 1", -7, "SCREENING", "2014-03-10", "2014-03-10", -8, -8, ""], ["CDISCPILOT01", "SV", "01-701-1033", 2.0, "SCREENING 2", -1, "SCREENING", "2014-03-16", "2014-03-16", -2, -2, ""], ["CDISCPILOT01", "SV", "01-701-1033", 3.0, "BASELINE", 1, "TREATMENT", "2014-03-18", "2014-03-18", 1, 1, ""], ["CDISCPILOT01", "SV", "01-701-1033", 3.5, "AMBUL ECG PLACEMENT", 13, "TREATMENT", "2014-03-31", "2014-03-31", 14, 14, ""], ["CDISCPILOT01", "SV", "01-701-1033", 4.0, "WEEK 2", 14, "TREATMENT", "2014-04-01", "2014-04-01", 15, 15, ""], ["CDISCPILOT01", "SV", "01-701-1033", 5.0, "WEEK 4", 28, "TREATMENT", "2014-04-14", "2014-04-14", 28, 28, ""], ["CDISCPILOT01", "SV", "01-701-1033", 201.0, "RETRIEVAL", 168, "FOLLOW-UP", "2014-09-15", "2014-09-15", 182, 182, ""], ["CDISCPILOT01", "SV", "01-701-1034", 1.0, "SCREENING 1", -7, "SCREENING", "2014-06-24", "2014-06-24", -7, -7, ""], ["CDISCPILOT01", "SV", "01-701-1034", 2.0, "SCREENING 2", -1, "SCREENING", "2014-06-29", "2014-06-29", -2, -2, ""], ["CDISCPILOT01", "SV", "01-701-1034", 3.0, "BASELINE", 1, "TREATMENT", "2014-07-01", "2014-07-01", 1, 1, ""], ["CDISCPILOT01", "SV", "01-701-1034", 4.0, "WEEK 2", 14, "TREATMENT", "2014-07-15", "2014-07-15", 15, 15, ""], ["CDISCPILOT01", "SV", "01-701-1034", 5.0, "WEEK 4", 28, "TREATMENT", "2014-07-29", "2014-07-29", 29, 29, ""], ["CDISCPILOT01", "SV", "01-701-1034", 6.0, "AMBUL ECG REMOVAL", 30, "TREATMENT", "2014-07-31", "2014-07-31", 31, 31, ""], ["CDISCPILOT01", "SV", "01-701-1034", 7.0, "WEEK 6", 42, "TREATMENT", "2014-08-11", "2014-08-11", 42, 42, ""], ["CDISCPILOT01", "SV", "01-701-1034", 8.0, "WEEK 8", 56, "TREATMENT", "2014-08-26", "2014-08-26", 57, 57, ""], ["CDISCPILOT01", "SV", "01-701-1034", 8.1, "WEEK 10 (T)", 70, "TREATMENT", "2014-09-09", "2014-09-09", 71, 71, ""], ["CDISCPILOT01", "SV", "01-701-1034", 9.0, "WEEK 12", 84, "TREATMENT", "2014-09-25", "2014-09-25", 87, 87, ""], ["CDISCPILOT01", "SV", "01-701-1034", 9.1, "WEEK 14 (T)", 98, "TREATMENT", "2014-10-07", "2014-10-07", 99, 99, ""], ["CDISCPILOT01", "SV", "01-701-1034", 10.0, "WEEK 16", 112, "TREATMENT", "2014-10-21", "2014-10-21", 113, 113, ""], ["CDISCPILOT01", "SV", "01-701-1034", 10.1, "WEEK 18 (T)", 126, "TREATMENT", "2014-11-04", "2014-11-04", 127, 127, ""], ["CDISCPILOT01", "SV", "01-701-1034", 11.0, "WEEK 20", 140, "TREATMENT", "2014-11-18", "2014-11-18", 141, 141, ""], ["CDISCPILOT01", "SV", "01-701-1034", 11.1, "WEEK 22 (T)", 154, "TREATMENT", "2014-12-02", "2014-12-02", 155, 155, ""], ["CDISCPILOT01", "SV", "01-701-1034", 12.0, "WEEK 24", 168, "TREATMENT", "2014-12-17", "2014-12-17", 170, 170, ""], ["CDISCPILOT01", "SV", "01-701-1034", 13.0, "WEEK 26", 182, "TREATMENT", "2014-12-30", "2014-12-30", 183, 183, ""], ["CDISCPILOT01", "SV", "01-701-1047", 1.0, "SCREENING 1", -7, "SCREENING", "2013-01-22", "2013-01-22", -21, -21, ""], ["CDISCPILOT01", "SV", "01-701-1047", 2.0, "SCREENING 2", -1, "SCREENING", "2013-02-10", "2013-02-10", -2, -2, ""], ["CDISCPILOT01", "SV", "01-701-1047", 3.0, "BASELINE", 1, "TREATMENT", "2013-02-12", "2013-02-12", 1, 1, ""], ["CDISCPILOT01", "SV", "01-701-1047", 3.5, "AMBUL ECG PLACEMENT", 13, "TREATMENT", "2013-02-24", "2013-02-24", 13, 13, ""], ["CDISCPILOT01", "SV", "01-701-1047", 4.0, "WEEK 2", 14, "TREATMENT", "2013-02-25", "2013-02-25", 14, 14, ""], ["CDISCPILOT01", "SV", "01-701-1047", 5.0, "WEEK 4", 28, "TREATMENT", "2013-03-10", "2013-03-10", 27, 27, ""], ["CDISCPILOT01", "SV", "01-701-1047", 6.0, "AMBUL ECG REMOVAL", 30, "TREATMENT", "2013-03-29", "2013-03-29", 46, 46, ""], ["CDISCPILOT01", "SV", "01-701-1047", 6.1, "UNSCHEDULED 6.1", null, "TREATMENT", "2013-04-07", "2013-04-07", 55, 55, "Unplanned visit to complete unscheduled assessments"], ["CDISCPILOT01", "SV", "01-701-1047", 201.0, "RETRIEVAL", 168, "FOLLOW-UP", "2013-07-28", "2013-07-28", 167, 167, ""], ["CDISCPILOT01", "SV", "01-701-1057", 1.0, "SCREENING 1", -7, "SCREENING", "2013-12-20", "2013-12-20", null, null, ""], ["CDISCPILOT01", "SV", "01-701-1097", 1.0, "SCREENING 1", -7, "SCREENING", "2013-12-23", "2013-12-23", -9, -9, ""], ["CDISCPILOT01", "SV", "01-701-1097", 2.0, "SCREENING 2", -1, "SCREENING", "2013-12-30", "2013-12-30", -2, -2, ""], ["CDISCPILOT01", "SV", "01-701-1097", 3.0, "BASELINE", 1, "TREATMENT", "2014-01-01", "2014-01-01", 1, 1, ""], ["CDISCPILOT01", "SV", "01-701-1097", 3.5, "AMBUL ECG PLACEMENT", 13, "TREATMENT", "2014-01-14", "2014-01-14", 14, 14, ""], ["CDISCPILOT01", "SV", "01-701-1097", 4.0, "WEEK 2", 14, "TREATMENT", "2014-01-15", "2014-01-15", 15, 15, ""], ["CDISCPILOT01", "SV", "01-701-1097", 5.0, "WEEK 4", 28, "TREATMENT", "2014-01-29", "2014-01-29", 29, 29, ""], ["CDISCPILOT01", "SV", "01-701-1097", 6.0, "AMBUL ECG REMOVAL", 30, "TREATMENT", "2014-02-04", "2014-02-04", 35, 35, ""], ["CDISCPILOT01", "SV", "01-701-1097", 7.0, "WEEK 6", 42, "TREATMENT", "2014-02-11", "2014-02-11", 42, 42, ""], ["CDISCPILOT01", "SV", "01-701-1097", 8.0, "WEEK 8", 56, "TREATMENT", "2014-02-26", "2014-02-26", 57, 57, ""], ["CDISCPILOT01", "SV", "01-701-1097", 9.0, "WEEK 12", 84, "TREATMENT", "2014-03-26", "2014-03-26", 85, 85, ""], ["CDISCPILOT01", "SV", "01-701-1097", 9.1, "WEEK 14 (T)", 98, "TREATMENT", "2014-04-09", "2014-04-09", 99, 99, ""], ["CDISCPILOT01", "SV", "01-701-1097", 10.0, "WEEK 16", 112, "TREATMENT", "2014-04-23", "2014-04-23", 113, 113, ""], ["CDISCPILOT01", "SV", "01-701-1097", 10.1, "WEEK 18 (T)", 126, "TREATMENT", "2014-05-07", "2014-05-07", 127, 127, ""], ["CDISCPILOT01", "SV", "01-701-1097", 11.0, "WEEK 20", 140, "TREATMENT", "2014-05-21", "2014-05-21", 141, 141, ""], ["CDISCPILOT01", "SV", "01-701-1097", 11.1, "WEEK 22 (T)", 154, "TREATMENT", "2014-06-04", "2014-06-04", 155, 155, ""], ["CDISCPILOT01", "SV", "01-701-1097", 12.0, "WEEK 24", 168, "TREATMENT", "2014-06-18", "2014-06-18", 169, 169, ""], ["CDISCPILOT01", "SV", "01-701-1097", 13.0, "WEEK 26", 182, "TREATMENT", "2014-07-09", "2014-07-09", 190, 190, ""], ["CDISCPILOT01", "SV", "01-701-1111", 1.0, "SCREENING 1", -7, "SCREENING", "2012-08-25", "2012-08-25", -13, -13, ""], ["CDISCPILOT01", "SV", "01-701-1111", 2.0, "SCREENING 2", -1, "SCREENING", "2012-09-05", "2012-09-05", -2, -2, ""], ["CDISCPILOT01", "SV", "01-701-1111", 3.0, "BASELINE", 1, "TREATMENT", "2012-09-07", "2012-09-07", 1, 1, ""], ["CDISCPILOT01", "SV", "01-701-1111", 4.0, "WEEK 2", 14, "TREATMENT", "2012-09-17", "2012-09-17", 11, 11, ""], ["CDISCPILOT01", "SV", "01-701-1111", 101.0, "AE FOLLOW-UP", null, "FOLLOW-UP", "2012-09-29", "2012-09-29", 23, 23, ""], ["CDISCPILOT01", "SV", "01-701-1111", 201.0, "RETRIEVAL", 168, "FOLLOW-UP", "2013-02-22", "2013-02-22", 169, 169, ""], ["CDISCPILOT01", "SV", "01-701-1115", 1.0, "SCREENING 1", -7, "SCREENING", "2012-11-23", "2012-11-23", -7, -7, ""], ["CDISCPILOT01", "SV", "01-701-1115", 2.0, "SCREENING 2", -1, "SCREENING", "2012-11-28", "2012-11-28", -2, -2, ""], ["CDISCPILOT01", "SV", "01-701-1115", 3.0, "BASELINE", 1, "TREATMENT", "2012-11-30", "2012-11-30", 1, 1, ""], ["CDISCPILOT01", "SV", "01-701-1115", 3.5, "AMBUL ECG PLACEMENT", 13, "TREATMENT", "2012-12-12", "2012-12-12", 13, 13, ""], ["CDISCPILOT01", "SV", "01-701-1115", 4.0, "WEEK 2", 14, "TREATMENT", "2012-12-13", "2012-12-13", 14, 14, ""], ["CDISCPILOT01", "SV", "01-701-1115", 5.0, "WEEK 4", 28, "TREATMENT", "2012-12-26", "2012-12-26", 27, 27, ""], ["CDISCPILOT01", "SV", "01-701-1115", 5.1, "UNSCHEDULED 5.1", null, "TREATMENT", "2012-12-28", "2012-12-28", 29, 29, "Unplanned visit to complete unscheduled assessments"], ["CDISCPILOT01", "SV", "01-701-1115", 6.0, "AMBUL ECG REMOVAL", 30, "TREATMENT", "2012-12-28", "2012-12-28", 29, 29, ""], ["CDISCPILOT01", "SV", "01-701-1115", 7.0, "WEEK 6", 42, "TREATMENT", "2013-01-10", "2013-01-10", 42, 42, ""], ["CDISCPILOT01", "SV", "01-701-1115", 8.0, "WEEK 8", 56, "TREATMENT", "2013-01-23", "2013-01-23", 55, 55, ""], ["CDISCPILOT01", "SV", "01-701-1115", 101.0, "AE FOLLOW-UP", null, "FOLLOW-UP", "2013-02-14", "2013-02-14", 77, 77, ""], ["CDISCPILOT01", "SV", "01-701-1115", 201.0, "RETRIEVAL", 168, "FOLLOW-UP", "2013-05-20", "2013-05-20", 172, 172, ""], ["CDISCPILOT01", "SV", "01-701-1118", 1.0, "SCREENING 1", -7, "SCREENING", "2014-02-27", "2014-02-27", -13, -13, ""], ["CDISCPILOT01", "SV", "01-701-1118", 2.0, "SCREENING 2", -1, "SCREENING", "2014-03-10", "2014-03-10", -2, -2, ""], ["CDISCPILOT01", "SV", "01-701-1118", 3.0, "BASELINE", 1, "TREATMENT", "2014-03-12", "2014-03-12", 1, 1, ""], ["CDISCPILOT01", "SV", "01-701-1118", 3.5, "AMBUL ECG PLACEMENT", 13, "TREATMENT", "2014-03-25", "2014-03-25", 14, 14, ""], ["CDISCPILOT01", "SV", "01-701-1118", 4.0, "WEEK 2", 14, "TREATMENT", "2014-03-26", "2014-03-26", 15, 15, ""], ["CDISCPILOT01", "SV", "01-701-1118", 5.0, "WEEK 4", 28, "TREATMENT", "2014-04-09", "2014-04-09", 29, 29, ""], ["CDISCPILOT01", "SV", "01-701-1118", 6.0, "AMBUL ECG REMOVAL", 30, "TREATMENT", "2014-04-11", "2014-04-11", 31, 31, ""], ["CDISCPILOT01", "SV", "01-701-1118", 7.0, "WEEK 6", 42, "TREATMENT", "2014-04-23", "2014-04-23", 43, 43, ""], ["CDISCPILOT01", "SV", "01-701-1118", 8.0, "WEEK 8", 56, "TREATMENT", "2014-05-08", "2014-05-08", 58, 58, ""], ["CDISCPILOT01", "SV", "01-701-1118", 8.1, "WEEK 10 (T)", 70, "TREATMENT", "2014-05-21", "2014-05-21", 71, 71, ""], ["CDISCPILOT01", "SV", "01-701-1118", 9.0, "WEEK 12", 84, "TREATMENT", "2014-06-05", "2014-06-05", 86, 86, ""], ["CDISCPILOT01", "SV", "01-701-1118", 9.1, "WEEK 14 (T)", 98, "TREATMENT", "2014-06-18", "2014-06-18", 99, 99, ""], ["CDISCPILOT01", "SV", "01-701-1118", 10.0, "WEEK 16", 112, "TREATMENT", "2014-07-02", "2014-07-02", 113, 113, ""], ["CDISCPILOT01", "SV", "01-701-1118", 10.1, "WEEK 18 (T)", 126, "TREATMENT", "2014-07-16", "2014-07-16", 127, 127, ""], ["CDISCPILOT01", "SV", "01-701-1118", 11.0, "WEEK 20", 140, "TREATMENT", "2014-07-30", "2014-07-30", 141, 141, ""], ["CDISCPILOT01", "SV", "01-701-1118", 11.1, "WEEK 22 (T)", 154, "TREATMENT", "2014-07-13", "2014-07-13", 124, 124, ""], ["CDISCPILOT01", "SV", "01-701-1118", 12.0, "WEEK 24", 168, "TREATMENT", "2014-08-27", "2014-08-27", 169, 169, ""], ["CDISCPILOT01", "SV", "01-701-1118", 13.0, "WEEK 26", 182, "TREATMENT", "2014-09-09", "2014-09-09", 182, 182, ""], ["CDISCPILOT01", "SV", "01-701-1130", 1.0, "SCREENING 1", -7, "SCREENING", "2014-02-09", "2014-02-09", -6, -6, ""], ["CDISCPILOT01", "SV", "01-701-1130", 2.0, "SCREENING 2", -1, "SCREENING", "2014-02-13", "2014-02-13", -2, -2, ""], ["CDISCPILOT01", "SV", "01-701-1130", 3.0, "BASELINE", 1, "TREATMENT", "2014-02-15", "2014-02-15", 1, 1, ""], ["CDISCPILOT01", "SV", "01-701-1130", 3.5, "AMBUL ECG PLACEMENT", 13, "TREATMENT", "2014-02-28", "2014-02-28", 14, 14, ""], ["CDISCPILOT01", "SV", "01-701-1130", 4.0, "WEEK 2", 14, "TREATMENT", "2014-03-01", "2014-03-01", 15, 15, ""], ["CDISCPILOT01", "SV", "01-701-1130", 5.0, "WEEK 4", 28, "TREATMENT", "2014-03-15", "2014-03-15", 29, 29, ""], ["CDISCPILOT01", "SV", "01-701-1130", 6.0, "AMBUL ECG REMOVAL", 30, "TREATMENT", "2014-03-17", "2014-03-17", 31, 31, ""], ["CDISCPILOT01", "SV", "01-701-1130", 7.0, "WEEK 6", 42, "TREATMENT", "2014-03-29", "2014-03-29", 43, 43, ""], ["CDISCPILOT01", "SV", "01-701-1130", 8.0, "WEEK 8", 56, "TREATMENT", "2014-04-12", "2014-04-12", 57, 57, ""], ["CDISCPILOT01", "SV", "01-701-1130", 8.1, "WEEK 10 (T)", 70, "TREATMENT", "2014-04-26", "2014-04-26", 71, 71, ""], ["CDISCPILOT01", "SV", "01-701-1130", 9.0, "WEEK 12", 84, "TREATMENT", "2014-05-16", "2014-05-16", 91, 91, ""], ["CDISCPILOT01", "SV", "01-701-1130", 9.1, "WEEK 14 (T)", 98, "TREATMENT", "2014-05-24", "2014-05-24", 99, 99, ""], ["CDISCPILOT01", "SV", "01-701-1130", 10.0, "WEEK 16", 112, "TREATMENT", "2014-06-07", "2014-06-07", 113, 113, ""], ["CDISCPILOT01", "SV", "01-701-1130", 10.1, "WEEK 18 (T)", 126, "TREATMENT", "2014-06-21", "2014-06-21", 127, 127, ""], ["CDISCPILOT01", "SV", "01-701-1130", 11.0, "WEEK 20", 140, "TREATMENT", "2014-07-02", "2014-07-02", 138, 138, ""], ["CDISCPILOT01", "SV", "01-701-1130", 11.1, "WEEK 22 (T)", 154, "TREATMENT", "2014-07-19", "2014-07-19", 155, 155, ""], ["CDISCPILOT01", "SV", "01-701-1130", 12.0, "WEEK 24", 168, "TREATMENT", "2014-08-02", "2014-08-02", 169, 169, ""], ["CDISCPILOT01", "SV", "01-701-1130", 13.0, "WEEK 26", 182, "TREATMENT", "2014-08-16", "2014-08-16", 183, 183, ""], ["CDISCPILOT01", "SV", "01-701-1133", 1.0, "SCREENING 1", -7, "SCREENING", "2012-10-23", "2012-10-23", -5, -5, ""], ["CDISCPILOT01", "SV", "01-701-1133", 2.0, "SCREENING 2", -1, "SCREENING", "2012-10-26", "2012-10-26", -2, -2, ""], ["CDISCPILOT01", "SV", "01-701-1133", 3.0, "BASELINE", 1, "TREATMENT", "2012-10-28", "2012-10-28", 1, 1, ""], ["CDISCPILOT01", "SV", "01-701-1133", 3.5, "AMBUL ECG PLACEMENT", 13, "TREATMENT", "2012-11-11", "2012-11-11", 15, 15, ""], ["CDISCPILOT01", "SV", "01-701-1133", 4.0, "WEEK 2", 14, "TREATMENT", "2012-11-12", "2012-11-12", 16, 16, ""], ["CDISCPILOT01", "SV", "01-701-1133", 5.0, "WEEK 4", 28, "TREATMENT", "2012-11-26", "2012-11-26", 30, 30, ""], ["CDISCPILOT01", "SV", "01-701-1133", 6.0, "AMBUL ECG REMOVAL", 30, "TREATMENT", "2012-11-28", "2012-11-28", 32, 32, ""], ["CDISCPILOT01", "SV", "01-701-1133", 7.0, "WEEK 6", 42, "TREATMENT", "2012-12-11", "2012-12-11", 45, 45, ""], ["CDISCPILOT01", "SV", "01-701-1133", 8.0, "WEEK 8", 56, "TREATMENT", "2012-12-24", "2012-12-24", 58, 58, ""], ["CDISCPILOT01", "SV", "01-701-1133", 8.1, "WEEK 10 (T)", 70, "TREATMENT", "2013-01-07", "2013-01-07", 72, 72, ""], ["CDISCPILOT01", "SV", "01-701-1133", 9.0, "WEEK 12", 84, "TREATMENT", "2013-01-22", "2013-01-22", 87, 87, ""], ["CDISCPILOT01", "SV", "01-701-1133", 9.1, "WEEK 14 (T)", 98, "TREATMENT", "2013-02-04", "2013-02-04", 100, 100, ""], ["CDISCPILOT01", "SV", "01-701-1133", 10.0, "WEEK 16", 112, "TREATMENT", "2013-02-18", "2013-02-18", 114, 114, ""], ["CDISCPILOT01", "SV", "01-701-1133", 10.1, "WEEK 18 (T)", 126, "TREATMENT", "2013-03-04", "2013-03-04", 128, 128, ""], ["CDISCPILOT01", "SV", "01-701-1133", 11.0, "WEEK 20", 140, "TREATMENT", "2013-03-18", "2013-03-18", 142, 142, ""], ["CDISCPILOT01", "SV", "01-701-1133", 11.1, "WEEK 22 (T)", 154, "TREATMENT", "2013-04-01", "2013-04-01", 156, 156, ""], ["CDISCPILOT01", "SV", "01-701-1133", 12.0, "WEEK 24", 168, "TREATMENT", "2013-04-18", "2013-04-18", 173, 173, ""], ["CDISCPILOT01", "SV", "01-701-1133", 13.0, "WEEK 26", 182, "TREATMENT", "2013-04-29", "2013-04-29", 184, 184, ""], ["CDISCPILOT01", "SV", "01-701-1145", 1.0, "SCREENING 1", -7, "SCREENING", "2013-09-05", "2013-09-05", null, null, ""], ["CDISCPILOT01", "SV", "01-701-1146", 1.0, "SCREENING 1", -7, "SCREENING", "2013-05-07", "2013-05-07", -13, -13, ""], ["CDISCPILOT01", "SV", "01-701-1146", 2.0, "SCREENING 2", -1, "SCREENING", "2013-05-18", "2013-05-18", -2, -2, ""], ["CDISCPILOT01", "SV", "01-701-1146", 3.0, "BASELINE", 1, "TREATMENT", "2013-05-20", "2013-05-20", 1, 1, ""], ["CDISCPILOT01", "SV", "01-701-1146", 3.5, "AMBUL ECG PLACEMENT", 13, "TREATMENT", "2013-06-02", "2013-06-02", 14, 14, ""], ["CDISCPILOT01", "SV", "01-701-1146", 4.0, "WEEK 2", 14, "TREATMENT", "2013-06-03", "2013-06-03", 15, 15, ""], ["CDISCPILOT01", "SV", "01-701-1146", 5.0, "WEEK 4", 28, "TREATMENT", "2013-06-16", "2013-06-16", 28, 28, ""], ["CDISCPILOT01", "SV", "01-701-1146", 6.0, "AMBUL ECG REMOVAL", 30, "TREATMENT", "2013-06-18", "2013-06-18", 30, 30, ""], ["CDISCPILOT01", "SV", "01-701-1146", 7.0, "WEEK 6", 42, "TREATMENT", "2013-06-30", "2013-06-30", 42, 42, ""], ["CDISCPILOT01", "SV", "01-701-1146", 101.0, "AE FOLLOW-UP", null, "FOLLOW-UP", "2013-07-15", "2013-07-15", 57, 57, ""], ["CDISCPILOT01", "SV", "01-701-1148", 1.0, "SCREENING 1", -7, "SCREENING", "2013-08-14", "2013-08-14", -9, -9, ""], ["CDISCPILOT01", "SV", "01-701-1148", 2.0, "SCREENING 2", -1, "SCREENING", "2013-08-21", "2013-08-21", -2, -2, ""], ["CDISCPILOT01", "SV", "01-701-1148", 3.0, "BASELINE", 1, "TREATMENT", "2013-08-23", "2013-08-23", 1, 1, ""], ["CDISCPILOT01", "SV", "01-701-1148", 3.5, "AMBUL ECG PLACEMENT", 13, "TREATMENT", "2013-09-04", "2013-09-04", 13, 13, ""], ["CDISCPILOT01", "SV", "01-701-1148", 4.0, "WEEK 2", 14, "TREATMENT", "2013-09-05", "2013-09-05", 14, 14, ""], ["CDISCPILOT01", "SV", "01-701-1148", 5.0, "WEEK 4", 28, "TREATMENT", "2013-09-19", "2013-09-19", 28, 28, ""], ["CDISCPILOT01", "SV", "01-701-1148", 6.0, "AMBUL ECG REMOVAL", 30, "TREATMENT", "2013-09-21", "2013-09-21", 30, 30, ""], ["CDISCPILOT01", "SV", "01-701-1148", 7.0, "WEEK 6", 42, "TREATMENT", "2013-10-03", "2013-10-03", 42, 42, ""], ["CDISCPILOT01", "SV", "01-701-1148", 8.0, "WEEK 8", 56, "TREATMENT", "2013-10-18", "2013-10-18", 57, 57, ""], ["CDISCPILOT01", "SV", "01-701-1148", 8.1, "WEEK 10 (T)", 70, "TREATMENT", "2013-11-01", "2013-11-01", 71, 71, ""], ["CDISCPILOT01", "SV", "01-701-1148", 9.0, "WEEK 12", 84, "TREATMENT", "2013-11-17", "2013-11-17", 87, 87, ""], ["CDISCPILOT01", "SV", "01-701-1148", 9.1, "WEEK 14 (T)", 98, "TREATMENT", "2013-11-30", "2013-11-30", 100, 100, ""], ["CDISCPILOT01", "SV", "01-701-1148", 10.0, "WEEK 16", 112, "TREATMENT", "2013-12-13", "2013-12-13", 113, 113, ""], ["CDISCPILOT01", "SV", "01-701-1148", 10.1, "WEEK 18 (T)", 126, "TREATMENT", "2013-12-27", "2013-12-27", 127, 127, ""], ["CDISCPILOT01", "SV", "01-701-1148", 11.0, "WEEK 20", 140, "TREATMENT", "2014-01-10", "2014-01-10", 141, 141, ""], ["CDISCPILOT01", "SV", "01-701-1148", 11.1, "WEEK 22 (T)", 154, "TREATMENT", "2014-01-24", "2014-01-24", 155, 155, ""], ["CDISCPILOT01", "SV", "01-701-1148", 12.0, "WEEK 24", 168, "TREATMENT", "2014-02-08", "2014-02-08", 170, 170, ""], ["CDISCPILOT01", "SV", "01-701-1148", 13.0, "WEEK 26", 182, "TREATMENT", "2014-02-20", "2014-02-20", 182, 182, ""], ["CDISCPILOT01", "SV", "01-701-1153", 1.0, "SCREENING 1", -7, "SCREENING", "2013-09-06", "2013-09-06", -17, -17, ""], ["CDISCPILOT01", "SV", "01-701-1153", 2.0, "SCREENING 2", -1, "SCREENING", "2013-09-18", "2013-09-18", -5, -5, ""], ["CDISCPILOT01", "SV", "01-701-1153", 3.0, "BASELINE", 1, "TREATMENT", "2013-09-23", "2013-09-23", 1, 1, ""], ["CDISCPILOT01", "SV", "01-701-1153", 3.5, "AMBUL ECG PLACEMENT", 13, "TREATMENT", "2013-10-07", "2013-10-07", 15, 15, ""], ["CDISCPILOT01", "SV", "01-701-1153", 4.0, "WEEK 2", 14, "TREATMENT", "2013-10-08", "2013-10-08", 16, 16, ""], ["CDISCPILOT01", "SV", "01-701-1153", 5.0, "WEEK 4", 28, "TREATMENT", "2013-10-19", "2013-10-19", 27, 27, ""], ["CDISCPILOT01", "SV", "01-701-1153", 5.1, "UNSCHEDULED 5.1", null, "TREATMENT", "2013-10-19", "2013-10-19", 27, 27, "Unplanned visit to complete unscheduled assessments"], ["CDISCPILOT01", "SV", "01-701-1153", 6.0, "AMBUL ECG REMOVAL", 30, "TREATMENT", "2013-10-28", "2013-10-28", 36, 36, ""], ["CDISCPILOT01", "SV", "01-701-1153", 7.0, "WEEK 6", 42, "TREATMENT", "2013-11-04", "2013-11-04", 43, 43, ""], ["CDISCPILOT01", "SV", "01-701-1153", 8.0, "WEEK 8", 56, "TREATMENT", "2013-11-18", "2013-11-18", 57, 57, ""], ["CDISCPILOT01", "SV", "01-701-1153", 8.1, "WEEK 10 (T)", 70, "TREATMENT", "2013-12-02", "2013-12-02", 71, 71, ""], ["CDISCPILOT01", "SV", "01-701-1153", 9.0, "WEEK 12", 84, "TREATMENT", "2013-12-16", "2013-12-16", 85, 85, ""], ["CDISCPILOT01", "SV", "01-701-1153", 9.1, "WEEK 14 (T)", 98, "TREATMENT", "2013-12-30", "2013-12-30", 99, 99, ""], ["CDISCPILOT01", "SV", "01-701-1153", 9.2, "UNSCHEDULED 9.2", null, "TREATMENT", "2014-01-08", "2014-01-08", 108, 108, "Unplanned visit to complete unscheduled assessments"], ["CDISCPILOT01", "SV", "01-701-1153", 9.3, "UNSCHEDULED 9.3", null, "TREATMENT", "2013-12-30", "2013-12-30", 99, 99, "Unplanned visit to complete unscheduled assessments"], ["CDISCPILOT01", "SV", "01-701-1153", 10.0, "WEEK 16", 112, "TREATMENT", "2014-01-08", "2014-01-08", 108, 108, ""], ["CDISCPILOT01", "SV", "01-701-1153", 11.0, "WEEK 20", 140, "TREATMENT", "2014-02-11", "2014-02-11", 142, 142, ""], ["CDISCPILOT01", "SV", "01-701-1153", 11.1, "WEEK 22 (T)", 154, "TREATMENT", "2014-02-25", "2014-02-25", 156, 156, ""], ["CDISCPILOT01", "SV", "01-701-1153", 12.0, "WEEK 24", 168, "TREATMENT", "2014-03-11", "2014-03-11", 170, 170, ""], ["CDISCPILOT01", "SV", "01-701-1153", 13.0, "WEEK 26", 182, "TREATMENT", "2014-04-01", "2014-04-01", 191, 191, ""], ["CDISCPILOT01", "SV", "01-701-1162", 1.0, "SCREENING 1", -7, "SCREENING", "2013-04-18", "2013-04-18", null, null, ""], ["CDISCPILOT01", "SV", "01-701-1176", 1.0, "SCREENING 1", -7, "SCREENING", "2012-09-30", "2012-09-30", null, null, ""], ["CDISCPILOT01", "SV", "01-701-1180", 1.0, "SCREENING 1", -7, "SCREENING", "2013-01-28", "2013-01-28", -15, -15, ""], ["CDISCPILOT01", "SV", "01-701-1180", 2.0, "SCREENING 2", -1, "SCREENING", "2013-02-10", "2013-02-10", -2, -2, ""], ["CDISCPILOT01", "SV", "01-701-1180", 3.0, "BASELINE", 1, "TREATMENT", "2013-02-12", "2013-02-12", 1, 1, ""], ["CDISCPILOT01", "SV", "01-701-1180", 3.5, "AMBUL ECG PLACEMENT", 13, "TREATMENT", "2013-02-24", "2013-02-24", 13, 13, ""], ["CDISCPILOT01", "SV", "01-701-1180", 4.0, "WEEK 2", 14, "TREATMENT", "2013-02-25", "2013-02-25", 14, 14, ""], ["CDISCPILOT01", "SV", "01-701-1180", 5.0, "WEEK 4", 28, "TREATMENT", "2013-03-11", "2013-03-11", 28, 28, ""], ["CDISCPILOT01", "SV", "01-701-1180", 6.0, "AMBUL ECG REMOVAL", 30, "TREATMENT", "2013-03-13", "2013-03-13", 30, 30, ""], ["CDISCPILOT01", "SV", "01-701-1180", 7.0, "WEEK 6", 42, "TREATMENT", "2013-03-23", "2013-03-23", 40, 40, ""], ["CDISCPILOT01", "SV", "01-701-1180", 101.0, "AE FOLLOW-UP", null, "FOLLOW-UP", "2013-04-07", "2013-04-07", 55, 55, ""], ["CDISCPILOT01", "SV", "01-701-1181", 1.0, "SCREENING 1", -7, "SCREENING", "2013-11-26", "2013-11-26", -9, -9, ""], ["CDISCPILOT01", "SV", "01-701-1181", 2.0, "SCREENING 2", -1, "SCREENING", "2013-12-03", "2013-12-03", -2, -2, ""], ["CDISCPILOT01", "SV", "01-701-1181", 3.0, "BASELINE", 1, "TREATMENT", "2013-12-05", "2013-12-05", 1, 1, ""], ["CDISCPILOT01", "SV", "01-701-1181", 4.0, "WEEK 2", 14, "TREATMENT", "2013-12-12", "2013-12-12", 8, 8, ""], ["CDISCPILOT01", "SV", "01-701-1181", 101.0, "AE FOLLOW-UP", null, "FOLLOW-UP", "2013-12-20", "2013-12-20", 16, 16, ""], ["CDISCPILOT01", "SV", "01-701-1181", 201.0, "RETRIEVAL", 168, "FOLLOW-UP", "2014-05-23", "2014-05-23", 170, 170, ""], ["CDISCPILOT01", "SV", "01-701-1188", 1.0, "SCREENING 1", -7, "SCREENING", "2013-02-03", "2013-02-03", -12, -12, ""], ["CDISCPILOT01", "SV", "01-701-1188", 2.0, "SCREENING 2", -1, "SCREENING", "2013-02-10", "2013-02-10", -5, -5, ""], ["CDISCPILOT01", "SV", "01-701-1188", 3.0, "BASELINE", 1, "TREATMENT", "2013-02-15", "2013-02-15", 1, 1, ""], ["CDISCPILOT01", "SV", "01-701-1188", 3.5, "AMBUL ECG PLACEMENT", 13, "TREATMENT", "2013-03-01", "2013-03-01", 15, 15, ""], ["CDISCPILOT01", "SV", "01-701-1188", 4.0, "WEEK 2", 14, "TREATMENT", "2013-03-02", "2013-03-02", 16, 16, ""], ["CDISCPILOT01", "SV", "01-701-1188", 5.0, "WEEK 4", 28, "TREATMENT", "2013-03-16", "2013-03-16", 30, 30, ""], ["CDISCPILOT01", "SV", "01-701-1188", 6.0, "AMBUL ECG REMOVAL", 30, "TREATMENT", "2013-03-18", "2013-03-18", 32, 32, ""], ["CDISCPILOT01", "SV", "01-701-1188", 7.0, "WEEK 6", 42, "TREATMENT", "2013-03-25", "2013-03-25", 39, 39, ""], ["CDISCPILOT01", "SV", "01-701-1188", 101.0, "AE FOLLOW-UP", null, "FOLLOW-UP", "2013-06-01", "2013-06-01", 107, 107, ""], ["CDISCPILOT01", "SV", "01-701-1188", 201.0, "RETRIEVAL", 168, "FOLLOW-UP", "2013-08-04", "2013-08-04", 171, 171, ""], ["CDISCPILOT01", "SV", "01-701-1192", 1.0, "SCREENING 1", -7, "SCREENING", "2012-07-08", "2012-07-08", -14, -14, ""], ["CDISCPILOT01", "SV", "01-701-1192", 2.0, "SCREENING 2", -1, "SCREENING", "2012-07-20", "2012-07-20", -2, -2, ""], ["CDISCPILOT01", "SV", "01-701-1192", 3.0, "BASELINE", 1, "TREATMENT", "2012-07-22", "2012-07-22", 1, 1, ""], ["CDISCPILOT01", "SV", "01-701-1192", 3.5, "AMBUL ECG PLACEMENT", 13, "TREATMENT", "2012-08-04", "2012-08-04", 14, 14, ""], ["CDISCPILOT01", "SV", "01-701-1192", 4.0, "WEEK 2", 14, "TREATMENT", "2012-08-07", "2012-08-07", 17, 17, ""], ["CDISCPILOT01", "SV", "01-701-1192", 5.0, "WEEK 4", 28, "TREATMENT", "2012-08-21", "2012-08-21", 31, 31, ""], ["CDISCPILOT01", "SV", "01-701-1192", 5.1, "UNSCHEDULED 5.1", null, "TREATMENT", "2012-08-21", "2012-08-21", 31, 31, "Unplanned visit to complete unscheduled assessments"], ["CDISCPILOT01", "SV", "01-701-1192", 6.0, "AMBUL ECG REMOVAL", 30, "TREATMENT", "2012-08-23", "2012-08-23", 33, 33, ""], ["CDISCPILOT01", "SV", "01-701-1192", 7.0, "WEEK 6", 42, "TREATMENT", "2012-09-04", "2012-09-04", 45, 45, ""], ["CDISCPILOT01", "SV", "01-701-1192", 8.0, "WEEK 8", 56, "TREATMENT", "2012-09-23", "2012-09-23", 64, 64, ""], ["CDISCPILOT01", "SV", "01-701-1192", 8.1, "WEEK 10 (T)", 70, "TREATMENT", "2012-09-30", "2012-09-30", 71, 71, ""], ["CDISCPILOT01", "SV", "01-701-1192", 9.0, "WEEK 12", 84, "TREATMENT", "2012-10-14", "2012-10-14", 85, 85, ""], ["CDISCPILOT01", "SV", "01-701-1192", 9.1, "WEEK 14 (T)", 98, "TREATMENT", "2012-10-29", "2012-10-29", 100, 100, ""], ["CDISCPILOT01", "SV", "01-701-1192", 10.0, "WEEK 16", 112, "TREATMENT", "2012-11-15", "2012-11-15", 117, 117, ""], ["CDISCPILOT01", "SV", "01-701-1192", 10.1, "WEEK 18 (T)", 126, "TREATMENT", "2012-11-26", "2012-11-26", 128, 128, ""], ["CDISCPILOT01", "SV", "01-701-1192", 11.0, "WEEK 20", 140, "TREATMENT", "2012-12-13", "2012-12-13", 145, 145, ""], ["CDISCPILOT01", "SV", "01-701-1192", 11.1, "WEEK 22 (T)", 154, "TREATMENT", "2012-12-27", "2012-12-27", 159, 159, ""], ["CDISCPILOT01", "SV", "01-701-1192", 12.0, "WEEK 24", 168, "TREATMENT", "2013-01-11", "2013-01-11", 174, 174, ""], ["CDISCPILOT01", "SV", "01-701-1192", 13.0, "WEEK 26", 182, "TREATMENT", "2013-01-20", "2013-01-20", 183, 183, ""], ["CDISCPILOT01", "SV", "01-701-1203", 1.0, "SCREENING 1", -7, "SCREENING", "2013-01-25", "2013-01-25", -8, -8, ""], ["CDISCPILOT01", "SV", "01-701-1203", 2.0, "SCREENING 2", -1, "SCREENING", "2013-02-01", "2013-02-01", -1, -1, ""], ["CDISCPILOT01", "SV", "01-701-1203", 3.0, "BASELINE", 1, "TREATMENT", "2013-02-02", "2013-02-02", 1, 1, ""], ["CDISCPILOT01", "SV", "01-701-1203", 4.0, "WEEK 2", 14, "TREATMENT", "2013-02-23", "2013-02-23", 22, 22, ""], ["CDISCPILOT01", "SV", "01-701-1203", 5.0, "WEEK 4", 28, "TREATMENT", "2013-03-02", "2013-03-02", 29, 29, ""], ["CDISCPILOT01", "SV", "01-701-1203", 6.0, "AMBUL ECG REMOVAL", 30, "TREATMENT", "2013-03-04", "2013-03-04", 31, 31, ""], ["CDISCPILOT01", "SV", "01-701-1203", 7.0, "WEEK 6", 42, "TREATMENT", "2013-03-16", "2013-03-16", 43, 43, ""], ["CDISCPILOT01", "SV", "01-701-1203", 8.0, "WEEK 8", 56, "TREATMENT", "2013-03-30", "2013-03-30", 57, 57, ""], ["CDISCPILOT01", "SV", "01-701-1203", 8.1, "WEEK 10 (T)", 70, "TREATMENT", "2013-04-13", "2013-04-13", 71, 71, ""], ["CDISCPILOT01", "SV", "01-701-1203", 9.0, "WEEK 12", 84, "TREATMENT", "2013-05-09", "2013-05-09", 97, 97, ""], ["CDISCPILOT01", "SV", "01-701-1203", 9.1, "WEEK 14 (T)", 98, "TREATMENT", "2013-05-11", "2013-05-11", 99, 99, ""], ["CDISCPILOT01", "SV", "01-701-1203", 10.0, "WEEK 16", 112, "TREATMENT", "2013-05-25", "2013-05-25", 113, 113, ""], ["CDISCPILOT01", "SV", "01-701-1203", 10.1, "WEEK 18 (T)", 126, "TREATMENT", "2013-06-08", "2013-06-08", 127, 127, ""], ["CDISCPILOT01", "SV", "01-701-1203", 11.0, "WEEK 20", 140, "TREATMENT", "2013-06-22", "2013-06-22", 141, 141, ""], ["CDISCPILOT01", "SV", "01-701-1203", 11.1, "WEEK 22 (T)", 154, "TREATMENT", "2013-07-07", "2013-07-07", 156, 156, ""], ["CDISCPILOT01", "SV", "01-701-1203", 12.0, "WEEK 24", 168, "TREATMENT", "2013-07-22", "2013-07-22", 171, 171, ""], ["CDISCPILOT01", "SV", "01-701-1203", 13.0, "WEEK 26", 182, "TREATMENT", "2013-08-03", "2013-08-03", 183, 183, ""], ["CDISCPILOT01", "SV", "01-701-1211", 1.0, "SCREENING 1", -7, "SCREENING", "2012-10-30", "2012-10-30", -16, -16, ""], ["CDISCPILOT01", "SV", "01-701-1211", 2.0, "SCREENING 2", -1, "SCREENING", "2012-11-14", "2012-11-14", -1, -1, ""], ["CDISCPILOT01", "SV", "01-701-1211", 3.0, "BASELINE", 1, "TREATMENT", "2012-11-15", "2012-11-15", 1, 1, ""], ["CDISCPILOT01", "SV", "01-701-1211", 3.5, "AMBUL ECG PLACEMENT", 13, "TREATMENT", "2012-11-27", "2012-11-27", 13, 13, ""], ["CDISCPILOT01", "SV", "01-701-1211", 4.0, "WEEK 2", 14, "TREATMENT", "2012-11-28", "2012-11-28", 14, 14, ""], ["CDISCPILOT01", "SV", "01-701-1211", 5.0, "WEEK 4", 28, "TREATMENT", "2012-12-11", "2012-12-11", 27, 27, ""], ["CDISCPILOT01", "SV", "01-701-1211", 6.0, "AMBUL ECG REMOVAL", 30, "TREATMENT", "2012-12-13", "2012-12-13", 29, 29, ""], ["CDISCPILOT01", "SV", "01-701-1211", 7.0, "WEEK 6", 42, "TREATMENT", "2012-12-25", "2012-12-25", 41, 41, ""], ["CDISCPILOT01", "SV", "01-701-1211", 8.0, "WEEK 8", 56, "TREATMENT", "2013-01-08", "2013-01-08", 55, 55, ""], ["CDISCPILOT01", "SV", "01-701-1211", 9.0, "WEEK 12", 84, "TREATMENT", "2013-01-14", "2013-01-14", 61, 61, ""], ["CDISCPILOT01", "SV", "01-701-1234", 1.0, "SCREENING 1", -7, "SCREENING", "2013-03-20", "2013-03-20", -10, -10, ""], ["CDISCPILOT01", "SV", "01-701-1234", 2.0, "SCREENING 2", -1, "SCREENING", "2013-03-28", "2013-03-28", -2, -2, ""], ["CDISCPILOT01", "SV", "01-701-1234", 3.0, "BASELINE", 1, "TREATMENT", "2013-03-30", "2013-03-30", 1, 1, ""], ["CDISCPILOT01", "SV", "01-701-1234", 3.5, "AMBUL ECG PLACEMENT", 13, "TREATMENT", "2013-04-20", "2013-04-20", 22, 22, ""], ["CDISCPILOT01", "SV", "01-701-1234", 4.0, "WEEK 2", 14, "TREATMENT", "2013-04-21", "2013-04-21", 23, 23, ""], ["CDISCPILOT01", "SV", "01-701-1234", 5.0, "WEEK 4", 28, "TREATMENT", "2013-04-28", "2013-04-28", 30, 30, ""], ["CDISCPILOT01", "SV", "01-701-1234", 6.0, "AMBUL ECG REMOVAL", 30, "TREATMENT", "2013-04-30", "2013-04-30", 32, 32, ""], ["CDISCPILOT01", "SV", "01-701-1234", 7.0, "WEEK 6", 42, "TREATMENT", "2013-05-08", "2013-05-08", 40, 40, ""], ["CDISCPILOT01", "SV", "01-701-1234", 8.0, "WEEK 8", 56, "TREATMENT", "2013-05-26", "2013-05-26", 58, 58, ""], ["CDISCPILOT01", "SV", "01-701-1234", 8.1, "WEEK 10 (T)", 70, "TREATMENT", "2013-06-09", "2013-06-09", 72, 72, ""], ["CDISCPILOT01", "SV", "01-701-1234", 9.0, "WEEK 12", 84, "TREATMENT", "2013-07-07", "2013-07-07", 100, 100, ""], ["CDISCPILOT01", "SV", "01-701-1234", 10.0, "WEEK 16", 112, "TREATMENT", "2013-07-27", "2013-07-27", 120, 120, ""], ["CDISCPILOT01", "SV", "01-701-1234", 10.1, "WEEK 18 (T)", 126, "TREATMENT", "2013-08-10", "2013-08-10", 134, 134, ""], ["CDISCPILOT01", "SV", "01-701-1234", 11.0, "WEEK 20", 140, "TREATMENT", "2013-08-18", "2013-08-18", 142, 142, ""], ["CDISCPILOT01", "SV", "01-701-1234", 11.1, "WEEK 22 (T)", 154, "TREATMENT", "2013-09-01", "2013-09-01", 156, 156, ""], ["CDISCPILOT01", "SV", "01-701-1234", 12.0, "WEEK 24", 168, "TREATMENT", "2013-09-10", "2013-09-10", 165, 165, ""], ["CDISCPILOT01", "SV", "01-701-1234", 13.0, "WEEK 26", 182, "TREATMENT", "2013-09-22", "2013-09-22", 177, 177, ""], ["CDISCPILOT01", "SV", "01-701-1239", 1.0, "SCREENING 1", -7, "SCREENING", "2013-12-28", "2013-12-28", -14, -14, ""], ["CDISCPILOT01", "SV", "01-701-1239", 1.1, "UNSCHEDULED 1.1", null, "SCREENING", "2014-01-06", "2014-01-06", -5, -5, "Unplanned visit to complete unscheduled assessments"], ["CDISCPILOT01", "SV", "01-701-1239", 2.0, "SCREENING 2", -1, "SCREENING", "2014-01-09", "2014-01-09", -2, -2, ""], ["CDISCPILOT01", "SV", "01-701-1239", 3.0, "BASELINE", 1, "TREATMENT", "2014-01-11", "2014-01-11", 1, 1, ""], ["CDISCPILOT01", "SV", "01-701-1239", 3.5, "AMBUL ECG PLACEMENT", 13, "TREATMENT", "2014-01-24", "2014-01-24", 14, 14, ""], ["CDISCPILOT01", "SV", "01-701-1239", 4.0, "WEEK 2", 14, "TREATMENT", "2014-01-25", "2014-01-25", 15, 15, ""], ["CDISCPILOT01", "SV", "01-701-1239", 5.0, "WEEK 4", 28, "TREATMENT", "2014-02-08", "2014-02-08", 29, 29, ""], ["CDISCPILOT01", "SV", "01-701-1239", 6.0, "AMBUL ECG REMOVAL", 30, "TREATMENT", "2014-02-10", "2014-02-10", 31, 31, ""], ["CDISCPILOT01", "SV", "01-701-1239", 7.0, "WEEK 6", 42, "TREATMENT", "2014-02-19", "2014-02-19", 40, 40, ""], ["CDISCPILOT01", "SV", "01-701-1239", 8.0, "WEEK 8", 56, "TREATMENT", "2014-03-06", "2014-03-06", 55, 55, ""], ["CDISCPILOT01", "SV", "01-701-1239", 8.1, "WEEK 10 (T)", 70, "TREATMENT", "2014-03-19", "2014-03-19", 68, 68, ""], ["CDISCPILOT01", "SV", "01-701-1239", 9.0, "WEEK 12", 84, "TREATMENT", "2014-04-02", "2014-04-02", 82, 82, ""], ["CDISCPILOT01", "SV", "01-701-1239", 9.1, "WEEK 14 (T)", 98, "TREATMENT", "2014-04-16", "2014-04-16", 96, 96, ""], ["CDISCPILOT01", "SV", "01-701-1239", 10.0, "WEEK 16", 112, "TREATMENT", "2014-05-02", "2014-05-02", 112, 112, ""], ["CDISCPILOT01", "SV", "01-701-1239", 10.1, "WEEK 18 (T)", 126, "TREATMENT", "2014-05-14", "2014-05-14", 124, 124, ""], ["CDISCPILOT01", "SV", "01-701-1239", 11.0, "WEEK 20", 140, "TREATMENT", "2014-05-28", "2014-05-28", 138, 138, ""], ["CDISCPILOT01", "SV", "01-701-1239", 11.1, "WEEK 22 (T)", 154, "TREATMENT", "2014-06-11", "2014-06-11", 152, 152, ""], ["CDISCPILOT01", "SV", "01-701-1239", 12.0, "WEEK 24", 168, "TREATMENT", "2014-06-27", "2014-06-27", 168, 168, ""], ["CDISCPILOT01", "SV", "01-701-1239", 13.0, "WEEK 26", 182, "TREATMENT", "2014-07-11", "2014-07-11", 182, 182, ""], ["CDISCPILOT01", "SV", "01-701-1240", 1.0, "SCREENING 1", -7, "SCREENING", "2013-09-22", "2013-09-22", null, null, ""], ["CDISCPILOT01", "SV", "01-701-1275", 1.0, "SCREENING 1", -7, "SCREENING", "2014-01-25", "2014-01-25", -13, -13, ""], ["CDISCPILOT01", "SV", "01-701-1275", 2.0, "SCREENING 2", -1, "SCREENING", "2014-02-05", "2014-02-05", -2, -2, ""], ["CDISCPILOT01", "SV", "01-701-1275", 3.0, "BASELINE", 1, "TREATMENT", "2014-02-07", "2014-02-07", 1, 1, ""], ["CDISCPILOT01", "SV", "01-701-1275", 3.5, "AMBUL ECG PLACEMENT", 13, "TREATMENT", "2014-02-21", "2014-02-21", 15, 15, ""], ["CDISCPILOT01", "SV", "01-701-1275", 4.0, "WEEK 2", 14, "TREATMENT", "2014-02-22", "2014-02-22", 16, 16, ""], ["CDISCPILOT01", "SV", "01-701-1275", 5.0, "WEEK 4", 28, "TREATMENT", "2014-03-07", "2014-03-07", 29, 29, ""], ["CDISCPILOT01", "SV", "01-701-1275", 6.0, "AMBUL ECG REMOVAL", 30, "TREATMENT", "2014-03-08", "2014-03-08", 30, 30, ""], ["CDISCPILOT01", "SV", "01-701-1275", 7.0, "WEEK 6", 42, "TREATMENT", "2014-03-22", "2014-03-22", 44, 44, ""], ["CDISCPILOT01", "SV", "01-701-1275", 8.0, "WEEK 8", 56, "TREATMENT", "2014-04-05", "2014-04-05", 58, 58, ""], ["CDISCPILOT01", "SV", "01-701-1275", 8.1, "WEEK 10 (T)", 70, "TREATMENT", "2014-04-19", "2014-04-19", 72, 72, ""], ["CDISCPILOT01", "SV", "01-701-1275", 9.0, "WEEK 12", 84, "TREATMENT", "2014-05-03", "2014-05-03", 86, 86, ""], ["CDISCPILOT01", "SV", "01-701-1275", 9.1, "WEEK 14 (T)", 98, "TREATMENT", "2014-05-17", "2014-05-17", 100, 100, ""], ["CDISCPILOT01", "SV", "01-701-1275", 10.0, "WEEK 16", 112, "TREATMENT", "2014-06-14", "2014-06-14", 128, 128, ""], ["CDISCPILOT01", "SV", "01-701-1287", 1.0, "SCREENING 1", -7, "SCREENING", "2014-01-17", "2014-01-17", -8, -8, ""], ["CDISCPILOT01", "SV", "01-701-1287", 2.0, "SCREENING 2", -1, "SCREENING", "2014-01-23", "2014-01-23", -2, -2, ""], ["CDISCPILOT01", "SV", "01-701-1287", 3.0, "BASELINE", 1, "TREATMENT", "2014-01-25", "2014-01-25", 1, 1, ""], ["CDISCPILOT01", "SV", "01-701-1287", 4.0, "WEEK 2", 14, "TREATMENT", "2014-02-11", "2014-02-11", 18, 18, ""], ["CDISCPILOT01", "SV", "01-701-1287", 5.0, "WEEK 4", 28, "TREATMENT", "2014-02-20", "2014-02-20", 27, 27, ""], ["CDISCPILOT01", "SV", "01-701-1287", 6.0, "AMBUL ECG REMOVAL", 30, "TREATMENT", "2014-02-22", "2014-02-22", 29, 29, ""], ["CDISCPILOT01", "SV", "01-701-1287", 7.0, "WEEK 6", 42, "TREATMENT", "2014-03-06", "2014-03-06", 41, 41, ""], ["CDISCPILOT01", "SV", "01-701-1287", 8.0, "WEEK 8", 56, "TREATMENT", "2014-03-21", "2014-03-21", 56, 56, ""], ["CDISCPILOT01", "SV", "01-701-1287", 8.1, "WEEK 10 (T)", 70, "TREATMENT", "2014-04-03", "2014-04-03", 69, 69, ""], ["CDISCPILOT01", "SV", "01-701-1287", 9.0, "WEEK 12", 84, "TREATMENT", "2014-04-17", "2014-04-17", 83, 83, ""], ["CDISCPILOT01", "SV", "01-701-1287", 9.1, "WEEK 14 (T)", 98, "TREATMENT", "2014-05-01", "2014-05-01", 97, 97, ""], ["CDISCPILOT01", "SV", "01-701-1287", 10.0, "WEEK 16", 112, "TREATMENT", "2014-05-15", "2014-05-15", 111, 111, ""], ["CDISCPILOT01", "SV", "01-701-1287", 10.1, "WEEK 18 (T)", 126, "TREATMENT", "2014-05-29", "2014-05-29", 125, 125, ""], ["CDISCPILOT01", "SV", "01-701-1287", 11.0, "WEEK 20", 140, "TREATMENT", "2014-06-12", "2014-06-12", 139, 139, ""], ["CDISCPILOT01", "SV", "01-701-1287", 11.1, "WEEK 22 (T)", 154, "TREATMENT", "2014-06-26", "2014-06-26", 153, 153, ""], ["CDISCPILOT01", "SV", "01-701-1287", 12.0, "WEEK 24", 168, "TREATMENT", "2014-07-12", "2014-07-12", 169, 169, ""], ["CDISCPILOT01", "SV", "01-701-1287", 13.0, "WEEK 26", 182, "TREATMENT", "2014-07-26", "2014-07-26", 183, 183, ""], ["CDISCPILOT01", "SV", "01-701-1294", 1.0, "SCREENING 1", -7, "SCREENING", "2013-03-17", "2013-03-17", -7, -7, ""], ["CDISCPILOT01", "SV", "01-701-1294", 2.0, "SCREENING 2", -1, "SCREENING", "2013-03-22", "2013-03-22", -2, -2, ""], ["CDISCPILOT01", "SV", "01-701-1294", 3.0, "BASELINE", 1, "TREATMENT", "2013-03-24", "2013-03-24", 1, 1, ""], ["CDISCPILOT01", "SV", "01-701-1294", 3.5, "AMBUL ECG PLACEMENT", 13, "TREATMENT", "2013-04-09", "2013-04-09", 17, 17, ""], ["CDISCPILOT01", "SV", "01-701-1294", 4.0, "WEEK 2", 14, "TREATMENT", "2013-04-10", "2013-04-10", 18, 18, ""], ["CDISCPILOT01", "SV", "01-701-1294", 5.0, "WEEK 4", 28, "TREATMENT", "2013-04-24", "2013-04-24", 32, 32, ""], ["CDISCPILOT01", "SV", "01-701-1294", 6.0, "AMBUL ECG REMOVAL", 30, "TREATMENT", "2013-04-26", "2013-04-26", 34, 34, ""], ["CDISCPILOT01", "SV", "01-701-1294", 7.0, "WEEK 6", 42, "TREATMENT", "2013-05-08", "2013-05-08", 46, 46, ""], ["CDISCPILOT01", "SV", "01-701-1294", 8.0, "WEEK 8", 56, "TREATMENT", "2013-05-22", "2013-05-22", 60, 60, ""], ["CDISCPILOT01", "SV", "01-701-1294", 8.1, "WEEK 10 (T)", 70, "TREATMENT", "2013-06-05", "2013-06-05", 74, 74, ""], ["CDISCPILOT01", "SV", "01-701-1294", 9.0, "WEEK 12", 84, "TREATMENT", "2013-06-14", "2013-06-14", 83, 83, ""], ["CDISCPILOT01", "SV", "01-701-1294", 101.0, "AE FOLLOW-UP", null, "FOLLOW-UP", "2013-08-23", "2013-08-23", 153, 153, ""], ["CDISCPILOT01", "SV", "01-701-1294", 201.0, "RETRIEVAL", 168, "FOLLOW-UP", "2013-10-08", "2013-10-08", 199, 199, ""], ["CDISCPILOT01", "SV", "01-701-1302", 1.0, "SCREENING 1", -7, "SCREENING", "2013-08-20", "2013-08-20", -9, -9, ""], ["CDISCPILOT01", "SV", "01-701-1302", 2.0, "SCREENING 2", -1, "SCREENING", "2013-08-27", "2013-08-27", -2, -2, ""], ["CDISCPILOT01", "SV", "01-701-1302", 3.0, "BASELINE", 1, "TREATMENT", "2013-08-29", "2013-08-29", 1, 1, ""], ["CDISCPILOT01", "SV", "01-701-1302", 3.5, "AMBUL ECG PLACEMENT", 13, "TREATMENT", "2013-09-09", "2013-09-09", 12, 12, ""], ["CDISCPILOT01", "SV", "01-701-1302", 4.0, "WEEK 2", 14, "TREATMENT", "2013-09-15", "2013-09-15", 18, 18, ""], ["CDISCPILOT01", "SV", "01-701-1302", 5.0, "WEEK 4", 28, "TREATMENT", "2013-09-24", "2013-09-24", 27, 27, ""], ["CDISCPILOT01", "SV", "01-701-1302", 6.0, "AMBUL ECG REMOVAL", 30, "TREATMENT", "2013-09-26", "2013-09-26", 29, 29, ""], ["CDISCPILOT01", "SV", "01-701-1302", 7.0, "WEEK 6", 42, "TREATMENT", "2013-10-08", "2013-10-08", 41, 41, ""], ["CDISCPILOT01", "SV", "01-701-1302", 8.0, "WEEK 8", 56, "TREATMENT", "2013-10-22", "2013-10-22", 55, 55, ""], ["CDISCPILOT01", "SV", "01-701-1302", 9.0, "WEEK 12", 84, "TREATMENT", "2013-11-05", "2013-11-05", 69, 69, ""], ["CDISCPILOT01", "SV", "01-701-1302", 101.0, "AE FOLLOW-UP", null, "FOLLOW-UP", "2013-12-16", "2013-12-16", 110, 110, ""], ["CDISCPILOT01", "SV", "01-701-1302", 201.0, "RETRIEVAL", 168, "FOLLOW-UP", "2014-02-13", "2014-02-13", 169, 169, ""], ["CDISCPILOT01", "SV", "01-701-1307", 1.0, "SCREENING 1", -7, "SCREENING", "2013-12-08", "2013-12-08", null, null, ""], ["CDISCPILOT01", "SV", "01-701-1317", 1.0, "SCREENING 1", -7, "SCREENING", "2014-05-10", "2014-05-10", -12, -12, ""], ["CDISCPILOT01", "SV", "01-701-1317", 1.1, "UNSCHEDULED 1.1", null, "SCREENING", "2014-05-10", "2014-05-10", -12, -12, "Unplanned visit to complete unscheduled assessments"], ["CDISCPILOT01", "SV", "01-701-1317", 2.0, "SCREENING 2", -1, "SCREENING", "2014-05-20", "2014-05-20", -2, -2, ""], ["CDISCPILOT01", "SV", "01-701-1317", 3.0, "BASELINE", 1, "TREATMENT", "2014-05-22", "2014-05-22", 1, 1, ""], ["CDISCPILOT01", "SV", "01-701-1317", 3.5, "AMBUL ECG PLACEMENT", 13, "TREATMENT", "2014-06-04", "2014-06-04", 14, 14, ""], ["CDISCPILOT01", "SV", "01-701-1317", 4.0, "WEEK 2", 14, "TREATMENT", "2014-06-05", "2014-06-05", 15, 15, ""], ["CDISCPILOT01", "SV", "01-701-1317", 5.0, "WEEK 4", 28, "TREATMENT", "2014-06-19", "2014-06-19", 29, 29, ""], ["CDISCPILOT01", "SV", "01-701-1317", 6.0, "AMBUL ECG REMOVAL", 30, "TREATMENT", "2014-06-21", "2014-06-21", 31, 31, ""], ["CDISCPILOT01", "SV", "01-701-1317", 7.0, "WEEK 6", 42, "TREATMENT", "2014-07-03", "2014-07-03", 43, 43, ""], ["CDISCPILOT01", "SV", "01-701-1317", 8.0, "WEEK 8", 56, "TREATMENT", "2014-07-22", "2014-07-22", 62, 62, ""], ["CDISCPILOT01", "SV", "01-701-1317", 8.1, "WEEK 10 (T)", 70, "TREATMENT", "2014-07-30", "2014-07-30", 70, 70, ""], ["CDISCPILOT01", "SV", "01-701-1317", 9.0, "WEEK 12", 84, "TREATMENT", "2014-08-15", "2014-08-15", 86, 86, ""], ["CDISCPILOT01", "SV", "01-701-1317", 9.1, "WEEK 14 (T)", 98, "TREATMENT", "2014-08-28", "2014-08-28", 99, 99, ""], ["CDISCPILOT01", "SV", "01-701-1317", 10.0, "WEEK 16", 112, "TREATMENT", "2014-09-11", "2014-09-11", 113, 113, ""], ["CDISCPILOT01", "SV", "01-701-1317", 10.1, "WEEK 18 (T)", 126, "TREATMENT", "2014-09-25", "2014-09-25", 127, 127, ""], ["CDISCPILOT01", "SV", "01-701-1317", 11.0, "WEEK 20", 140, "TREATMENT", "2014-10-09", "2014-10-09", 141, 141, ""], ["CDISCPILOT01", "SV", "01-701-1317", 11.1, "WEEK 22 (T)", 154, "TREATMENT", "2014-10-23", "2014-10-23", 155, 155, ""], ["CDISCPILOT01", "SV", "01-701-1317", 12.0, "WEEK 24", 168, "TREATMENT", "2014-11-06", "2014-11-06", 169, 169, ""], ["CDISCPILOT01", "SV", "01-701-1317", 13.0, "WEEK 26", 182, "TREATMENT", "2014-11-20", "2014-11-20", 183, 183, ""], ["CDISCPILOT01", "SV", "01-701-1324", 1.0, "SCREENING 1", -7, "SCREENING", "2012-09-16", "2012-09-16", -16, -16, ""], ["CDISCPILOT01", "SV", "01-701-1324", 1.1, "UNSCHEDULED 1.1", null, "SCREENING", "2012-09-25", "2012-09-25", -7, -7, "Unplanned visit to complete unscheduled assessments"], ["CDISCPILOT01", "SV", "01-701-1324", 2.0, "SCREENING 2", -1, "SCREENING", "2012-09-25", "2012-09-25", -7, -7, ""], ["CDISCPILOT01", "SV", "01-701-1324", 3.0, "BASELINE", 1, "TREATMENT", "2012-10-02", "2012-10-02", 1, 1, ""], ["CDISCPILOT01", "SV", "01-701-1324", 3.5, "AMBUL ECG PLACEMENT", 13, "TREATMENT", "2012-10-15", "2012-10-15", 14, 14, ""], ["CDISCPILOT01", "SV", "01-701-1324", 4.0, "WEEK 2", 14, "TREATMENT", "2012-10-16", "2012-10-16", 15, 15, ""], ["CDISCPILOT01", "SV", "01-701-1324", 4.1, "UNSCHEDULED 4.1", null, "TREATMENT", "2012-10-25", "2012-10-25", 24, 24, "Unplanned visit to complete unscheduled assessments"], ["CDISCPILOT01", "SV", "01-701-1324", 5.0, "WEEK 4", 28, "TREATMENT", "2012-10-30", "2012-10-30", 29, 29, ""], ["CDISCPILOT01", "SV", "01-701-1324", 6.0, "AMBUL ECG REMOVAL", 30, "TREATMENT", "2012-11-01", "2012-11-01", 31, 31, ""], ["CDISCPILOT01", "SV", "01-701-1324", 7.0, "WEEK 6", 42, "TREATMENT", "2012-11-13", "2012-11-13", 43, 43, ""], ["CDISCPILOT01", "SV", "01-701-1324", 8.0, "WEEK 8", 56, "TREATMENT", "2012-11-25", "2012-11-25", 55, 55, ""], ["CDISCPILOT01", "SV", "01-701-1324", 8.1, "WEEK 10 (T)", 70, "TREATMENT", "2012-12-11", "2012-12-11", 71, 71, ""], ["CDISCPILOT01", "SV", "01-701-1324", 9.0, "WEEK 12", 84, "TREATMENT", "2012-12-25", "2012-12-25", 85, 85, ""], ["CDISCPILOT01", "SV", "01-701-1324", 9.1, "WEEK 14 (T)", 98, "TREATMENT", "2013-01-08", "2013-01-08", 99, 99, ""], ["CDISCPILOT01", "SV", "01-701-1324", 10.0, "WEEK 16", 112, "TREATMENT", "2013-01-22", "2013-01-22", 113, 113, ""], ["CDISCPILOT01", "SV", "01-701-1324", 10.1, "WEEK 18 (T)", 126, "TREATMENT", "2013-02-05", "2013-02-05", 127, 127, ""], ["CDISCPILOT01", "SV", "01-701-1324", 11.0, "WEEK 20", 140, "TREATMENT", "2013-02-19", "2013-02-19", 141, 141, ""], ["CDISCPILOT01", "SV", "01-701-1324", 11.1, "WEEK 22 (T)", 154, "TREATMENT", "2013-03-05", "2013-03-05", 155, 155, ""], ["CDISCPILOT01", "SV", "01-701-1324", 12.0, "WEEK 24", 168, "TREATMENT", "2013-03-19", "2013-03-19", 169, 169, ""], ["CDISCPILOT01", "SV", "01-701-1324", 13.0, "WEEK 26", 182, "TREATMENT", "2013-04-02", "2013-04-02", 183, 183, ""], ["CDISCPILOT01", "SV", "01-701-1341", 1.0, "SCREENING 1", -7, "SCREENING", "2012-12-22", "2012-12-22", -14, -14, ""], ["CDISCPILOT01", "SV", "01-701-1341", 1.1, "UNSCHEDULED 1.1", null, "SCREENING", "2012-12-26", "2012-12-26", -10, -10, "Unplanned visit to complete unscheduled assessments"], ["CDISCPILOT01", "SV", "01-701-1341", 2.0, "SCREENING 2", -1, "SCREENING", "2013-01-03", "2013-01-03", -2, -2, ""], ["CDISCPILOT01", "SV", "01-701-1341", 3.0, "BASELINE", 1, "TREATMENT", "2013-01-05", "2013-01-05", 1, 1, ""], ["CDISCPILOT01", "SV", "01-701-1341", 3.5, "AMBUL ECG PLACEMENT", 13, "TREATMENT", "2013-01-17", "2013-01-17", 13, 13, ""], ["CDISCPILOT01", "SV", "01-701-1341", 4.0, "WEEK 2", 14, "TREATMENT", "2013-01-18", "2013-01-18", 14, 14, ""], ["CDISCPILOT01", "SV", "01-701-1341", 5.0, "WEEK 4", 28, "TREATMENT", "2013-02-07", "2013-02-07", 34, 34, ""], ["CDISCPILOT01", "SV", "01-701-1341", 101.0, "AE FOLLOW-UP", null, "FOLLOW-UP", "2013-02-21", "2013-02-21", 48, 48, ""], ["CDISCPILOT01", "SV", "01-701-1345", 1.0, "SCREENING 1", -7, "SCREENING", "2013-10-01", "2013-10-01", -7, -7, ""], ["CDISCPILOT01", "SV", "01-701-1345", 2.0, "SCREENING 2", -1, "SCREENING", "2013-10-06", "2013-10-06", -2, -2, ""], ["CDISCPILOT01", "SV", "01-701-1345", 3.0, "BASELINE", 1, "TREATMENT", "2013-10-08", "2013-10-08", 1, 1, ""], ["CDISCPILOT01", "SV", "01-701-1345", 3.5, "AMBUL ECG PLACEMENT", 13, "TREATMENT", "2013-10-23", "2013-10-23", 16, 16, ""], ["CDISCPILOT01", "SV", "01-701-1345", 4.0, "WEEK 2", 14, "TREATMENT", "2013-10-24", "2013-10-24", 17, 17, ""], ["CDISCPILOT01", "SV", "01-701-1345", 5.0, "WEEK 4", 28, "TREATMENT", "2013-11-08", "2013-11-08", 32, 32, ""], ["CDISCPILOT01", "SV", "01-701-1345", 6.0, "AMBUL ECG REMOVAL", 30, "TREATMENT", "2013-11-10", "2013-11-10", 34, 34, ""], ["CDISCPILOT01", "SV", "01-701-1345", 7.0, "WEEK 6", 42, "TREATMENT", "2013-11-19", "2013-11-19", 43, 43, ""], ["CDISCPILOT01", "SV", "01-701-1345", 8.0, "WEEK 8", 56, "TREATMENT", "2013-12-03", "2013-12-03", 57, 57, ""], ["CDISCPILOT01", "SV", "01-701-1345", 8.1, "WEEK 10 (T)", 70, "TREATMENT", "2013-12-18", "2013-12-18", 72, 72, ""], ["CDISCPILOT01", "SV", "01-701-1345", 9.0, "WEEK 12", 84, "TREATMENT", "2013-12-31", "2013-12-31", 85, 85, ""], ["CDISCPILOT01", "SV", "01-701-1345", 9.1, "WEEK 14 (T)", 98, "TREATMENT", "2014-01-14", "2014-01-14", 99, 99, ""], ["CDISCPILOT01", "SV", "01-701-1345", 10.0, "WEEK 16", 112, "TREATMENT", "2014-01-27", "2014-01-27", 112, 112, ""], ["CDISCPILOT01", "SV", "01-701-1345", 10.1, "WEEK 18 (T)", 126, "TREATMENT", "2014-02-11", "2014-02-11", 127, 127, ""], ["CDISCPILOT01", "SV", "01-701-1345", 11.0, "WEEK 20", 140, "TREATMENT", "2014-02-25", "2014-02-25", 141, 141, ""], ["CDISCPILOT01", "SV", "01-701-1345", 11.1, "WEEK 22 (T)", 154, "TREATMENT", "2014-03-11", "2014-03-11", 155, 155, ""], ["CDISCPILOT01", "SV", "01-701-1345", 12.0, "WEEK 24", 168, "TREATMENT", "2014-03-18", "2014-03-18", 162, 162, ""], ["CDISCPILOT01", "SV", "01-701-1356", 1.0, "SCREENING 1", -7, "SCREENING", "2014-04-01", "2014-04-01", null, null, ""], ["CDISCPILOT01", "SV", "01-701-1360", 1.0, "SCREENING 1", -7, "SCREENING", "2013-07-24", "2013-07-24", -7, -7, ""], ["CDISCPILOT01", "SV", "01-701-1360", 2.0, "SCREENING 2", -1, "SCREENING", "2013-07-29", "2013-07-29", -2, -2, ""], ["CDISCPILOT01", "SV", "01-701-1360", 3.0, "BASELINE", 1, "TREATMENT", "2013-07-31", "2013-07-31", 1, 1, ""], ["CDISCPILOT01", "SV", "01-701-1360", 4.0, "WEEK 2", 14, "TREATMENT", "2013-08-14", "2013-08-14", 15, 15, ""], ["CDISCPILOT01", "SV", "01-701-1360", 101.0, "AE FOLLOW-UP", null, "FOLLOW-UP", "2013-09-09", "2013-09-09", 41, 41, ""], ["CDISCPILOT01", "SV", "01-701-1360", 201.0, "RETRIEVAL", 168, "FOLLOW-UP", "2014-02-11", "2014-02-11", 196, 196, ""], ["CDISCPILOT01", "SV", "01-701-1363", 1.0, "SCREENING 1", -7, "SCREENING", "2013-05-20", "2013-05-20", -10, -10, ""], ["CDISCPILOT01", "SV", "01-701-1363", 2.0, "SCREENING 2", -1, "SCREENING", "2013-05-28", "2013-05-28", -2, -2, ""], ["CDISCPILOT01", "SV", "01-701-1363", 3.0, "BASELINE", 1, "TREATMENT", "2013-05-30", "2013-05-30", 1, 1, ""], ["CDISCPILOT01", "SV", "01-701-1363", 3.5, "AMBUL ECG PLACEMENT", 13, "TREATMENT", "2013-06-11", "2013-06-11", 13, 13, ""], ["CDISCPILOT01", "SV", "01-701-1363", 4.0, "WEEK 2", 14, "TREATMENT", "2013-06-12", "2013-06-12", 14, 14, ""], ["CDISCPILOT01", "SV", "01-701-1363", 5.0, "WEEK 4", 28, "TREATMENT", "2013-06-25", "2013-06-25", 27, 27, ""], ["CDISCPILOT01", "SV", "01-701-1363", 6.0, "AMBUL ECG REMOVAL", 30, "TREATMENT", "2013-06-27", "2013-06-27", 29, 29, ""], ["CDISCPILOT01", "SV", "01-701-1363", 7.0, "WEEK 6", 42, "TREATMENT", "2013-07-10", "2013-07-10", 42, 42, ""], ["CDISCPILOT01", "SV", "01-701-1363", 8.0, "WEEK 8", 56, "TREATMENT", "2013-07-24", "2013-07-24", 56, 56, ""], ["CDISCPILOT01", "SV", "01-701-1363", 8.1, "WEEK 10 (T)", 70, "TREATMENT", "2013-08-07", "2013-08-07", 70, 70, ""], ["CDISCPILOT01", "SV", "01-701-1363", 9.0, "WEEK 12", 84, "TREATMENT", "2013-08-21", "2013-08-21", 84, 84, ""], ["CDISCPILOT01", "SV", "01-701-1363", 9.1, "WEEK 14 (T)", 98, "TREATMENT", "2013-09-04", "2013-09-04", 98, 98, ""], ["CDISCPILOT01", "SV", "01-701-1363", 10.0, "WEEK 16", 112, "TREATMENT", "2013-09-18", "2013-09-18", 112, 112, ""], ["CDISCPILOT01", "SV", "01-701-1363", 10.1, "WEEK 18 (T)", 126, "TREATMENT", "2013-10-02", "2013-10-02", 126, 126, ""], ["CDISCPILOT01", "SV", "01-701-1363", 10.2, "UNSCHEDULED 10.2", null, "TREATMENT", "2013-10-02", "2013-10-02", 126, 126, "Unplanned visit to complete unscheduled assessments"], ["CDISCPILOT01", "SV", "01-701-1363", 11.0, "WEEK 20", 140, "TREATMENT", "2013-10-14", "2013-10-14", 138, 138, ""], ["CDISCPILOT01", "SV", "01-701-1363", 11.1, "WEEK 22 (T)", 154, "TREATMENT", "2013-10-30", "2013-10-30", 154, 154, ""], ["CDISCPILOT01", "SV", "01-701-1363", 12.0, "WEEK 24", 168, "TREATMENT", "2013-11-13", "2013-11-13", 168, 168, ""], ["CDISCPILOT01", "SV", "01-701-1363", 13.0, "WEEK 26", 182, "TREATMENT", "2013-11-27", "2013-11-27", 182, 182, ""], ["CDISCPILOT01", "SV", "01-701-1369", 1.0, "SCREENING 1", -7, "SCREENING", "2013-09-18", "2013-09-18", null, null, ""], ["CDISCPILOT01", "SV", "01-701-1383", 1.0, "SCREENING 1", -7, "SCREENING", "2013-01-22", "2013-01-22", -13, -13, ""], ["CDISCPILOT01", "SV", "01-701-1383", 2.0, "SCREENING 2", -1, "SCREENING", "2013-02-02", "2013-02-02", -2, -2, ""], ["CDISCPILOT01", "SV", "01-701-1383", 3.0, "BASELINE", 1, "TREATMENT", "2013-02-04", "2013-02-04", 1, 1, ""], ["CDISCPILOT01", "SV", "01-701-1383", 3.5, "AMBUL ECG PLACEMENT", 13, "TREATMENT", "2013-02-18", "2013-02-18", 15, 15, ""], ["CDISCPILOT01", "SV", "01-701-1383", 4.0, "WEEK 2", 14, "TREATMENT", "2013-02-19", "2013-02-19", 16, 16, ""], ["CDISCPILOT01", "SV", "01-701-1383", 5.0, "WEEK 4", 28, "TREATMENT", "2013-03-12", "2013-03-12", 37, 37, ""], ["CDISCPILOT01", "SV", "01-701-1383", 6.0, "AMBUL ECG REMOVAL", 30, "TREATMENT", "2013-03-14", "2013-03-14", 39, 39, ""], ["CDISCPILOT01", "SV", "01-701-1383", 7.0, "WEEK 6", 42, "TREATMENT", "2013-03-19", "2013-03-19", 44, 44, ""], ["CDISCPILOT01", "SV", "01-701-1383", 8.0, "WEEK 8", 56, "TREATMENT", "2013-04-02", "2013-04-02", 58, 58, ""], ["CDISCPILOT01", "SV", "01-701-1383", 8.1, "WEEK 10 (T)", 70, "TREATMENT", "2013-04-16", "2013-04-16", 72, 72, ""], ["CDISCPILOT01", "SV", "01-701-1383", 9.0, "WEEK 12", 84, "TREATMENT", "2013-04-30", "2013-04-30", 86, 86, ""], ["CDISCPILOT01", "SV", "01-701-1383", 9.1, "WEEK 14 (T)", 98, "TREATMENT", "2013-05-14", "2013-05-14", 100, 100, ""], ["CDISCPILOT01", "SV", "01-701-1383", 10.0, "WEEK 16", 112, "TREATMENT", "2013-05-30", "2013-05-30", 116, 116, ""], ["CDISCPILOT01", "SV", "01-701-1383", 10.1, "WEEK 18 (T)", 126, "TREATMENT", "2013-06-13", "2013-06-13", 130, 130, ""], ["CDISCPILOT01", "SV", "01-701-1383", 11.0, "WEEK 20", 140, "TREATMENT", "2013-06-25", "2013-06-25", 142, 142, ""], ["CDISCPILOT01", "SV", "01-701-1383", 11.1, "WEEK 22 (T)", 154, "TREATMENT", "2013-07-09", "2013-07-09", 156, 156, ""], ["CDISCPILOT01", "SV", "01-701-1383", 12.0, "WEEK 24", 168, "TREATMENT", "2013-07-30", "2013-07-30", 177, 177, ""], ["CDISCPILOT01", "SV", "01-701-1383", 13.0, "WEEK 26", 182, "TREATMENT", "2013-08-06", "2013-08-06", 184, 184, ""], ["CDISCPILOT01", "SV", "01-701-1386", 1.0, "SCREENING 1", -7, "SCREENING", "2013-12-28", "2013-12-28", null, null, ""], ["CDISCPILOT01", "SV", "01-701-1387", 1.0, "SCREENING 1", -7, "SCREENING", "2014-02-23", "2014-02-23", -17, -17, ""], ["CDISCPILOT01", "SV", "01-701-1387", 2.0, "SCREENING 2", -1, "SCREENING", "2014-03-08", "2014-03-08", -4, -4, ""], ["CDISCPILOT01", "SV", "01-701-1387", 3.0, "BASELINE", 1, "TREATMENT", "2014-03-12", "2014-03-12", 1, 1, ""], ["CDISCPILOT01", "SV", "01-701-1387", 4.0, "WEEK 2", 14, "TREATMENT", "2014-03-25", "2014-03-25", 14, 14, ""], ["CDISCPILOT01", "SV", "01-701-1387", 201.0, "RETRIEVAL", 168, "FOLLOW-UP", "2014-08-27", "2014-08-27", 169, 169, ""], ["CDISCPILOT01", "SV", "01-701-1392", 1.0, "SCREENING 1", -7, "SCREENING", "2012-10-17", "2012-10-17", -11, -11, ""], ["CDISCPILOT01", "SV", "01-701-1392", 2.0, "SCREENING 2", -1, "SCREENING", "2012-10-26", "2012-10-26", -2, -2, ""], ["CDISCPILOT01", "SV", "01-701-1392", 3.0, "BASELINE", 1, "TREATMENT", "2012-10-28", "2012-10-28", 1, 1, ""], ["CDISCPILOT01", "SV", "01-701-1392", 3.5, "AMBUL ECG PLACEMENT", 13, "TREATMENT", "2012-11-10", "2012-11-10", 14, 14, ""], ["CDISCPILOT01", "SV", "01-701-1392", 4.0, "WEEK 2", 14, "TREATMENT", "2012-11-11", "2012-11-11", 15, 15, ""], ["CDISCPILOT01", "SV", "01-701-1392", 5.0, "WEEK 4", 28, "TREATMENT", "2012-11-24", "2012-11-24", 28, 28, ""], ["CDISCPILOT01", "SV", "01-701-1392", 6.0, "AMBUL ECG REMOVAL", 30, "TREATMENT", "2012-11-26", "2012-11-26", 30, 30, ""], ["CDISCPILOT01", "SV", "01-701-1392", 7.0, "WEEK 6", 42, "TREATMENT", "2012-12-09", "2012-12-09", 43, 43, ""], ["CDISCPILOT01", "SV", "01-701-1392", 8.0, "WEEK 8", 56, "TREATMENT", "2012-12-20", "2012-12-20", 54, 54, ""], ["CDISCPILOT01", "SV", "01-701-1392", 8.1, "WEEK 10 (T)", 70, "TREATMENT", "2013-01-06", "2013-01-06", 71, 71, ""], ["CDISCPILOT01", "SV", "01-701-1392", 9.0, "WEEK 12", 84, "TREATMENT", "2013-01-20", "2013-01-20", 85, 85, ""], ["CDISCPILOT01", "SV", "01-701-1392", 9.1, "WEEK 14 (T)", 98, "TREATMENT", "2013-02-03", "2013-02-03", 99, 99, ""], ["CDISCPILOT01", "SV", "01-701-1392", 10.0, "WEEK 16", 112, "TREATMENT", "2013-02-17", "2013-02-17", 113, 113, ""], ["CDISCPILOT01", "SV", "01-701-1392", 10.1, "WEEK 18 (T)", 126, "TREATMENT", "2013-03-03", "2013-03-03", 127, 127, ""], ["CDISCPILOT01", "SV", "01-701-1392", 11.0, "WEEK 20", 140, "TREATMENT", "2013-03-17", "2013-03-17", 141, 141, ""], ["CDISCPILOT01", "SV", "01-701-1392", 11.1, "WEEK 22 (T)", 154, "TREATMENT", "2013-03-31", "2013-03-31", 155, 155, ""], ["CDISCPILOT01", "SV", "01-701-1392", 12.0, "WEEK 24", 168, "TREATMENT", "2013-04-15", "2013-04-15", 170, 170, ""], ["CDISCPILOT01", "SV", "01-701-1392", 13.0, "WEEK 26", 182, "TREATMENT", "2013-04-28", "2013-04-28", 183, 183, ""], ["CDISCPILOT01", "SV", "01-701-1411", 1.0, "SCREENING 1", -7, "SCREENING", "2012-11-14", "2012-11-14", null, null, ""], ["CDISCPILOT01", "SV", "01-701-1415", 1.0, "SCREENING 1", -7, "SCREENING", "2013-09-15", "2013-09-15", -8, -8, ""], ["CDISCPILOT01", "SV", "01-701-1415", 1.1, "UNSCHEDULED 1.1", null, "SCREENING", "2013-09-21", "2013-09-21", -2, -2, "Unplanned visit to complete unscheduled assessments"], ["CDISCPILOT01", "SV", "01-701-1415", 2.0, "SCREENING 2", -1, "SCREENING", "2013-09-21", "2013-09-21", -2, -2, ""], ["CDISCPILOT01", "SV", "01-701-1415", 3.0, "BASELINE", 1, "TREATMENT", "2013-09-23", "2013-09-23", 1, 1, ""], ["CDISCPILOT01", "SV", "01-701-1415", 3.5, "AMBUL ECG PLACEMENT", 13, "TREATMENT", "2013-10-06", "2013-10-06", 14, 14, ""], ["CDISCPILOT01", "SV", "01-701-1415", 4.0, "WEEK 2", 14, "TREATMENT", "2013-10-07", "2013-10-07", 15, 15, ""], ["CDISCPILOT01", "SV", "01-701-1415", 5.0, "WEEK 4", 28, "TREATMENT", "2013-10-20", "2013-10-20", 28, 28, ""], ["CDISCPILOT01", "SV", "01-701-1415", 6.0, "AMBUL ECG REMOVAL", 30, "TREATMENT", "2013-10-22", "2013-10-22", 30, 30, ""], ["CDISCPILOT01", "SV", "01-701-1415", 7.0, "WEEK 6", 42, "TREATMENT", "2013-11-04", "2013-11-04", 43, 43, ""], ["CDISCPILOT01", "SV", "01-701-1415", 8.0, "WEEK 8", 56, "TREATMENT", "2013-11-21", "2013-11-21", 60, 60, ""], ["CDISCPILOT01", "SV", "01-701-1415", 8.1, "WEEK 10 (T)", 70, "TREATMENT", "2013-12-02", "2013-12-02", 71, 71, ""], ["CDISCPILOT01", "SV", "01-701-1415", 9.0, "WEEK 12", 84, "TREATMENT", "2013-12-21", "2013-12-21", 90, 90, ""], ["CDISCPILOT01", "SV", "01-701-1415", 9.1, "WEEK 14 (T)", 98, "TREATMENT", "2013-12-30", "2013-12-30", 99, 99, ""], ["CDISCPILOT01", "SV", "01-701-1415", 10.0, "WEEK 16", 112, "TREATMENT", "2014-01-14", "2014-01-14", 114, 114, ""], ["CDISCPILOT01", "SV", "01-701-1415", 10.1, "WEEK 18 (T)", 126, "TREATMENT", "2014-01-27", "2014-01-27", 127, 127, ""], ["CDISCPILOT01", "SV", "01-701-1415", 11.0, "WEEK 20", 140, "TREATMENT", "2014-02-10", "2014-02-10", 141, 141, ""], ["CDISCPILOT01", "SV", "01-701-1415", 11.1, "WEEK 22 (T)", 154, "TREATMENT", "2014-02-24", "2014-02-24", 155, 155, ""], ["CDISCPILOT01", "SV", "01-701-1415", 12.0, "WEEK 24", 168, "TREATMENT", "2014-03-10", "2014-03-10", 169, 169, ""], ["CDISCPILOT01", "SV", "01-701-1415", 13.0, "WEEK 26", 182, "TREATMENT", "2014-03-24", "2014-03-24", 183, 183, ""], ["CDISCPILOT01", "SV", "01-701-1429", 1.0, "SCREENING 1", -7, "SCREENING", "2013-02-25", "2013-02-25", -22, -22, ""], ["CDISCPILOT01", "SV", "01-701-1429", 2.0, "SCREENING 2", -1, "SCREENING", "2013-03-17", "2013-03-17", -2, -2, ""], ["CDISCPILOT01", "SV", "01-701-1429", 3.0, "BASELINE", 1, "TREATMENT", "2013-03-19", "2013-03-19", 1, 1, ""], ["CDISCPILOT01", "SV", "01-701-1429", 4.0, "WEEK 2", 14, "TREATMENT", "2013-04-02", "2013-04-02", 15, 15, ""], ["CDISCPILOT01", "SV", "01-701-1429", 5.0, "WEEK 4", 28, "TREATMENT", "2013-04-16", "2013-04-16", 29, 29, ""], ["CDISCPILOT01", "SV", "01-701-1429", 7.0, "WEEK 6", 42, "TREATMENT", "2013-04-30", "2013-04-30", 43, 43, ""], ["CDISCPILOT01", "SV", "01-701-1440", 1.0, "SCREENING 1", -7, "SCREENING", "2013-07-24", "2013-07-24", -15, -15, ""], ["CDISCPILOT01", "SV", "01-701-1440", 2.0, "SCREENING 2", -1, "SCREENING", "2013-08-06", "2013-08-06", -2, -2, ""], ["CDISCPILOT01", "SV", "01-701-1440", 3.0, "BASELINE", 1, "TREATMENT", "2013-08-08", "2013-08-08", 1, 1, ""], ["CDISCPILOT01", "SV", "01-701-1440", 3.5, "AMBUL ECG PLACEMENT", 13, "TREATMENT", "2013-08-22", "2013-08-22", 15, 15, ""], ["CDISCPILOT01", "SV", "01-701-1440", 4.0, "WEEK 2", 14, "TREATMENT", "2013-08-23", "2013-08-23", 16, 16, ""], ["CDISCPILOT01", "SV", "01-701-1440", 5.0, "WEEK 4", 28, "TREATMENT", "2013-09-04", "2013-09-04", 28, 28, ""], ["CDISCPILOT01", "SV", "01-701-1440", 6.0, "AMBUL ECG REMOVAL", 30, "TREATMENT", "2013-09-06", "2013-09-06", 30, 30, ""], ["CDISCPILOT01", "SV", "01-701-1440", 7.0, "WEEK 6", 42, "TREATMENT", "2013-09-22", "2013-09-22", 46, 46, ""], ["CDISCPILOT01", "SV", "01-701-1440", 8.0, "WEEK 8", 56, "TREATMENT", "2013-10-03", "2013-10-03", 57, 57, ""], ["CDISCPILOT01", "SV", "01-701-1440", 8.1, "WEEK 10 (T)", 70, "TREATMENT", "2013-10-17", "2013-10-17", 71, 71, ""], ["CDISCPILOT01", "SV", "01-701-1440", 9.0, "WEEK 12", 84, "TREATMENT", "2013-10-31", "2013-10-31", 85, 85, ""], ["CDISCPILOT01", "SV", "01-701-1440", 9.1, "WEEK 14 (T)", 98, "TREATMENT", "2013-11-14", "2013-11-14", 99, 99, ""], ["CDISCPILOT01", "SV", "01-701-1440", 10.0, "WEEK 16", 112, "TREATMENT", "2013-11-27", "2013-11-27", 112, 112, ""], ["CDISCPILOT01", "SV", "01-701-1440", 10.1, "WEEK 18 (T)", 126, "TREATMENT", "2013-12-12", "2013-12-12", 127, 127, ""], ["CDISCPILOT01", "SV", "01-701-1440", 11.0, "WEEK 20", 140, "TREATMENT", "2013-12-25", "2013-12-25", 140, 140, ""], ["CDISCPILOT01", "SV", "01-701-1440", 11.1, "WEEK 22 (T)", 154, "TREATMENT", "2014-01-08", "2014-01-08", 154, 154, ""], ["CDISCPILOT01", "SV", "01-701-1440", 12.0, "WEEK 24", 168, "TREATMENT", "2014-01-22", "2014-01-22", 168, 168, ""], ["CDISCPILOT01", "SV", "01-701-1440", 13.0, "WEEK 26", 182, "TREATMENT", "2014-02-05", "2014-02-05", 182, 182, ""], ["CDISCPILOT01", "SV", "01-701-1442", 1.0, "SCREENING 1", -7, "SCREENING", "2013-10-17", "2013-10-17", -9, -9, ""], ["CDISCPILOT01", "SV", "01-701-1442", 2.0, "SCREENING 2", -1, "SCREENING", "2013-10-24", "2013-10-24", -2, -2, ""], ["CDISCPILOT01", "SV", "01-701-1442", 3.0, "BASELINE", 1, "TREATMENT", "2013-10-26", "2013-10-26", 1, 1, ""], ["CDISCPILOT01", "SV", "01-701-1442", 3.5, "AMBUL ECG PLACEMENT", 13, "TREATMENT", "2013-11-08", "2013-11-08", 14, 14, ""], ["CDISCPILOT01", "SV", "01-701-1442", 4.0, "WEEK 2", 14, "TREATMENT", "2013-11-09", "2013-11-09", 15, 15, ""], ["CDISCPILOT01", "SV", "01-701-1442", 5.0, "WEEK 4", 28, "TREATMENT", "2013-11-23", "2013-11-23", 29, 29, ""], ["CDISCPILOT01", "SV", "01-701-1442", 6.0, "AMBUL ECG REMOVAL", 30, "TREATMENT", "2013-11-25", "2013-11-25", 31, 31, ""], ["CDISCPILOT01", "SV", "01-701-1442", 7.0, "WEEK 6", 42, "TREATMENT", "2013-12-07", "2013-12-07", 43, 43, ""], ["CDISCPILOT01", "SV", "01-701-1442", 8.0, "WEEK 8", 56, "TREATMENT", "2013-12-26", "2013-12-26", 62, 62, ""], ["CDISCPILOT01", "SV", "01-701-1442", 8.1, "WEEK 10 (T)", 70, "TREATMENT", "2014-01-04", "2014-01-04", 71, 71, ""], ["CDISCPILOT01", "SV", "01-701-1442", 9.0, "WEEK 12", 84, "TREATMENT", "2014-01-18", "2014-01-18", 85, 85, ""], ["CDISCPILOT01", "SV", "01-701-1442", 9.1, "WEEK 14 (T)", 98, "TREATMENT", "2014-02-01", "2014-02-01", 99, 99, ""], ["CDISCPILOT01", "SV", "01-701-1442", 10.0, "WEEK 16", 112, "TREATMENT", "2014-02-15", "2014-02-15", 113, 113, ""], ["CDISCPILOT01", "SV", "01-701-1442", 10.1, "WEEK 18 (T)", 126, "TREATMENT", "2014-03-01", "2014-03-01", 127, 127, ""], ["CDISCPILOT01", "SV", "01-701-1442", 11.0, "WEEK 20", 140, "TREATMENT", "2014-03-15", "2014-03-15", 141, 141, ""], ["CDISCPILOT01", "SV", "01-701-1442", 11.1, "WEEK 22 (T)", 154, "TREATMENT", "2014-03-29", "2014-03-29", 155, 155, ""], ["CDISCPILOT01", "SV", "01-701-1442", 12.0, "WEEK 24", 168, "TREATMENT", "2014-04-17", "2014-04-17", 174, 174, ""], ["CDISCPILOT01", "SV", "01-701-1442", 13.0, "WEEK 26", 182, "TREATMENT", "2014-04-26", "2014-04-26", 183, 183, ""], ["CDISCPILOT01", "SV", "01-701-1444", 1.0, "SCREENING 1", -7, "SCREENING", "2012-12-31", "2012-12-31", -5, -5, ""], ["CDISCPILOT01", "SV", "01-701-1444", 2.0, "SCREENING 2", -1, "SCREENING", "2013-01-03", "2013-01-03", -2, -2, ""], ["CDISCPILOT01", "SV", "01-701-1444", 3.0, "BASELINE", 1, "TREATMENT", "2013-01-05", "2013-01-05", 1, 1, ""], ["CDISCPILOT01", "SV", "01-701-1444", 3.5, "AMBUL ECG PLACEMENT", 13, "TREATMENT", "2013-01-17", "2013-01-17", 13, 13, ""], ["CDISCPILOT01", "SV", "01-701-1444", 4.0, "WEEK 2", 14, "TREATMENT", "2013-01-18", "2013-01-18", 14, 14, ""], ["CDISCPILOT01", "SV", "01-701-1444", 5.0, "WEEK 4", 28, "TREATMENT", "2013-01-31", "2013-01-31", 27, 27, ""], ["CDISCPILOT01", "SV", "01-701-1444", 6.0, "AMBUL ECG REMOVAL", 30, "TREATMENT", "2013-02-02", "2013-02-02", 29, 29, ""], ["CDISCPILOT01", "SV", "01-701-1444", 7.0, "WEEK 6", 42, "TREATMENT", "2013-02-13", "2013-02-13", 40, 40, ""], ["CDISCPILOT01", "SV", "01-701-1444", 101.0, "AE FOLLOW-UP", null, "FOLLOW-UP", "2013-06-20", "2013-06-20", 167, 167, ""], ["CDISCPILOT01", "SV", "01-701-1444", 201.0, "RETRIEVAL", 168, "FOLLOW-UP", "2013-06-20", "2013-06-20", 167, 167, ""], ["CDISCPILOT01", "SV", "01-702-1082", 1.0, "SCREENING 1", -7, "SCREENING", "2013-07-03", "2013-07-03", -23, -23, ""], ["CDISCPILOT01", "SV", "01-702-1082", 1.1, "UNSCHEDULED 1.1", null, "SCREENING", "2013-07-24", "2013-07-24", -2, -2, "Unplanned visit to complete unscheduled assessments"], ["CDISCPILOT01", "SV", "01-702-1082", 2.0, "SCREENING 2", -1, "SCREENING", "2013-07-24", "2013-07-24", -2, -2, ""], ["CDISCPILOT01", "SV", "01-702-1082", 3.0, "BASELINE", 1, "TREATMENT", "2013-07-26", "2013-07-26", 1, 1, ""], ["CDISCPILOT01", "SV", "01-702-1082", 3.5, "AMBUL ECG PLACEMENT", 13, "TREATMENT", "2013-08-07", "2013-08-07", 13, 13, ""], ["CDISCPILOT01", "SV", "01-702-1082", 4.0, "WEEK 2", 14, "TREATMENT", "2013-08-08", "2013-08-08", 14, 14, ""], ["CDISCPILOT01", "SV", "01-702-1082", 5.0, "WEEK 4", 28, "TREATMENT", "2013-08-24", "2013-08-24", 30, 30, ""], ["CDISCPILOT01", "SV", "01-702-1082", 6.0, "AMBUL ECG REMOVAL", 30, "TREATMENT", "2013-09-04", "2013-09-04", 41, 41, ""], ["CDISCPILOT01", "SV", "01-702-1082", 7.0, "WEEK 6", 42, "TREATMENT", "2013-09-06", "2013-09-06", 43, 43, ""], ["CDISCPILOT01", "SV", "01-702-1082", 8.0, "WEEK 8", 56, "TREATMENT", "2013-09-28", "2013-09-28", 65, 65, ""], ["CDISCPILOT01", "SV", "01-702-1082", 8.1, "WEEK 10 (T)", 70, "TREATMENT", "2013-10-12", "2013-10-12", 79, 79, ""], ["CDISCPILOT01", "SV", "01-702-1082", 9.0, "WEEK 12", 84, "TREATMENT", "2013-11-17", "2013-11-17", 115, 115, ""], ["CDISCPILOT01", "SV", "01-703-1042", 1.0, "SCREENING 1", -7, "SCREENING", "2013-02-23", "2013-02-23", -7, -7, ""], ["CDISCPILOT01", "SV", "01-703-1042", 1.1, "UNSCHEDULED 1.1", null, "", "2013-02-21", "2013-02-21", -9, -9, "Unplanned visit to complete unscheduled assessments"], ["CDISCPILOT01", "SV", "01-703-1042", 2.0, "SCREENING 2", -1, "SCREENING", "2013-02-28", "2013-02-28", -2, -2, ""], ["CDISCPILOT01", "SV", "01-703-1042", 3.0, "BASELINE", 1, "TREATMENT", "2013-03-02", "2013-03-02", 1, 1, ""], ["CDISCPILOT01", "SV", "01-703-1042", 3.5, "AMBUL ECG PLACEMENT", 13, "TREATMENT", "2013-03-13", "2013-03-13", 12, 12, ""], ["CDISCPILOT01", "SV", "01-703-1042", 4.0, "WEEK 2", 14, "TREATMENT", "2013-03-14", "2013-03-14", 13, 13, ""], ["CDISCPILOT01", "SV", "01-703-1042", 5.0, "WEEK 4", 28, "TREATMENT", "2013-03-28", "2013-03-28", 27, 27, ""], ["CDISCPILOT01", "SV", "01-703-1042", 6.0, "AMBUL ECG REMOVAL", 30, "TREATMENT", "2013-03-30", "2013-03-30", 29, 29, ""], ["CDISCPILOT01", "SV", "01-703-1042", 7.0, "WEEK 6", 42, "TREATMENT", "2013-04-13", "2013-04-13", 43, 43, ""], ["CDISCPILOT01", "SV", "01-703-1042", 8.0, "WEEK 8", 56, "TREATMENT", "2013-04-27", "2013-04-27", 57, 57, ""], ["CDISCPILOT01", "SV", "01-703-1042", 8.1, "WEEK 10 (T)", 70, "TREATMENT", "2013-05-11", "2013-05-11", 71, 71, ""], ["CDISCPILOT01", "SV", "01-703-1042", 9.0, "WEEK 12", 84, "TREATMENT", "2013-05-25", "2013-05-25", 85, 85, ""], ["CDISCPILOT01", "SV", "01-703-1042", 9.1, "WEEK 14 (T)", 98, "TREATMENT", "2013-06-08", "2013-06-08", 99, 99, ""], ["CDISCPILOT01", "SV", "01-703-1042", 10.0, "WEEK 16", 112, "TREATMENT", "2013-06-22", "2013-06-22", 113, 113, ""], ["CDISCPILOT01", "SV", "01-703-1042", 10.1, "WEEK 18 (T)", 126, "TREATMENT", "2013-07-06", "2013-07-06", 127, 127, ""], ["CDISCPILOT01", "SV", "01-703-1042", 11.0, "WEEK 20", 140, "TREATMENT", "2013-07-20", "2013-07-20", 141, 141, ""], ["CDISCPILOT01", "SV", "01-703-1042", 11.1, "WEEK 22 (T)", 154, "TREATMENT", "2013-08-03", "2013-08-03", 155, 155, ""], ["CDISCPILOT01", "SV", "01-703-1042", 12.0, "WEEK 24", 168, "TREATMENT", "2013-08-09", "2013-08-09", 161, 161, ""], ["CDISCPILOT01", "SV", "01-703-1042", 13.0, "WEEK 26", 182, "TREATMENT", "2013-08-31", "2013-08-31", 183, 183, ""], ["CDISCPILOT01", "SV", "01-703-1076", 1.0, "SCREENING 1", -7, "SCREENING", "2013-10-17", "2013-10-17", -8, -8, ""], ["CDISCPILOT01", "SV", "01-703-1076", 2.0, "SCREENING 2", -1, "SCREENING", "2013-10-23", "2013-10-23", -2, -2, ""], ["CDISCPILOT01", "SV", "01-703-1076", 3.0, "BASELINE", 1, "TREATMENT", "2013-10-25", "2013-10-25", 1, 1, ""], ["CDISCPILOT01", "SV", "01-703-1076", 3.5, "AMBUL ECG PLACEMENT", 13, "TREATMENT", "2013-11-05", "2013-11-05", 12, 12, ""], ["CDISCPILOT01", "SV", "01-703-1076", 4.0, "WEEK 2", 14, "TREATMENT", "2013-11-06", "2013-11-06", 13, 13, ""], ["CDISCPILOT01", "SV", "01-703-1076", 5.0, "WEEK 4", 28, "TREATMENT", "2013-11-20", "2013-11-20", 27, 27, ""], ["CDISCPILOT01", "SV", "01-703-1076", 6.0, "AMBUL ECG REMOVAL", 30, "TREATMENT", "2013-11-22", "2013-11-22", 29, 29, ""], ["CDISCPILOT01", "SV", "01-703-1076", 7.0, "WEEK 6", 42, "TREATMENT", "2013-12-04", "2013-12-04", 41, 41, ""], ["CDISCPILOT01", "SV", "01-703-1076", 8.0, "WEEK 8", 56, "TREATMENT", "2013-12-17", "2013-12-17", 54, 54, ""], ["CDISCPILOT01", "SV", "01-703-1076", 9.0, "WEEK 12", 84, "TREATMENT", "2013-12-24", "2013-12-24", 61, 61, ""], ["CDISCPILOT01", "SV", "01-703-1076", 101.0, "AE FOLLOW-UP", null, "FOLLOW-UP", "2014-01-21", "2014-01-21", 89, 89, ""], ["CDISCPILOT01", "SV", "01-703-1086", 1.0, "SCREENING 1", -7, "SCREENING", "2012-08-22", "2012-08-22", -11, -11, ""], ["CDISCPILOT01", "SV", "01-703-1086", 1.1, "UNSCHEDULED 1.1", null, "SCREENING", "2012-08-31", "2012-08-31", -2, -2, "Unplanned visit to complete unscheduled assessments"], ["CDISCPILOT01", "SV", "01-703-1086", 2.0, "SCREENING 2", -1, "SCREENING", "2012-08-31", "2012-08-31", -2, -2, ""], ["CDISCPILOT01", "SV", "01-703-1086", 3.0, "BASELINE", 1, "TREATMENT", "2012-09-02", "2012-09-02", 1, 1, ""], ["CDISCPILOT01", "SV", "01-703-1086", 3.5, "AMBUL ECG PLACEMENT", 13, "TREATMENT", "2012-09-15", "2012-09-15", 14, 14, ""], ["CDISCPILOT01", "SV", "01-703-1086", 4.0, "WEEK 2", 14, "TREATMENT", "2012-09-16", "2012-09-16", 15, 15, ""], ["CDISCPILOT01", "SV", "01-703-1086", 5.0, "WEEK 4", 28, "TREATMENT", "2012-09-30", "2012-09-30", 29, 29, ""], ["CDISCPILOT01", "SV", "01-703-1086", 6.0, "AMBUL ECG REMOVAL", 30, "TREATMENT", "2012-10-02", "2012-10-02", 31, 31, ""], ["CDISCPILOT01", "SV", "01-703-1086", 7.0, "WEEK 6", 42, "TREATMENT", "2012-10-13", "2012-10-13", 42, 42, ""], ["CDISCPILOT01", "SV", "01-703-1086", 8.0, "WEEK 8", 56, "TREATMENT", "2012-10-27", "2012-10-27", 56, 56, ""], ["CDISCPILOT01", "SV", "01-703-1086", 8.1, "WEEK 10 (T)", 70, "TREATMENT", "2012-11-10", "2012-11-10", 70, 70, ""], ["CDISCPILOT01", "SV", "01-703-1086", 9.0, "WEEK 12", 84, "TREATMENT", "2012-11-27", "2012-11-27", 87, 87, ""], ["CDISCPILOT01", "SV", "01-703-1086", 9.1, "WEEK 14 (T)", 98, "TREATMENT", "2012-12-11", "2012-12-11", 101, 101, ""], ["CDISCPILOT01", "SV", "01-703-1086", 10.0, "WEEK 16", 112, "TREATMENT", "2012-12-24", "2012-12-24", 114, 114, ""], ["CDISCPILOT01", "SV", "01-703-1086", 101.0, "AE FOLLOW-UP", null, "FOLLOW-UP", "2013-01-02", "2013-01-02", 123, 123, ""], ["CDISCPILOT01", "SV", "01-703-1086", 201.0, "RETRIEVAL", 168, "FOLLOW-UP", "2013-03-26", "2013-03-26", 206, 206, ""], ["CDISCPILOT01", "SV", "01-703-1096", 1.0, "SCREENING 1", -7, "SCREENING", "2012-12-19", "2012-12-19", -37, -37, ""], ["CDISCPILOT01", "SV", "01-703-1096", 1.1, "UNSCHEDULED 1.1", null, "SCREENING", "2012-12-19", "2012-12-19", -37, -37, "Unplanned visit to complete unscheduled assessments"], ["CDISCPILOT01", "SV", "01-703-1096", 1.2, "UNSCHEDULED 1.2", null, "SCREENING", "2012-12-29", "2012-12-29", -27, -27, "Unplanned visit to complete unscheduled assessments"], ["CDISCPILOT01", "SV", "01-703-1096", 1.3, "UNSCHEDULED 1.3", null, "SCREENING", "2013-01-23", "2013-01-23", -2, -2, "Unplanned visit to complete unscheduled assessments"], ["CDISCPILOT01", "SV", "01-703-1096", 2.0, "SCREENING 2", -1, "SCREENING", "2013-01-23", "2013-01-23", -2, -2, ""], ["CDISCPILOT01", "SV", "01-703-1096", 3.0, "BASELINE", 1, "TREATMENT", "2013-01-25", "2013-01-25", 1, 1, ""], ["CDISCPILOT01", "SV", "01-703-1096", 3.5, "AMBUL ECG PLACEMENT", 13, "TREATMENT", "2013-02-08", "2013-02-08", 15, 15, ""], ["CDISCPILOT01", "SV", "01-703-1096", 4.0, "WEEK 2", 14, "TREATMENT", "2013-02-09", "2013-02-09", 16, 16, ""], ["CDISCPILOT01", "SV", "01-703-1096", 5.0, "WEEK 4", 28, "TREATMENT", "2013-02-23", "2013-02-23", 30, 30, ""], ["CDISCPILOT01", "SV", "01-703-1096", 6.0, "AMBUL ECG REMOVAL", 30, "TREATMENT", "2013-02-27", "2013-02-27", 34, 34, ""], ["CDISCPILOT01", "SV", "01-703-1096", 7.0, "WEEK 6", 42, "TREATMENT", "2013-03-29", "2013-03-29", 64, 64, ""], ["CDISCPILOT01", "SV", "01-703-1100", 1.0, "SCREENING 1", -7, "SCREENING", "2013-02-28", "2013-02-28", -13, -13, ""], ["CDISCPILOT01", "SV", "01-703-1100", 1.1, "UNSCHEDULED 1.1", null, "", "2012-12-27", "2012-12-27", -76, -76, "Unplanned visit to complete unscheduled assessments"], ["CDISCPILOT01", "SV", "01-703-1100", 1.2, "UNSCHEDULED 1.2", null, "SCREENING", "2013-02-28", "2013-02-28", -13, -13, "Unplanned visit to complete unscheduled assessments"], ["CDISCPILOT01", "SV", "01-703-1100", 2.0, "SCREENING 2", -1, "SCREENING", "2013-03-11", "2013-03-11", -2, -2, ""], ["CDISCPILOT01", "SV", "01-703-1100", 3.0, "BASELINE", 1, "TREATMENT", "2013-03-13", "2013-03-13", 1, 1, ""], ["CDISCPILOT01", "SV", "01-703-1100", 3.5, "AMBUL ECG PLACEMENT", 13, "TREATMENT", "2013-03-28", "2013-03-28", 16, 16, ""], ["CDISCPILOT01", "SV", "01-703-1100", 4.0, "WEEK 2", 14, "TREATMENT", "2013-03-29", "2013-03-29", 17, 17, ""], ["CDISCPILOT01", "SV", "01-703-1100", 5.0, "WEEK 4", 28, "TREATMENT", "2013-04-12", "2013-04-12", 31, 31, ""], ["CDISCPILOT01", "SV", "01-703-1100", 6.0, "AMBUL ECG REMOVAL", 30, "TREATMENT", "2013-04-14", "2013-04-14", 33, 33, ""], ["CDISCPILOT01", "SV", "01-703-1100", 7.0, "WEEK 6", 42, "TREATMENT", "2013-04-24", "2013-04-24", 43, 43, ""], ["CDISCPILOT01", "SV", "01-703-1100", 8.0, "WEEK 8", 56, "TREATMENT", "2013-05-08", "2013-05-08", 57, 57, ""], ["CDISCPILOT01", "SV", "01-703-1100", 8.1, "WEEK 10 (T)", 70, "TREATMENT", "2013-05-22", "2013-05-22", 71, 71, ""], ["CDISCPILOT01", "SV", "01-703-1100", 9.0, "WEEK 12", 84, "TREATMENT", "2013-06-05", "2013-06-05", 85, 85, ""], ["CDISCPILOT01", "SV", "01-703-1100", 9.1, "WEEK 14 (T)", 98, "TREATMENT", "2013-06-19", "2013-06-19", 99, 99, ""], ["CDISCPILOT01", "SV", "01-703-1100", 10.0, "WEEK 16", 112, "TREATMENT", "2013-07-03", "2013-07-03", 113, 113, ""], ["CDISCPILOT01", "SV", "01-703-1100", 10.1, "WEEK 18 (T)", 126, "TREATMENT", "2013-07-19", "2013-07-19", 129, 129, ""], ["CDISCPILOT01", "SV", "01-703-1100", 11.0, "WEEK 20", 140, "TREATMENT", "2013-07-31", "2013-07-31", 141, 141, ""], ["CDISCPILOT01", "SV", "01-703-1100", 11.1, "WEEK 22 (T)", 154, "TREATMENT", "2013-08-09", "2013-08-09", 150, 150, ""], ["CDISCPILOT01", "SV", "01-703-1100", 12.0, "WEEK 24", 168, "TREATMENT", "2013-08-28", "2013-08-28", 169, 169, ""], ["CDISCPILOT01", "SV", "01-703-1100", 13.0, "WEEK 26", 182, "TREATMENT", "2013-09-14", "2013-09-14", 186, 186, ""], ["CDISCPILOT01", "SV", "01-703-1119", 1.0, "SCREENING 1", -7, "SCREENING", "2013-02-02", "2013-02-02", -18, -18, ""], ["CDISCPILOT01", "SV", "01-703-1119", 1.1, "UNSCHEDULED 1.1", null, "SCREENING", "2013-02-13", "2013-02-13", -7, -7, "Unplanned visit to complete unscheduled assessments"], ["CDISCPILOT01", "SV", "01-703-1119", 1.2, "UNSCHEDULED 1.2", null, "SCREENING", "2013-02-16", "2013-02-16", -4, -4, "Unplanned visit to complete unscheduled assessments"], ["CDISCPILOT01", "SV", "01-703-1119", 1.3, "UNSCHEDULED 1.3", null, "SCREENING", "2013-02-14", "2013-02-14", -6, -6, "Unplanned visit to complete unscheduled assessments"], ["CDISCPILOT01", "SV", "01-703-1119", 2.0, "SCREENING 2", -1, "SCREENING", "2013-02-14", "2013-02-14", -6, -6, ""], ["CDISCPILOT01", "SV", "01-703-1119", 3.0, "BASELINE", 1, "TREATMENT", "2013-02-20", "2013-02-20", 1, 1, ""], ["CDISCPILOT01", "SV", "01-703-1119", 3.5, "AMBUL ECG PLACEMENT", 13, "TREATMENT", "2013-03-09", "2013-03-09", 18, 18, ""], ["CDISCPILOT01", "SV", "01-703-1119", 4.0, "WEEK 2", 14, "TREATMENT", "2013-03-10", "2013-03-10", 19, 19, ""], ["CDISCPILOT01", "SV", "01-703-1119", 5.0, "WEEK 4", 28, "TREATMENT", "2013-03-21", "2013-03-21", 30, 30, ""], ["CDISCPILOT01", "SV", "01-703-1119", 6.0, "AMBUL ECG REMOVAL", 30, "TREATMENT", "2013-03-23", "2013-03-23", 32, 32, ""], ["CDISCPILOT01", "SV", "01-703-1119", 7.0, "WEEK 6", 42, "TREATMENT", "2013-04-04", "2013-04-04", 44, 44, ""], ["CDISCPILOT01", "SV", "01-703-1119", 8.0, "WEEK 8", 56, "TREATMENT", "2013-04-19", "2013-04-19", 59, 59, ""], ["CDISCPILOT01", "SV", "01-703-1119", 8.1, "WEEK 10 (T)", 70, "TREATMENT", "2013-05-03", "2013-05-03", 73, 73, ""], ["CDISCPILOT01", "SV", "01-703-1119", 9.0, "WEEK 12", 84, "TREATMENT", "2013-05-17", "2013-05-17", 87, 87, ""], ["CDISCPILOT01", "SV", "01-703-1119", 9.1, "WEEK 14 (T)", 98, "TREATMENT", "2013-05-31", "2013-05-31", 101, 101, ""], ["CDISCPILOT01", "SV", "01-703-1119", 10.0, "WEEK 16", 112, "TREATMENT", "2013-06-13", "2013-06-13", 114, 114, ""], ["CDISCPILOT01", "SV", "01-703-1119", 101.0, "AE FOLLOW-UP", null, "FOLLOW-UP", "2013-07-20", "2013-07-20", 151, 151, ""], ["CDISCPILOT01", "SV", "01-703-1119", 201.0, "RETRIEVAL", 168, "FOLLOW-UP", "2013-08-24", "2013-08-24", 186, 186, ""], ["CDISCPILOT01", "SV", "01-703-1175", 1.0, "SCREENING 1", -7, "SCREENING", "2013-12-13", "2013-12-13", -7, -7, ""], ["CDISCPILOT01", "SV", "01-703-1175", 2.0, "SCREENING 2", -1, "SCREENING", "2013-12-18", "2013-12-18", -2, -2, ""], ["CDISCPILOT01", "SV", "01-703-1175", 3.0, "BASELINE", 1, "TREATMENT", "2013-12-20", "2013-12-20", 1, 1, ""], ["CDISCPILOT01", "SV", "01-703-1175", 4.0, "WEEK 2", 14, "TREATMENT", "2013-12-31", "2013-12-31", 12, 12, ""], ["CDISCPILOT01", "SV", "01-703-1175", 101.0, "AE FOLLOW-UP", null, "TREATMENT", "2013-12-31", "2013-12-31", 12, 12, ""], ["CDISCPILOT01", "SV", "01-703-1182", 1.0, "SCREENING 1", -7, "SCREENING", "2013-10-08", "2013-10-08", -9, -9, ""], ["CDISCPILOT01", "SV", "01-703-1182", 2.0, "SCREENING 2", -1, "SCREENING", "2013-10-15", "2013-10-15", -2, -2, ""], ["CDISCPILOT01", "SV", "01-703-1182", 3.0, "BASELINE", 1, "TREATMENT", "2013-10-17", "2013-10-17", 1, 1, ""], ["CDISCPILOT01", "SV", "01-703-1182", 3.5, "AMBUL ECG PLACEMENT", 13, "TREATMENT", "2013-10-30", "2013-10-30", 14, 14, ""], ["CDISCPILOT01", "SV", "01-703-1182", 4.0, "WEEK 2", 14, "TREATMENT", "2013-10-31", "2013-10-31", 15, 15, ""], ["CDISCPILOT01", "SV", "01-703-1182", 5.0, "WEEK 4", 28, "TREATMENT", "2013-11-19", "2013-11-19", 34, 34, ""], ["CDISCPILOT01", "SV", "01-703-1182", 6.0, "AMBUL ECG REMOVAL", 30, "TREATMENT", "2013-11-20", "2013-11-20", 35, 35, ""], ["CDISCPILOT01", "SV", "01-703-1182", 7.0, "WEEK 6", 42, "TREATMENT", "2013-11-28", "2013-11-28", 43, 43, ""], ["CDISCPILOT01", "SV", "01-703-1182", 8.0, "WEEK 8", 56, "TREATMENT", "2013-12-12", "2013-12-12", 57, 57, ""], ["CDISCPILOT01", "SV", "01-703-1182", 101.0, "AE FOLLOW-UP", null, "FOLLOW-UP", "2014-01-14", "2014-01-14", 90, 90, ""], ["CDISCPILOT01", "SV", "01-703-1197", 1.0, "SCREENING 1", -7, "SCREENING", "2013-06-01", "2013-06-01", -15, -15, ""], ["CDISCPILOT01", "SV", "01-703-1197", 1.1, "UNSCHEDULED 1.1", null, "SCREENING", "2013-06-01", "2013-06-01", -15, -15, "Unplanned visit to complete unscheduled assessments"], ["CDISCPILOT01", "SV", "01-703-1197", 2.0, "SCREENING 2", -1, "SCREENING", "2013-06-14", "2013-06-14", -2, -2, ""], ["CDISCPILOT01", "SV", "01-703-1197", 3.0, "BASELINE", 1, "TREATMENT", "2013-06-16", "2013-06-16", 1, 1, ""], ["CDISCPILOT01", "SV", "01-703-1197", 4.0, "WEEK 2", 14, "TREATMENT", "2013-07-22", "2013-07-22", 37, 37, ""], ["CDISCPILOT01", "SV", "01-703-1210", 1.0, "SCREENING 1", -7, "SCREENING", "2013-03-08", "2013-03-08", -8, -8, ""], ["CDISCPILOT01", "SV", "01-703-1210", 2.0, "SCREENING 2", -1, "SCREENING", "2013-03-14", "2013-03-14", -2, -2, ""], ["CDISCPILOT01", "SV", "01-703-1210", 3.0, "BASELINE", 1, "TREATMENT", "2013-03-16", "2013-03-16", 1, 1, ""], ["CDISCPILOT01", "SV", "01-703-1210", 3.5, "AMBUL ECG PLACEMENT", 13, "TREATMENT", "2013-03-29", "2013-03-29", 14, 14, ""], ["CDISCPILOT01", "SV", "01-703-1210", 4.0, "WEEK 2", 14, "TREATMENT", "2013-03-30", "2013-03-30", 15, 15, ""], ["CDISCPILOT01", "SV", "01-703-1210", 5.0, "WEEK 4", 28, "TREATMENT", "2013-04-12", "2013-04-12", 28, 28, ""], ["CDISCPILOT01", "SV", "01-703-1210", 6.0, "AMBUL ECG REMOVAL", 30, "TREATMENT", "2013-04-14", "2013-04-14", 30, 30, ""], ["CDISCPILOT01", "SV", "01-703-1210", 7.0, "WEEK 6", 42, "TREATMENT", "2013-04-28", "2013-04-28", 44, 44, ""], ["CDISCPILOT01", "SV", "01-703-1210", 8.0, "WEEK 8", 56, "TREATMENT", "2013-05-10", "2013-05-10", 56, 56, ""], ["CDISCPILOT01", "SV", "01-703-1210", 8.1, "WEEK 10 (T)", 70, "TREATMENT", "2013-05-24", "2013-05-24", 70, 70, ""], ["CDISCPILOT01", "SV", "01-703-1210", 9.0, "WEEK 12", 84, "TREATMENT", "2013-06-07", "2013-06-07", 84, 84, ""], ["CDISCPILOT01", "SV", "01-703-1210", 9.1, "WEEK 14 (T)", 98, "TREATMENT", "2013-06-21", "2013-06-21", 98, 98, ""], ["CDISCPILOT01", "SV", "01-703-1210", 10.0, "WEEK 16", 112, "TREATMENT", "2013-07-05", "2013-07-05", 112, 112, ""], ["CDISCPILOT01", "SV", "01-703-1210", 10.1, "WEEK 18 (T)", 126, "TREATMENT", "2013-07-19", "2013-07-19", 126, 126, ""], ["CDISCPILOT01", "SV", "01-703-1210", 11.0, "WEEK 20", 140, "TREATMENT", "2013-07-27", "2013-07-27", 134, 134, ""], ["CDISCPILOT01", "SV", "01-703-1210", 11.1, "WEEK 22 (T)", 154, "TREATMENT", "2013-08-09", "2013-08-09", 147, 147, ""], ["CDISCPILOT01", "SV", "01-703-1210", 12.0, "WEEK 24", 168, "TREATMENT", "2013-08-24", "2013-08-24", 162, 162, ""], ["CDISCPILOT01", "SV", "01-703-1210", 13.0, "WEEK 26", 182, "TREATMENT", "2013-09-06", "2013-09-06", 175, 175, ""], ["CDISCPILOT01", "SV", "01-703-1258", 1.0, "SCREENING 1", -7, "SCREENING", "2012-07-10", "2012-07-10", -10, -10, ""], ["CDISCPILOT01", "SV", "01-703-1258", 2.0, "SCREENING 2", -1, "SCREENING", "2012-07-18", "2012-07-18", -2, -2, ""], ["CDISCPILOT01", "SV", "01-703-1258", 3.0, "BASELINE", 1, "TREATMENT", "2012-07-20", "2012-07-20", 1, 1, ""], ["CDISCPILOT01", "SV", "01-703-1258", 3.5, "AMBUL ECG PLACEMENT", 13, "TREATMENT", "2012-07-31", "2012-07-31", 12, 12, ""], ["CDISCPILOT01", "SV", "01-703-1258", 4.0, "WEEK 2", 14, "TREATMENT", "2012-08-01", "2012-08-01", 13, 13, ""], ["CDISCPILOT01", "SV", "01-703-1258", 5.0, "WEEK 4", 28, "TREATMENT", "2012-08-17", "2012-08-17", 29, 29, ""], ["CDISCPILOT01", "SV", "01-703-1258", 6.0, "AMBUL ECG REMOVAL", 30, "TREATMENT", "2012-08-19", "2012-08-19", 31, 31, ""], ["CDISCPILOT01", "SV", "01-703-1258", 7.0, "WEEK 6", 42, "TREATMENT", "2012-09-04", "2012-09-04", 47, 47, ""], ["CDISCPILOT01", "SV", "01-703-1258", 8.0, "WEEK 8", 56, "TREATMENT", "2012-09-14", "2012-09-14", 57, 57, ""], ["CDISCPILOT01", "SV", "01-703-1258", 8.1, "WEEK 10 (T)", 70, "TREATMENT", "2012-09-28", "2012-09-28", 71, 71, ""], ["CDISCPILOT01", "SV", "01-703-1258", 9.0, "WEEK 12", 84, "TREATMENT", "2012-10-09", "2012-10-09", 82, 82, ""], ["CDISCPILOT01", "SV", "01-703-1258", 9.1, "WEEK 14 (T)", 98, "TREATMENT", "2012-10-23", "2012-10-23", 96, 96, ""], ["CDISCPILOT01", "SV", "01-703-1258", 10.0, "WEEK 16", 112, "TREATMENT", "2012-11-05", "2012-11-05", 109, 109, ""], ["CDISCPILOT01", "SV", "01-703-1258", 10.1, "WEEK 18 (T)", 126, "TREATMENT", "2012-11-19", "2012-11-19", 123, 123, ""], ["CDISCPILOT01", "SV", "01-703-1258", 11.0, "WEEK 20", 140, "TREATMENT", "2012-12-03", "2012-12-03", 137, 137, ""], ["CDISCPILOT01", "SV", "01-703-1258", 11.1, "WEEK 22 (T)", 154, "TREATMENT", "2012-12-20", "2012-12-20", 154, 154, ""], ["CDISCPILOT01", "SV", "01-703-1258", 12.0, "WEEK 24", 168, "TREATMENT", "2012-12-31", "2012-12-31", 165, 165, ""], ["CDISCPILOT01", "SV", "01-703-1258", 13.0, "WEEK 26", 182, "TREATMENT", "2013-01-21", "2013-01-21", 186, 186, ""], ["CDISCPILOT01", "SV", "01-703-1258", 101.0, "AE FOLLOW-UP", null, "FOLLOW-UP", "2013-01-28", "2013-01-28", 193, 193, ""], ["CDISCPILOT01", "SV", "01-703-1279", 1.0, "SCREENING 1", -7, "SCREENING", "2013-04-27", "2013-04-27", -16, -16, ""], ["CDISCPILOT01", "SV", "01-703-1279", 2.0, "SCREENING 2", -1, "SCREENING", "2013-05-11", "2013-05-11", -2, -2, ""], ["CDISCPILOT01", "SV", "01-703-1279", 3.0, "BASELINE", 1, "TREATMENT", "2013-05-13", "2013-05-13", 1, 1, ""], ["CDISCPILOT01", "SV", "01-703-1279", 4.0, "WEEK 2", 14, "TREATMENT", "2013-06-22", "2013-06-22", 41, 41, ""], ["CDISCPILOT01", "SV", "01-703-1295", 1.0, "SCREENING 1", -7, "SCREENING", "2013-10-24", "2013-10-24", -28, -28, ""], ["CDISCPILOT01", "SV", "01-703-1295", 1.1, "UNSCHEDULED 1.1", null, "SCREENING", "2013-11-04", "2013-11-04", -17, -17, "Unplanned visit to complete unscheduled assessments"], ["CDISCPILOT01", "SV", "01-703-1295", 2.0, "SCREENING 2", -1, "SCREENING", "2013-11-19", "2013-11-19", -2, -2, ""], ["CDISCPILOT01", "SV", "01-703-1295", 3.0, "BASELINE", 1, "TREATMENT", "2013-11-21", "2013-11-21", 1, 1, ""], ["CDISCPILOT01", "SV", "01-703-1295", 3.5, "AMBUL ECG PLACEMENT", 13, "TREATMENT", "2013-12-04", "2013-12-04", 14, 14, ""], ["CDISCPILOT01", "SV", "01-703-1295", 4.0, "WEEK 2", 14, "TREATMENT", "2013-12-05", "2013-12-05", 15, 15, ""], ["CDISCPILOT01", "SV", "01-703-1295", 5.0, "WEEK 4", 28, "TREATMENT", "2013-12-18", "2013-12-18", 28, 28, ""], ["CDISCPILOT01", "SV", "01-703-1295", 6.0, "AMBUL ECG REMOVAL", 30, "TREATMENT", "2013-12-20", "2013-12-20", 30, 30, ""], ["CDISCPILOT01", "SV", "01-703-1295", 7.0, "WEEK 6", 42, "TREATMENT", "2014-01-01", "2014-01-01", 42, 42, ""], ["CDISCPILOT01", "SV", "01-703-1295", 8.0, "WEEK 8", 56, "TREATMENT", "2014-01-15", "2014-01-15", 56, 56, ""], ["CDISCPILOT01", "SV", "01-703-1295", 8.1, "WEEK 10 (T)", 70, "TREATMENT", "2014-01-29", "2014-01-29", 70, 70, ""], ["CDISCPILOT01", "SV", "01-703-1295", 9.0, "WEEK 12", 84, "TREATMENT", "2014-02-18", "2014-02-18", 90, 90, ""], ["CDISCPILOT01", "SV", "01-703-1295", 9.1, "WEEK 14 (T)", 98, "TREATMENT", "2014-03-04", "2014-03-04", 104, 104, ""], ["CDISCPILOT01", "SV", "01-703-1295", 10.0, "WEEK 16", 112, "TREATMENT", "2014-03-13", "2014-03-13", 113, 113, ""], ["CDISCPILOT01", "SV", "01-703-1295", 11.0, "WEEK 20", 140, "TREATMENT", "2014-05-19", "2014-05-19", 180, 180, ""], ["CDISCPILOT01", "SV", "01-703-1299", 1.0, "SCREENING 1", -7, "SCREENING", "2012-09-07", "2012-09-07", -5, -5, ""], ["CDISCPILOT01", "SV", "01-703-1299", 2.0, "SCREENING 2", -1, "SCREENING", "2012-09-10", "2012-09-10", -2, -2, ""], ["CDISCPILOT01", "SV", "01-703-1299", 3.0, "BASELINE", 1, "TREATMENT", "2012-09-12", "2012-09-12", 1, 1, ""], ["CDISCPILOT01", "SV", "01-703-1299", 3.5, "AMBUL ECG PLACEMENT", 13, "TREATMENT", "2012-09-27", "2012-09-27", 16, 16, ""], ["CDISCPILOT01", "SV", "01-703-1299", 4.0, "WEEK 2", 14, "TREATMENT", "2012-09-28", "2012-09-28", 17, 17, ""], ["CDISCPILOT01", "SV", "01-703-1299", 5.0, "WEEK 4", 28, "TREATMENT", "2012-10-10", "2012-10-10", 29, 29, ""], ["CDISCPILOT01", "SV", "01-703-1299", 6.0, "AMBUL ECG REMOVAL", 30, "TREATMENT", "2012-10-12", "2012-10-12", 31, 31, ""], ["CDISCPILOT01", "SV", "01-703-1299", 7.0, "WEEK 6", 42, "TREATMENT", "2012-10-24", "2012-10-24", 43, 43, ""], ["CDISCPILOT01", "SV", "01-703-1299", 8.0, "WEEK 8", 56, "TREATMENT", "2012-11-07", "2012-11-07", 57, 57, ""], ["CDISCPILOT01", "SV", "01-703-1299", 8.1, "WEEK 10 (T)", 70, "TREATMENT", "2012-11-21", "2012-11-21", 71, 71, ""], ["CDISCPILOT01", "SV", "01-703-1299", 9.0, "WEEK 12", 84, "TREATMENT", "2012-12-05", "2012-12-05", 85, 85, ""], ["CDISCPILOT01", "SV", "01-703-1299", 9.1, "WEEK 14 (T)", 98, "TREATMENT", "2012-12-19", "2012-12-19", 99, 99, ""], ["CDISCPILOT01", "SV", "01-703-1299", 10.0, "WEEK 16", 112, "TREATMENT", "2013-01-02", "2013-01-02", 113, 113, ""], ["CDISCPILOT01", "SV", "01-703-1299", 10.1, "WEEK 18 (T)", 126, "TREATMENT", "2013-01-16", "2013-01-16", 127, 127, ""], ["CDISCPILOT01", "SV", "01-703-1299", 11.0, "WEEK 20", 140, "TREATMENT", "2013-01-30", "2013-01-30", 141, 141, ""], ["CDISCPILOT01", "SV", "01-703-1299", 11.1, "WEEK 22 (T)", 154, "TREATMENT", "2013-02-13", "2013-02-13", 155, 155, ""], ["CDISCPILOT01", "SV", "01-703-1299", 12.0, "WEEK 24", 168, "TREATMENT", "2013-03-01", "2013-03-01", 171, 171, ""], ["CDISCPILOT01", "SV", "01-703-1299", 13.0, "WEEK 26", 182, "TREATMENT", "2013-03-13", "2013-03-13", 183, 183, ""], ["CDISCPILOT01", "SV", "01-703-1299", 13.1, "UNSCHEDULED 13.1", null, "TREATMENT", "2013-03-27", "2013-03-27", 197, 197, "Unplanned visit to complete unscheduled assessments"], ["CDISCPILOT01", "SV", "01-703-1335", 1.0, "SCREENING 1", -7, "SCREENING", "2014-02-28", "2014-02-28", -17, -17, ""], ["CDISCPILOT01", "SV", "01-703-1335", 1.1, "UNSCHEDULED 1.1", null, "", "2014-02-21", "2014-02-21", -24, -24, "Unplanned visit to complete unscheduled assessments"], ["CDISCPILOT01", "SV", "01-703-1335", 2.0, "SCREENING 2", -1, "SCREENING", "2014-03-15", "2014-03-15", -2, -2, ""], ["CDISCPILOT01", "SV", "01-703-1335", 3.0, "BASELINE", 1, "TREATMENT", "2014-03-17", "2014-03-17", 1, 1, ""], ["CDISCPILOT01", "SV", "01-703-1335", 3.5, "AMBUL ECG PLACEMENT", 13, "TREATMENT", "2014-03-30", "2014-03-30", 14, 14, ""], ["CDISCPILOT01", "SV", "01-703-1335", 4.0, "WEEK 2", 14, "TREATMENT", "2014-03-31", "2014-03-31", 15, 15, ""], ["CDISCPILOT01", "SV", "01-703-1335", 5.0, "WEEK 4", 28, "TREATMENT", "2014-04-13", "2014-04-13", 28, 28, ""], ["CDISCPILOT01", "SV", "01-703-1335", 6.0, "AMBUL ECG REMOVAL", 30, "TREATMENT", "2014-04-15", "2014-04-15", 30, 30, ""], ["CDISCPILOT01", "SV", "01-703-1335", 7.0, "WEEK 6", 42, "TREATMENT", "2014-05-24", "2014-05-24", 69, 69, ""], ["CDISCPILOT01", "SV", "01-703-1379", 1.0, "SCREENING 1", -7, "SCREENING", "2013-09-12", "2013-09-12", -10, -10, ""], ["CDISCPILOT01", "SV", "01-703-1379", 2.0, "SCREENING 2", -1, "SCREENING", "2013-09-20", "2013-09-20", -2, -2, ""], ["CDISCPILOT01", "SV", "01-703-1379", 3.0, "BASELINE", 1, "TREATMENT", "2013-09-22", "2013-09-22", 1, 1, ""], ["CDISCPILOT01", "SV", "01-703-1379", 3.5, "AMBUL ECG PLACEMENT", 13, "TREATMENT", "2013-10-06", "2013-10-06", 15, 15, ""], ["CDISCPILOT01", "SV", "01-703-1379", 4.0, "WEEK 2", 14, "TREATMENT", "2013-10-07", "2013-10-07", 16, 16, ""], ["CDISCPILOT01", "SV", "01-703-1379", 5.0, "WEEK 4", 28, "TREATMENT", "2013-10-19", "2013-10-19", 28, 28, ""], ["CDISCPILOT01", "SV", "01-703-1379", 6.0, "AMBUL ECG REMOVAL", 30, "TREATMENT", "2013-10-21", "2013-10-21", 30, 30, ""], ["CDISCPILOT01", "SV", "01-703-1379", 7.0, "WEEK 6", 42, "TREATMENT", "2013-11-08", "2013-11-08", 48, 48, ""], ["CDISCPILOT01", "SV", "01-703-1379", 8.0, "WEEK 8", 56, "TREATMENT", "2013-11-17", "2013-11-17", 57, 57, ""], ["CDISCPILOT01", "SV", "01-703-1379", 8.1, "WEEK 10 (T)", 70, "TREATMENT", "2013-12-01", "2013-12-01", 71, 71, ""], ["CDISCPILOT01", "SV", "01-703-1379", 9.0, "WEEK 12", 84, "TREATMENT", "2013-12-15", "2013-12-15", 85, 85, ""], ["CDISCPILOT01", "SV", "01-703-1379", 9.1, "WEEK 14 (T)", 98, "TREATMENT", "2013-12-29", "2013-12-29", 99, 99, ""], ["CDISCPILOT01", "SV", "01-703-1379", 10.0, "WEEK 16", 112, "TREATMENT", "2014-01-11", "2014-01-11", 112, 112, ""], ["CDISCPILOT01", "SV", "01-703-1379", 10.1, "WEEK 18 (T)", 126, "TREATMENT", "2014-01-25", "2014-01-25", 126, 126, ""], ["CDISCPILOT01", "SV", "01-703-1379", 11.0, "WEEK 20", 140, "TREATMENT", "2014-02-09", "2014-02-09", 141, 141, ""], ["CDISCPILOT01", "SV", "01-703-1379", 11.1, "WEEK 22 (T)", 154, "TREATMENT", "2014-02-23", "2014-02-23", 155, 155, ""], ["CDISCPILOT01", "SV", "01-703-1379", 11.2, "UNSCHEDULED 11.2", null, "TREATMENT", "2014-02-23", "2014-02-23", 155, 155, "Unplanned visit to complete unscheduled assessments"], ["CDISCPILOT01", "SV", "01-703-1379", 12.0, "WEEK 24", 168, "TREATMENT", "2014-03-08", "2014-03-08", 168, 168, ""], ["CDISCPILOT01", "SV", "01-703-1379", 13.0, "WEEK 26", 182, "TREATMENT", "2014-03-21", "2014-03-21", 181, 181, ""], ["CDISCPILOT01", "SV", "01-703-1396", 1.0, "SCREENING 1", -7, "SCREENING", "2014-02-09", "2014-02-09", null, null, ""], ["CDISCPILOT01", "SV", "01-703-1403", 1.0, "SCREENING 1", -7, "SCREENING", "2012-12-05", "2012-12-05", -7, -7, ""], ["CDISCPILOT01", "SV", "01-703-1403", 2.0, "SCREENING 2", -1, "SCREENING", "2012-12-10", "2012-12-10", -2, -2, ""], ["CDISCPILOT01", "SV", "01-703-1403", 3.0, "BASELINE", 1, "TREATMENT", "2012-12-12", "2012-12-12", 1, 1, ""], ["CDISCPILOT01", "SV", "01-703-1403", 4.0, "WEEK 2", 14, "TREATMENT", "2012-12-19", "2012-12-19", 8, 8, ""], ["CDISCPILOT01", "SV", "01-703-1403", 101.0, "AE FOLLOW-UP", null, "FOLLOW-UP", "2013-01-08", "2013-01-08", 28, 28, ""], ["CDISCPILOT01", "SV", "01-703-1439", 1.0, "SCREENING 1", -7, "SCREENING", "2014-03-04", "2014-03-04", -8, -8, ""], ["CDISCPILOT01", "SV", "01-703-1439", 2.0, "SCREENING 2", -1, "SCREENING", "2014-03-10", "2014-03-10", -2, -2, ""], ["CDISCPILOT01", "SV", "01-703-1439", 3.0, "BASELINE", 1, "TREATMENT", "2014-03-12", "2014-03-12", 1, 1, ""], ["CDISCPILOT01", "SV", "01-703-1439", 3.5, "AMBUL ECG PLACEMENT", 13, "TREATMENT", "2014-03-25", "2014-03-25", 14, 14, ""], ["CDISCPILOT01", "SV", "01-703-1439", 4.0, "WEEK 2", 14, "TREATMENT", "2014-03-26", "2014-03-26", 15, 15, ""], ["CDISCPILOT01", "SV", "01-703-1439", 5.0, "WEEK 4", 28, "TREATMENT", "2014-04-08", "2014-04-08", 28, 28, ""], ["CDISCPILOT01", "SV", "01-703-1439", 6.0, "AMBUL ECG REMOVAL", 30, "TREATMENT", "2014-04-10", "2014-04-10", 30, 30, ""], ["CDISCPILOT01", "SV", "01-703-1439", 7.0, "WEEK 6", 42, "TREATMENT", "2014-04-21", "2014-04-21", 41, 41, ""], ["CDISCPILOT01", "SV", "01-703-1439", 8.0, "WEEK 8", 56, "TREATMENT", "2014-05-05", "2014-05-05", 55, 55, ""], ["CDISCPILOT01", "SV", "01-703-1439", 8.1, "WEEK 10 (T)", 70, "TREATMENT", "2014-05-19", "2014-05-19", 69, 69, ""], ["CDISCPILOT01", "SV", "01-703-1439", 9.0, "WEEK 12", 84, "TREATMENT", "2014-06-02", "2014-06-02", 83, 83, ""], ["CDISCPILOT01", "SV", "01-703-1439", 9.1, "WEEK 14 (T)", 98, "TREATMENT", "2014-06-16", "2014-06-16", 97, 97, ""], ["CDISCPILOT01", "SV", "01-703-1439", 10.0, "WEEK 16", 112, "TREATMENT", "2014-06-30", "2014-06-30", 111, 111, ""], ["CDISCPILOT01", "SV", "01-703-1439", 10.1, "WEEK 18 (T)", 126, "TREATMENT", "2014-07-16", "2014-07-16", 127, 127, ""], ["CDISCPILOT01", "SV", "01-703-1439", 11.0, "WEEK 20", 140, "TREATMENT", "2014-07-29", "2014-07-29", 140, 140, ""], ["CDISCPILOT01", "SV", "01-703-1439", 11.1, "WEEK 22 (T)", 154, "TREATMENT", "2014-08-06", "2014-08-06", 148, 148, ""], ["CDISCPILOT01", "SV", "01-703-1439", 12.0, "WEEK 24", 168, "TREATMENT", "2014-08-28", "2014-08-28", 170, 170, ""], ["CDISCPILOT01", "SV", "01-703-1439", 13.0, "WEEK 26", 182, "TREATMENT", "2014-09-11", "2014-09-11", 184, 184, ""], ["CDISCPILOT01", "SV", "01-704-1008", 1.0, "SCREENING 1", -7, "SCREENING", "2013-01-06", "2013-01-06", -7, -7, ""], ["CDISCPILOT01", "SV", "01-704-1008", 1.1, "UNSCHEDULED 1.1", null, "SCREENING", "2013-01-06", "2013-01-06", -7, -7, "Unplanned visit to complete unscheduled assessments"], ["CDISCPILOT01", "SV", "01-704-1008", 2.0, "SCREENING 2", -1, "SCREENING", "2013-01-11", "2013-01-11", -2, -2, ""], ["CDISCPILOT01", "SV", "01-704-1008", 3.0, "BASELINE", 1, "TREATMENT", "2013-01-13", "2013-01-13", 1, 1, ""], ["CDISCPILOT01", "SV", "01-704-1008", 3.5, "AMBUL ECG PLACEMENT", 13, "TREATMENT", "2013-01-27", "2013-01-27", 15, 15, ""], ["CDISCPILOT01", "SV", "01-704-1008", 4.0, "WEEK 2", 14, "TREATMENT", "2013-01-28", "2013-01-28", 16, 16, ""], ["CDISCPILOT01", "SV", "01-704-1008", 5.0, "WEEK 4", 28, "TREATMENT", "2013-02-09", "2013-02-09", 28, 28, ""], ["CDISCPILOT01", "SV", "01-704-1008", 6.0, "AMBUL ECG REMOVAL", 30, "TREATMENT", "2013-02-11", "2013-02-11", 30, 30, ""], ["CDISCPILOT01", "SV", "01-704-1008", 7.0, "WEEK 6", 42, "TREATMENT", "2013-02-25", "2013-02-25", 44, 44, ""], ["CDISCPILOT01", "SV", "01-704-1009", 1.0, "SCREENING 1", -7, "SCREENING", "2013-08-20", "2013-08-20", -7, -7, ""], ["CDISCPILOT01", "SV", "01-704-1009", 2.0, "SCREENING 2", -1, "SCREENING", "2013-08-24", "2013-08-24", -3, -3, ""], ["CDISCPILOT01", "SV", "01-704-1009", 3.0, "BASELINE", 1, "TREATMENT", "2013-08-27", "2013-08-27", 1, 1, ""], ["CDISCPILOT01", "SV", "01-704-1009", 3.5, "AMBUL ECG PLACEMENT", 13, "TREATMENT", "2013-09-13", "2013-09-13", 18, 18, ""], ["CDISCPILOT01", "SV", "01-704-1009", 4.0, "WEEK 2", 14, "TREATMENT", "2013-09-14", "2013-09-14", 19, 19, ""], ["CDISCPILOT01", "SV", "01-704-1009", 5.0, "WEEK 4", 28, "TREATMENT", "2013-10-02", "2013-10-02", 37, 37, ""], ["CDISCPILOT01", "SV", "01-704-1010", 1.0, "SCREENING 1", -7, "SCREENING", "2014-02-08", "2014-02-08", -13, -13, ""], ["CDISCPILOT01", "SV", "01-704-1010", 2.0, "SCREENING 2", -1, "SCREENING", "2014-02-19", "2014-02-19", -2, -2, ""], ["CDISCPILOT01", "SV", "01-704-1010", 3.0, "BASELINE", 1, "TREATMENT", "2014-02-21", "2014-02-21", 1, 1, ""], ["CDISCPILOT01", "SV", "01-704-1010", 3.5, "AMBUL ECG PLACEMENT", 13, "TREATMENT", "2014-03-07", "2014-03-07", 15, 15, ""], ["CDISCPILOT01", "SV", "01-704-1010", 4.0, "WEEK 2", 14, "TREATMENT", "2014-03-08", "2014-03-08", 16, 16, ""], ["CDISCPILOT01", "SV", "01-704-1010", 5.0, "WEEK 4", 28, "TREATMENT", "2014-03-23", "2014-03-23", 31, 31, ""], ["CDISCPILOT01", "SV", "01-704-1010", 6.0, "AMBUL ECG REMOVAL", 30, "TREATMENT", "2014-03-26", "2014-03-26", 34, 34, ""], ["CDISCPILOT01", "SV", "01-704-1010", 7.0, "WEEK 6", 42, "TREATMENT", "2014-04-11", "2014-04-11", 50, 50, ""], ["CDISCPILOT01", "SV", "01-704-1010", 8.0, "WEEK 8", 56, "TREATMENT", "2014-04-24", "2014-04-24", 63, 63, ""], ["CDISCPILOT01", "SV", "01-704-1010", 8.1, "WEEK 10 (T)", 70, "TREATMENT", "2014-05-08", "2014-05-08", 77, 77, ""], ["CDISCPILOT01", "SV", "01-704-1010", 9.0, "WEEK 12", 84, "TREATMENT", "2014-05-16", "2014-05-16", 85, 85, ""], ["CDISCPILOT01", "SV", "01-704-1010", 9.1, "WEEK 14 (T)", 98, "TREATMENT", "2014-05-30", "2014-05-30", 99, 99, ""], ["CDISCPILOT01", "SV", "01-704-1010", 9.2, "UNSCHEDULED 9.2", null, "TREATMENT", "2014-05-30", "2014-05-30", 99, 99, "Unplanned visit to complete unscheduled assessments"], ["CDISCPILOT01", "SV", "01-704-1010", 10.0, "WEEK 16", 112, "TREATMENT", "2014-06-13", "2014-06-13", 113, 113, ""], ["CDISCPILOT01", "SV", "01-704-1010", 10.1, "WEEK 18 (T)", 126, "TREATMENT", "2014-06-27", "2014-06-27", 127, 127, ""], ["CDISCPILOT01", "SV", "01-704-1010", 11.0, "WEEK 20", 140, "TREATMENT", "2014-07-09", "2014-07-09", 139, 139, ""], ["CDISCPILOT01", "SV", "01-704-1017", 1.0, "SCREENING 1", -7, "SCREENING", "2013-09-20", "2013-09-20", -16, -16, ""], ["CDISCPILOT01", "SV", "01-704-1017", 2.0, "SCREENING 2", -1, "SCREENING", "2013-09-27", "2013-09-27", -9, -9, ""], ["CDISCPILOT01", "SV", "01-704-1017", 3.0, "BASELINE", 1, "TREATMENT", "2013-10-06", "2013-10-06", 1, 1, ""], ["CDISCPILOT01", "SV", "01-704-1017", 3.5, "AMBUL ECG PLACEMENT", 13, "TREATMENT", "2013-10-18", "2013-10-18", 13, 13, ""], ["CDISCPILOT01", "SV", "01-704-1017", 4.0, "WEEK 2", 14, "TREATMENT", "2013-10-19", "2013-10-19", 14, 14, ""], ["CDISCPILOT01", "SV", "01-704-1017", 5.0, "WEEK 4", 28, "TREATMENT", "2013-11-09", "2013-11-09", 35, 35, ""], ["CDISCPILOT01", "SV", "01-704-1017", 6.0, "AMBUL ECG REMOVAL", 30, "TREATMENT", "2013-11-11", "2013-11-11", 37, 37, ""], ["CDISCPILOT01", "SV", "01-704-1017", 7.0, "WEEK 6", 42, "TREATMENT", "2013-11-24", "2013-11-24", 50, 50, ""], ["CDISCPILOT01", "SV", "01-704-1017", 101.0, "AE FOLLOW-UP", null, "FOLLOW-UP", "2013-12-06", "2013-12-06", 62, 62, ""], ["CDISCPILOT01", "SV", "01-704-1025", 1.0, "SCREENING 1", -7, "SCREENING", "2013-09-18", "2013-09-18", -9, -9, ""], ["CDISCPILOT01", "SV", "01-704-1025", 2.0, "SCREENING 2", -1, "SCREENING", "2013-09-25", "2013-09-25", -2, -2, ""], ["CDISCPILOT01", "SV", "01-704-1025", 3.0, "BASELINE", 1, "TREATMENT", "2013-09-27", "2013-09-27", 1, 1, ""], ["CDISCPILOT01", "SV", "01-704-1025", 3.5, "AMBUL ECG PLACEMENT", 13, "TREATMENT", "2013-10-10", "2013-10-10", 14, 14, ""], ["CDISCPILOT01", "SV", "01-704-1025", 4.0, "WEEK 2", 14, "TREATMENT", "2013-10-11", "2013-10-11", 15, 15, ""], ["CDISCPILOT01", "SV", "01-704-1025", 5.0, "WEEK 4", 28, "TREATMENT", "2013-10-25", "2013-10-25", 29, 29, ""], ["CDISCPILOT01", "SV", "01-704-1025", 5.1, "UNSCHEDULED 5.1", null, "TREATMENT", "2013-10-28", "2013-10-28", 32, 32, "Unplanned visit to complete unscheduled assessments"], ["CDISCPILOT01", "SV", "01-704-1025", 6.0, "AMBUL ECG REMOVAL", 30, "TREATMENT", "2013-11-29", "2013-11-29", 64, 64, ""], ["CDISCPILOT01", "SV", "01-704-1065", 1.0, "SCREENING 1", -7, "SCREENING", "2013-10-17", "2013-10-17", -7, -7, ""], ["CDISCPILOT01", "SV", "01-704-1065", 2.0, "SCREENING 2", -1, "SCREENING", "2013-10-22", "2013-10-22", -2, -2, ""], ["CDISCPILOT01", "SV", "01-704-1065", 3.0, "BASELINE", 1, "TREATMENT", "2013-10-24", "2013-10-24", 1, 1, ""], ["CDISCPILOT01", "SV", "01-704-1065", 3.5, "AMBUL ECG PLACEMENT", 13, "TREATMENT", "2013-11-06", "2013-11-06", 14, 14, ""], ["CDISCPILOT01", "SV", "01-704-1065", 4.0, "WEEK 2", 14, "TREATMENT", "2013-11-07", "2013-11-07", 15, 15, ""], ["CDISCPILOT01", "SV", "01-704-1065", 5.0, "WEEK 4", 28, "TREATMENT", "2013-11-25", "2013-11-25", 33, 33, ""], ["CDISCPILOT01", "SV", "01-704-1065", 6.0, "AMBUL ECG REMOVAL", 30, "TREATMENT", "2013-11-27", "2013-11-27", 35, 35, ""], ["CDISCPILOT01", "SV", "01-704-1065", 7.0, "WEEK 6", 42, "TREATMENT", "2013-12-06", "2013-12-06", 44, 44, ""], ["CDISCPILOT01", "SV", "01-704-1065", 8.0, "WEEK 8", 56, "TREATMENT", "2013-12-20", "2013-12-20", 58, 58, ""], ["CDISCPILOT01", "SV", "01-704-1065", 9.0, "WEEK 12", 84, "TREATMENT", "2013-12-24", "2013-12-24", 62, 62, ""], ["CDISCPILOT01", "SV", "01-704-1065", 101.0, "AE FOLLOW-UP", null, "FOLLOW-UP", "2014-02-17", "2014-02-17", 117, 117, ""], ["CDISCPILOT01", "SV", "01-704-1074", 1.0, "SCREENING 1", -7, "SCREENING", "2014-01-19", "2014-01-19", -3, -3, ""], ["CDISCPILOT01", "SV", "01-704-1074", 2.0, "SCREENING 2", -1, "SCREENING", "2014-01-20", "2014-01-20", -2, -2, ""], ["CDISCPILOT01", "SV", "01-704-1074", 3.0, "BASELINE", 1, "TREATMENT", "2014-01-22", "2014-01-22", 1, 1, ""], ["CDISCPILOT01", "SV", "01-704-1074", 3.5, "AMBUL ECG PLACEMENT", 13, "TREATMENT", "2014-02-08", "2014-02-08", 18, 18, ""], ["CDISCPILOT01", "SV", "01-704-1074", 4.0, "WEEK 2", 14, "TREATMENT", "2014-02-09", "2014-02-09", 19, 19, ""], ["CDISCPILOT01", "SV", "01-704-1074", 5.0, "WEEK 4", 28, "TREATMENT", "2014-02-22", "2014-02-22", 32, 32, ""], ["CDISCPILOT01", "SV", "01-704-1074", 6.0, "AMBUL ECG REMOVAL", 30, "TREATMENT", "2014-02-24", "2014-02-24", 34, 34, ""], ["CDISCPILOT01", "SV", "01-704-1074", 7.0, "WEEK 6", 42, "TREATMENT", "2014-03-09", "2014-03-09", 47, 47, ""], ["CDISCPILOT01", "SV", "01-704-1074", 8.0, "WEEK 8", 56, "TREATMENT", "2014-03-31", "2014-03-31", 69, 69, ""], ["CDISCPILOT01", "SV", "01-704-1093", 1.0, "SCREENING 1", -7, "SCREENING", "2013-02-22", "2013-02-22", -21, -21, ""], ["CDISCPILOT01", "SV", "01-704-1093", 1.1, "UNSCHEDULED 1.1", null, "SCREENING", "2013-02-22", "2013-02-22", -21, -21, "Unplanned visit to complete unscheduled assessments"], ["CDISCPILOT01", "SV", "01-704-1093", 1.2, "UNSCHEDULED 1.2", null, "SCREENING", "2013-03-02", "2013-03-02", -13, -13, "Unplanned visit to complete unscheduled assessments"], ["CDISCPILOT01", "SV", "01-704-1093", 2.0, "SCREENING 2", -1, "SCREENING", "2013-03-13", "2013-03-13", -2, -2, ""], ["CDISCPILOT01", "SV", "01-704-1093", 3.0, "BASELINE", 1, "TREATMENT", "2013-03-15", "2013-03-15", 1, 1, ""], ["CDISCPILOT01", "SV", "01-704-1093", 3.5, "AMBUL ECG PLACEMENT", 13, "TREATMENT", "2013-03-29", "2013-03-29", 15, 15, ""], ["CDISCPILOT01", "SV", "01-704-1093", 4.0, "WEEK 2", 14, "TREATMENT", "2013-03-30", "2013-03-30", 16, 16, ""], ["CDISCPILOT01", "SV", "01-704-1093", 5.0, "WEEK 4", 28, "TREATMENT", "2013-04-12", "2013-04-12", 29, 29, ""], ["CDISCPILOT01", "SV", "01-704-1093", 6.0, "AMBUL ECG REMOVAL", 30, "TREATMENT", "2013-04-17", "2013-04-17", 34, 34, ""], ["CDISCPILOT01", "SV", "01-704-1093", 7.0, "WEEK 6", 42, "TREATMENT", "2013-04-25", "2013-04-25", 42, 42, ""], ["CDISCPILOT01", "SV", "01-704-1093", 8.0, "WEEK 8", 56, "TREATMENT", "2013-05-11", "2013-05-11", 58, 58, ""], ["CDISCPILOT01", "SV", "01-704-1093", 8.1, "WEEK 10 (T)", 70, "TREATMENT", "2013-05-23", "2013-05-23", 70, 70, ""], ["CDISCPILOT01", "SV", "01-704-1093", 9.0, "WEEK 12", 84, "TREATMENT", "2013-06-07", "2013-06-07", 85, 85, ""], ["CDISCPILOT01", "SV", "01-704-1093", 10.0, "WEEK 16", 112, "TREATMENT", "2013-06-20", "2013-06-20", 98, 98, ""], ["CDISCPILOT01", "SV", "01-704-1093", 101.0, "AE FOLLOW-UP", null, "FOLLOW-UP", "2013-07-26", "2013-07-26", 134, 134, ""], ["CDISCPILOT01", "SV", "01-704-1093", 201.0, "RETRIEVAL", 168, "FOLLOW-UP", "2013-12-25", "2013-12-25", 286, 286, ""], ["CDISCPILOT01", "SV", "01-704-1114", 1.0, "SCREENING 1", -7, "SCREENING", "2013-01-09", "2013-01-09", -14, -14, ""], ["CDISCPILOT01", "SV", "01-704-1114", 2.0, "SCREENING 2", -1, "SCREENING", "2013-01-21", "2013-01-21", -2, -2, ""], ["CDISCPILOT01", "SV", "01-704-1114", 3.0, "BASELINE", 1, "TREATMENT", "2013-01-23", "2013-01-23", 1, 1, ""], ["CDISCPILOT01", "SV", "01-704-1114", 3.5, "AMBUL ECG PLACEMENT", 13, "TREATMENT", "2013-02-02", "2013-02-02", 11, 11, ""], ["CDISCPILOT01", "SV", "01-704-1114", 4.0, "WEEK 2", 14, "TREATMENT", "2013-02-03", "2013-02-03", 12, 12, ""], ["CDISCPILOT01", "SV", "01-704-1114", 5.0, "WEEK 4", 28, "TREATMENT", "2013-02-18", "2013-02-18", 27, 27, ""], ["CDISCPILOT01", "SV", "01-704-1114", 6.0, "AMBUL ECG REMOVAL", 30, "TREATMENT", "2013-02-20", "2013-02-20", 29, 29, ""], ["CDISCPILOT01", "SV", "01-704-1114", 7.0, "WEEK 6", 42, "TREATMENT", "2013-03-13", "2013-03-13", 50, 50, ""], ["CDISCPILOT01", "SV", "01-704-1114", 8.0, "WEEK 8", 56, "TREATMENT", "2013-03-26", "2013-03-26", 63, 63, ""], ["CDISCPILOT01", "SV", "01-704-1114", 8.1, "WEEK 10 (T)", 70, "TREATMENT", "2013-04-03", "2013-04-03", 71, 71, ""], ["CDISCPILOT01", "SV", "01-704-1114", 9.0, "WEEK 12", 84, "TREATMENT", "2013-04-17", "2013-04-17", 85, 85, ""], ["CDISCPILOT01", "SV", "01-704-1114", 9.1, "WEEK 14 (T)", 98, "TREATMENT", "2013-04-29", "2013-04-29", 97, 97, ""], ["CDISCPILOT01", "SV", "01-704-1114", 10.0, "WEEK 16", 112, "TREATMENT", "2013-05-14", "2013-05-14", 112, 112, ""], ["CDISCPILOT01", "SV", "01-704-1114", 10.1, "WEEK 18 (T)", 126, "TREATMENT", "2013-05-28", "2013-05-28", 126, 126, ""], ["CDISCPILOT01", "SV", "01-704-1114", 11.0, "WEEK 20", 140, "TREATMENT", "2013-06-16", "2013-06-16", 145, 145, ""], ["CDISCPILOT01", "SV", "01-704-1114", 12.0, "WEEK 24", 168, "TREATMENT", "2013-07-08", "2013-07-08", 167, 167, ""], ["CDISCPILOT01", "SV", "01-704-1120", 1.0, "SCREENING 1", -7, "SCREENING", "2013-11-18", "2013-11-18", -14, -14, ""], ["CDISCPILOT01", "SV", "01-704-1120", 2.0, "SCREENING 2", -1, "SCREENING", "2013-11-30", "2013-11-30", -2, -2, ""], ["CDISCPILOT01", "SV", "01-704-1120", 3.0, "BASELINE", 1, "TREATMENT", "2013-12-02", "2013-12-02", 1, 1, ""], ["CDISCPILOT01", "SV", "01-704-1120", 3.5, "AMBUL ECG PLACEMENT", 13, "TREATMENT", "2013-12-14", "2013-12-14", 13, 13, ""], ["CDISCPILOT01", "SV", "01-704-1120", 4.0, "WEEK 2", 14, "TREATMENT", "2013-12-15", "2013-12-15", 14, 14, ""], ["CDISCPILOT01", "SV", "01-704-1120", 5.0, "WEEK 4", 28, "TREATMENT", "2013-12-29", "2013-12-29", 28, 28, ""], ["CDISCPILOT01", "SV", "01-704-1120", 6.0, "AMBUL ECG REMOVAL", 30, "TREATMENT", "2013-12-31", "2013-12-31", 30, 30, ""], ["CDISCPILOT01", "SV", "01-704-1120", 7.0, "WEEK 6", 42, "TREATMENT", "2014-01-13", "2014-01-13", 43, 43, ""], ["CDISCPILOT01", "SV", "01-704-1120", 8.0, "WEEK 8", 56, "TREATMENT", "2014-01-27", "2014-01-27", 57, 57, ""], ["CDISCPILOT01", "SV", "01-704-1120", 9.0, "WEEK 12", 84, "TREATMENT", "2014-02-03", "2014-02-03", 64, 64, ""], ["CDISCPILOT01", "SV", "01-704-1120", 101.0, "AE FOLLOW-UP", null, "FOLLOW-UP", "2014-03-10", "2014-03-10", 99, 99, ""], ["CDISCPILOT01", "SV", "01-704-1127", 1.0, "SCREENING 1", -7, "SCREENING", "2013-09-16", "2013-09-16", -16, -16, ""], ["CDISCPILOT01", "SV", "01-704-1127", 2.0, "SCREENING 2", -1, "SCREENING", "2013-09-30", "2013-09-30", -2, -2, ""], ["CDISCPILOT01", "SV", "01-704-1127", 3.0, "BASELINE", 1, "TREATMENT", "2013-10-02", "2013-10-02", 1, 1, ""], ["CDISCPILOT01", "SV", "01-704-1127", 3.5, "AMBUL ECG PLACEMENT", 13, "TREATMENT", "2013-10-15", "2013-10-15", 14, 14, ""], ["CDISCPILOT01", "SV", "01-704-1127", 4.0, "WEEK 2", 14, "TREATMENT", "2013-10-16", "2013-10-16", 15, 15, ""], ["CDISCPILOT01", "SV", "01-704-1127", 5.0, "WEEK 4", 28, "TREATMENT", "2013-10-30", "2013-10-30", 29, 29, ""], ["CDISCPILOT01", "SV", "01-704-1127", 6.0, "AMBUL ECG REMOVAL", 30, "TREATMENT", "2013-11-03", "2013-11-03", 33, 33, ""], ["CDISCPILOT01", "SV", "01-704-1127", 7.0, "WEEK 6", 42, "TREATMENT", "2013-11-13", "2013-11-13", 43, 43, ""], ["CDISCPILOT01", "SV", "01-704-1127", 8.0, "WEEK 8", 56, "TREATMENT", "2013-11-26", "2013-11-26", 56, 56, ""], ["CDISCPILOT01", "SV", "01-704-1127", 8.1, "WEEK 10 (T)", 70, "TREATMENT", "2013-12-10", "2013-12-10", 70, 70, ""], ["CDISCPILOT01", "SV", "01-704-1127", 9.0, "WEEK 12", 84, "TREATMENT", "2013-12-25", "2013-12-25", 85, 85, ""], ["CDISCPILOT01", "SV", "01-704-1127", 9.1, "WEEK 14 (T)", 98, "TREATMENT", "2014-01-08", "2014-01-08", 99, 99, ""], ["CDISCPILOT01", "SV", "01-704-1127", 10.0, "WEEK 16", 112, "TREATMENT", "2014-01-21", "2014-01-21", 112, 112, ""], ["CDISCPILOT01", "SV", "01-704-1127", 10.1, "WEEK 18 (T)", 126, "TREATMENT", "2014-02-05", "2014-02-05", 127, 127, ""], ["CDISCPILOT01", "SV", "01-704-1127", 11.0, "WEEK 20", 140, "TREATMENT", "2014-02-17", "2014-02-17", 139, 139, ""], ["CDISCPILOT01", "SV", "01-704-1127", 11.1, "WEEK 22 (T)", 154, "TREATMENT", "2014-03-05", "2014-03-05", 155, 155, ""], ["CDISCPILOT01", "SV", "01-704-1127", 12.0, "WEEK 24", 168, "TREATMENT", "2014-03-17", "2014-03-17", 167, 167, ""], ["CDISCPILOT01", "SV", "01-704-1127", 13.0, "WEEK 26", 182, "TREATMENT", "2014-03-31", "2014-03-31", 181, 181, ""], ["CDISCPILOT01", "SV", "01-704-1135", 1.0, "SCREENING 1", -7, "SCREENING", "2013-10-23", "2013-10-23", -8, -8, ""], ["CDISCPILOT01", "SV", "01-704-1135", 2.0, "SCREENING 2", -1, "SCREENING", "2013-10-29", "2013-10-29", -2, -2, ""], ["CDISCPILOT01", "SV", "01-704-1135", 3.0, "BASELINE", 1, "TREATMENT", "2013-10-31", "2013-10-31", 1, 1, ""], ["CDISCPILOT01", "SV", "01-704-1135", 3.5, "AMBUL ECG PLACEMENT", 13, "TREATMENT", "2013-11-13", "2013-11-13", 14, 14, ""], ["CDISCPILOT01", "SV", "01-704-1135", 4.0, "WEEK 2", 14, "TREATMENT", "2013-11-14", "2013-11-14", 15, 15, ""], ["CDISCPILOT01", "SV", "01-704-1135", 5.0, "WEEK 4", 28, "TREATMENT", "2013-11-26", "2013-11-26", 27, 27, ""], ["CDISCPILOT01", "SV", "01-704-1135", 6.0, "AMBUL ECG REMOVAL", 30, "TREATMENT", "2013-11-28", "2013-11-28", 29, 29, ""], ["CDISCPILOT01", "SV", "01-704-1135", 7.0, "WEEK 6", 42, "TREATMENT", "2013-12-11", "2013-12-11", 42, 42, ""], ["CDISCPILOT01", "SV", "01-704-1135", 8.0, "WEEK 8", 56, "TREATMENT", "2013-12-25", "2013-12-25", 56, 56, ""], ["CDISCPILOT01", "SV", "01-704-1135", 8.1, "WEEK 10 (T)", 70, "TREATMENT", "2014-01-09", "2014-01-09", 71, 71, ""], ["CDISCPILOT01", "SV", "01-704-1135", 9.0, "WEEK 12", 84, "TREATMENT", "2014-01-22", "2014-01-22", 84, 84, ""], ["CDISCPILOT01", "SV", "01-704-1135", 9.1, "WEEK 14 (T)", 98, "TREATMENT", "2014-01-23", "2014-01-23", 85, 85, ""], ["CDISCPILOT01", "SV", "01-704-1135", 10.0, "WEEK 16", 112, "TREATMENT", "2014-02-19", "2014-02-19", 112, 112, ""], ["CDISCPILOT01", "SV", "01-704-1135", 10.1, "WEEK 18 (T)", 126, "TREATMENT", "2014-03-08", "2014-03-08", 129, 129, ""], ["CDISCPILOT01", "SV", "01-704-1135", 11.0, "WEEK 20", 140, "TREATMENT", "2014-03-26", "2014-03-26", 147, 147, ""], ["CDISCPILOT01", "SV", "01-704-1135", 11.1, "WEEK 22 (T)", 154, "TREATMENT", "2014-04-03", "2014-04-03", 155, 155, ""], ["CDISCPILOT01", "SV", "01-704-1135", 12.0, "WEEK 24", 168, "TREATMENT", "2014-05-01", "2014-05-01", 183, 183, ""], ["CDISCPILOT01", "SV", "01-704-1135", 13.0, "WEEK 26", 182, "TREATMENT", "2014-05-16", "2014-05-16", 198, 198, ""], ["CDISCPILOT01", "SV", "01-704-1164", 1.0, "SCREENING 1", -7, "SCREENING", "2012-09-11", "2012-09-11", -8, -8, ""], ["CDISCPILOT01", "SV", "01-704-1164", 2.0, "SCREENING 2", -1, "SCREENING", "2012-09-16", "2012-09-16", -3, -3, ""], ["CDISCPILOT01", "SV", "01-704-1164", 3.0, "BASELINE", 1, "TREATMENT", "2012-09-19", "2012-09-19", 1, 1, ""], ["CDISCPILOT01", "SV", "01-704-1164", 3.5, "AMBUL ECG PLACEMENT", 13, "TREATMENT", "2012-10-03", "2012-10-03", 15, 15, ""], ["CDISCPILOT01", "SV", "01-704-1164", 4.0, "WEEK 2", 14, "TREATMENT", "2012-10-04", "2012-10-04", 16, 16, ""], ["CDISCPILOT01", "SV", "01-704-1164", 5.0, "WEEK 4", 28, "TREATMENT", "2012-10-21", "2012-10-21", 33, 33, ""], ["CDISCPILOT01", "SV", "01-704-1164", 6.0, "AMBUL ECG REMOVAL", 30, "TREATMENT", "2012-10-23", "2012-10-23", 35, 35, ""], ["CDISCPILOT01", "SV", "01-704-1164", 7.0, "WEEK 6", 42, "TREATMENT", "2012-11-01", "2012-11-01", 44, 44, ""], ["CDISCPILOT01", "SV", "01-704-1164", 8.0, "WEEK 8", 56, "TREATMENT", "2012-11-15", "2012-11-15", 58, 58, ""], ["CDISCPILOT01", "SV", "01-704-1164", 8.1, "WEEK 10 (T)", 70, "TREATMENT", "2012-11-28", "2012-11-28", 71, 71, ""], ["CDISCPILOT01", "SV", "01-704-1164", 9.0, "WEEK 12", 84, "TREATMENT", "2012-12-16", "2012-12-16", 89, 89, ""], ["CDISCPILOT01", "SV", "01-704-1164", 9.1, "WEEK 14 (T)", 98, "TREATMENT", "2012-12-26", "2012-12-26", 99, 99, ""], ["CDISCPILOT01", "SV", "01-704-1164", 10.0, "WEEK 16", 112, "TREATMENT", "2013-01-14", "2013-01-14", 118, 118, ""], ["CDISCPILOT01", "SV", "01-704-1164", 10.1, "WEEK 18 (T)", 126, "TREATMENT", "2013-01-23", "2013-01-23", 127, 127, ""], ["CDISCPILOT01", "SV", "01-704-1164", 11.0, "WEEK 20", 140, "TREATMENT", "2013-02-14", "2013-02-14", 149, 149, ""], ["CDISCPILOT01", "SV", "01-704-1164", 11.1, "WEEK 22 (T)", 154, "TREATMENT", "2013-02-20", "2013-02-20", 155, 155, ""], ["CDISCPILOT01", "SV", "01-704-1164", 12.0, "WEEK 24", 168, "TREATMENT", "2013-03-17", "2013-03-17", 180, 180, ""], ["CDISCPILOT01", "SV", "01-704-1164", 13.0, "WEEK 26", 182, "TREATMENT", "2013-04-04", "2013-04-04", 198, 198, ""], ["CDISCPILOT01", "SV", "01-704-1218", 1.0, "SCREENING 1", -7, "SCREENING", "2012-11-11", "2012-11-11", -8, -8, ""], ["CDISCPILOT01", "SV", "01-704-1218", 1.1, "UNSCHEDULED 1.1", null, "", "2012-10-11", "2012-10-11", -39, -39, "Unplanned visit to complete unscheduled assessments"], ["CDISCPILOT01", "SV", "01-704-1218", 1.2, "UNSCHEDULED 1.2", null, "SCREENING", "2012-11-11", "2012-11-11", -8, -8, "Unplanned visit to complete unscheduled assessments"], ["CDISCPILOT01", "SV", "01-704-1218", 2.0, "SCREENING 2", -1, "SCREENING", "2012-11-17", "2012-11-17", -2, -2, ""], ["CDISCPILOT01", "SV", "01-704-1218", 3.0, "BASELINE", 1, "TREATMENT", "2012-11-19", "2012-11-19", 1, 1, ""], ["CDISCPILOT01", "SV", "01-704-1218", 3.5, "AMBUL ECG PLACEMENT", 13, "TREATMENT", "2012-12-02", "2012-12-02", 14, 14, ""], ["CDISCPILOT01", "SV", "01-704-1218", 4.0, "WEEK 2", 14, "TREATMENT", "2012-12-03", "2012-12-03", 15, 15, ""], ["CDISCPILOT01", "SV", "01-704-1218", 5.0, "WEEK 4", 28, "TREATMENT", "2012-12-15", "2012-12-15", 27, 27, ""], ["CDISCPILOT01", "SV", "01-704-1218", 6.0, "AMBUL ECG REMOVAL", 30, "TREATMENT", "2012-12-17", "2012-12-17", 29, 29, ""], ["CDISCPILOT01", "SV", "01-704-1218", 7.0, "WEEK 6", 42, "TREATMENT", "2012-12-30", "2012-12-30", 42, 42, ""], ["CDISCPILOT01", "SV", "01-704-1218", 8.0, "WEEK 8", 56, "TREATMENT", "2013-01-14", "2013-01-14", 57, 57, ""], ["CDISCPILOT01", "SV", "01-704-1218", 8.1, "WEEK 10 (T)", 70, "TREATMENT", "2013-01-25", "2013-01-25", 68, 68, ""], ["CDISCPILOT01", "SV", "01-704-1218", 9.0, "WEEK 12", 84, "TREATMENT", "2013-02-11", "2013-02-11", 85, 85, ""], ["CDISCPILOT01", "SV", "01-704-1218", 9.1, "WEEK 14 (T)", 98, "TREATMENT", "2013-02-27", "2013-02-27", 101, 101, ""], ["CDISCPILOT01", "SV", "01-704-1218", 10.0, "WEEK 16", 112, "TREATMENT", "2013-03-18", "2013-03-18", 120, 120, ""], ["CDISCPILOT01", "SV", "01-704-1218", 10.1, "WEEK 18 (T)", 126, "TREATMENT", "2013-03-28", "2013-03-28", 130, 130, ""], ["CDISCPILOT01", "SV", "01-704-1218", 11.0, "WEEK 20", 140, "TREATMENT", "2013-04-14", "2013-04-14", 147, 147, ""], ["CDISCPILOT01", "SV", "01-704-1218", 11.1, "WEEK 22 (T)", 154, "TREATMENT", "2013-04-22", "2013-04-22", 155, 155, ""], ["CDISCPILOT01", "SV", "01-704-1218", 12.0, "WEEK 24", 168, "TREATMENT", "2013-05-13", "2013-05-13", 176, 176, ""], ["CDISCPILOT01", "SV", "01-704-1218", 13.0, "WEEK 26", 182, "TREATMENT", "2013-05-27", "2013-05-27", 190, 190, ""], ["CDISCPILOT01", "SV", "01-704-1233", 1.0, "SCREENING 1", -7, "SCREENING", "2013-03-08", "2013-03-08", -13, -13, ""], ["CDISCPILOT01", "SV", "01-704-1233", 2.0, "SCREENING 2", -1, "SCREENING", "2013-03-19", "2013-03-19", -2, -2, ""], ["CDISCPILOT01", "SV", "01-704-1233", 3.0, "BASELINE", 1, "TREATMENT", "2013-03-21", "2013-03-21", 1, 1, ""], ["CDISCPILOT01", "SV", "01-704-1233", 3.5, "AMBUL ECG PLACEMENT", 13, "TREATMENT", "2013-04-03", "2013-04-03", 14, 14, ""], ["CDISCPILOT01", "SV", "01-704-1233", 4.0, "WEEK 2", 14, "TREATMENT", "2013-04-04", "2013-04-04", 15, 15, ""], ["CDISCPILOT01", "SV", "01-704-1233", 5.0, "WEEK 4", 28, "TREATMENT", "2013-04-16", "2013-04-16", 27, 27, ""], ["CDISCPILOT01", "SV", "01-704-1233", 6.0, "AMBUL ECG REMOVAL", 30, "TREATMENT", "2013-04-18", "2013-04-18", 29, 29, ""], ["CDISCPILOT01", "SV", "01-704-1233", 7.0, "WEEK 6", 42, "TREATMENT", "2013-05-01", "2013-05-01", 42, 42, ""], ["CDISCPILOT01", "SV", "01-704-1233", 8.0, "WEEK 8", 56, "TREATMENT", "2013-05-16", "2013-05-16", 57, 57, ""], ["CDISCPILOT01", "SV", "01-704-1233", 8.1, "WEEK 10 (T)", 70, "TREATMENT", "2013-05-30", "2013-05-30", 71, 71, ""], ["CDISCPILOT01", "SV", "01-704-1233", 9.0, "WEEK 12", 84, "TREATMENT", "2013-06-13", "2013-06-13", 85, 85, ""], ["CDISCPILOT01", "SV", "01-704-1233", 9.1, "WEEK 14 (T)", 98, "TREATMENT", "2013-06-27", "2013-06-27", 99, 99, ""], ["CDISCPILOT01", "SV", "01-704-1233", 10.0, "WEEK 16", 112, "TREATMENT", "2013-07-11", "2013-07-11", 113, 113, ""], ["CDISCPILOT01", "SV", "01-704-1233", 11.0, "WEEK 20", 140, "TREATMENT", "2013-07-14", "2013-07-14", 116, 116, ""], ["CDISCPILOT01", "SV", "01-704-1241", 1.0, "SCREENING 1", -7, "SCREENING", "2013-08-14", "2013-08-14", -11, -11, ""], ["CDISCPILOT01", "SV", "01-704-1241", 2.0, "SCREENING 2", -1, "SCREENING", "2013-08-23", "2013-08-23", -2, -2, ""], ["CDISCPILOT01", "SV", "01-704-1241", 3.0, "BASELINE", 1, "TREATMENT", "2013-08-25", "2013-08-25", 1, 1, ""], ["CDISCPILOT01", "SV", "01-704-1241", 3.5, "AMBUL ECG PLACEMENT", 13, "TREATMENT", "2013-09-04", "2013-09-04", 11, 11, ""], ["CDISCPILOT01", "SV", "01-704-1241", 4.0, "WEEK 2", 14, "TREATMENT", "2013-09-05", "2013-09-05", 12, 12, ""], ["CDISCPILOT01", "SV", "01-704-1241", 5.0, "WEEK 4", 28, "TREATMENT", "2013-09-19", "2013-09-19", 26, 26, ""], ["CDISCPILOT01", "SV", "01-704-1241", 6.0, "AMBUL ECG REMOVAL", 30, "TREATMENT", "2013-09-21", "2013-09-21", 28, 28, ""], ["CDISCPILOT01", "SV", "01-704-1241", 7.0, "WEEK 6", 42, "TREATMENT", "2013-10-09", "2013-10-09", 46, 46, ""], ["CDISCPILOT01", "SV", "01-704-1241", 8.0, "WEEK 8", 56, "TREATMENT", "2013-10-31", "2013-10-31", 68, 68, ""], ["CDISCPILOT01", "SV", "01-704-1241", 101.0, "AE FOLLOW-UP", null, "FOLLOW-UP", "2014-01-22", "2014-01-22", 151, 151, ""], ["CDISCPILOT01", "SV", "01-704-1260", 1.0, "SCREENING 1", -7, "SCREENING", "2012-08-23", "2012-08-23", -7, -7, ""], ["CDISCPILOT01", "SV", "01-704-1260", 2.0, "SCREENING 2", -1, "SCREENING", "2012-08-26", "2012-08-26", -4, -4, ""], ["CDISCPILOT01", "SV", "01-704-1260", 3.0, "BASELINE", 1, "TREATMENT", "2012-08-30", "2012-08-30", 1, 1, ""], ["CDISCPILOT01", "SV", "01-704-1260", 3.5, "AMBUL ECG PLACEMENT", 13, "TREATMENT", "2012-09-12", "2012-09-12", 14, 14, ""], ["CDISCPILOT01", "SV", "01-704-1260", 4.0, "WEEK 2", 14, "TREATMENT", "2012-09-13", "2012-09-13", 15, 15, ""], ["CDISCPILOT01", "SV", "01-704-1260", 5.0, "WEEK 4", 28, "TREATMENT", "2012-09-26", "2012-09-26", 28, 28, ""], ["CDISCPILOT01", "SV", "01-704-1260", 6.0, "AMBUL ECG REMOVAL", 30, "TREATMENT", "2012-09-28", "2012-09-28", 30, 30, ""], ["CDISCPILOT01", "SV", "01-704-1260", 7.0, "WEEK 6", 42, "TREATMENT", "2012-10-11", "2012-10-11", 43, 43, ""], ["CDISCPILOT01", "SV", "01-704-1260", 8.0, "WEEK 8", 56, "TREATMENT", "2012-10-24", "2012-10-24", 56, 56, ""], ["CDISCPILOT01", "SV", "01-704-1260", 9.0, "WEEK 12", 84, "TREATMENT", "2013-01-18", "2013-01-18", 142, 142, ""], ["CDISCPILOT01", "SV", "01-704-1266", 1.0, "SCREENING 1", -7, "SCREENING", "2013-10-05", "2013-10-05", -8, -8, ""], ["CDISCPILOT01", "SV", "01-704-1266", 2.0, "SCREENING 2", -1, "SCREENING", "2013-10-11", "2013-10-11", -2, -2, ""], ["CDISCPILOT01", "SV", "01-704-1266", 3.0, "BASELINE", 1, "TREATMENT", "2013-10-13", "2013-10-13", 1, 1, ""], ["CDISCPILOT01", "SV", "01-704-1266", 3.5, "AMBUL ECG PLACEMENT", 13, "TREATMENT", "2013-10-26", "2013-10-26", 14, 14, ""], ["CDISCPILOT01", "SV", "01-704-1266", 4.0, "WEEK 2", 14, "TREATMENT", "2013-10-27", "2013-10-27", 15, 15, ""], ["CDISCPILOT01", "SV", "01-704-1266", 5.0, "WEEK 4", 28, "TREATMENT", "2013-11-08", "2013-11-08", 27, 27, ""], ["CDISCPILOT01", "SV", "01-704-1266", 6.0, "AMBUL ECG REMOVAL", 30, "TREATMENT", "2013-11-10", "2013-11-10", 29, 29, ""], ["CDISCPILOT01", "SV", "01-704-1266", 7.0, "WEEK 6", 42, "TREATMENT", "2013-11-22", "2013-11-22", 41, 41, ""], ["CDISCPILOT01", "SV", "01-704-1266", 8.0, "WEEK 8", 56, "TREATMENT", "2013-12-06", "2013-12-06", 55, 55, ""], ["CDISCPILOT01", "SV", "01-704-1266", 101.0, "AE FOLLOW-UP", null, "FOLLOW-UP", "2014-01-03", "2014-01-03", 83, 83, ""], ["CDISCPILOT01", "SV", "01-704-1323", 1.0, "SCREENING 1", -7, "SCREENING", "2013-06-13", "2013-06-13", -25, -25, ""], ["CDISCPILOT01", "SV", "01-704-1323", 2.0, "SCREENING 2", -1, "SCREENING", "2013-07-07", "2013-07-07", -1, -1, ""], ["CDISCPILOT01", "SV", "01-704-1323", 3.0, "BASELINE", 1, "TREATMENT", "2013-07-08", "2013-07-08", 1, 1, ""], ["CDISCPILOT01", "SV", "01-704-1323", 3.5, "AMBUL ECG PLACEMENT", 13, "TREATMENT", "2013-07-21", "2013-07-21", 14, 14, ""], ["CDISCPILOT01", "SV", "01-704-1323", 4.0, "WEEK 2", 14, "TREATMENT", "2013-07-23", "2013-07-23", 16, 16, ""], ["CDISCPILOT01", "SV", "01-704-1323", 5.0, "WEEK 4", 28, "TREATMENT", "2013-08-04", "2013-08-04", 28, 28, ""], ["CDISCPILOT01", "SV", "01-704-1323", 6.0, "AMBUL ECG REMOVAL", 30, "TREATMENT", "2013-08-06", "2013-08-06", 30, 30, ""], ["CDISCPILOT01", "SV", "01-704-1323", 7.0, "WEEK 6", 42, "TREATMENT", "2013-08-08", "2013-08-08", 32, 32, ""], ["CDISCPILOT01", "SV", "01-704-1323", 101.0, "AE FOLLOW-UP", null, "FOLLOW-UP", "2013-10-01", "2013-10-01", 86, 86, ""], ["CDISCPILOT01", "SV", "01-704-1325", 1.0, "SCREENING 1", -7, "SCREENING", "2014-04-16", "2014-04-16", -7, -7, ""], ["CDISCPILOT01", "SV", "01-704-1325", 2.0, "SCREENING 2", -1, "SCREENING", "2014-04-21", "2014-04-21", -2, -2, ""], ["CDISCPILOT01", "SV", "01-704-1325", 3.0, "BASELINE", 1, "TREATMENT", "2014-04-23", "2014-04-23", 1, 1, ""], ["CDISCPILOT01", "SV", "01-704-1325", 3.5, "AMBUL ECG PLACEMENT", 13, "TREATMENT", "2014-05-06", "2014-05-06", 14, 14, ""], ["CDISCPILOT01", "SV", "01-704-1325", 4.0, "WEEK 2", 14, "TREATMENT", "2014-05-07", "2014-05-07", 15, 15, ""], ["CDISCPILOT01", "SV", "01-704-1325", 5.0, "WEEK 4", 28, "TREATMENT", "2014-05-19", "2014-05-19", 27, 27, ""], ["CDISCPILOT01", "SV", "01-704-1325", 6.0, "AMBUL ECG REMOVAL", 30, "TREATMENT", "2014-05-21", "2014-05-21", 29, 29, ""], ["CDISCPILOT01", "SV", "01-704-1325", 7.0, "WEEK 6", 42, "TREATMENT", "2014-06-04", "2014-06-04", 43, 43, ""], ["CDISCPILOT01", "SV", "01-704-1325", 8.0, "WEEK 8", 56, "TREATMENT", "2014-06-18", "2014-06-18", 57, 57, ""], ["CDISCPILOT01", "SV", "01-704-1325", 8.1, "WEEK 10 (T)", 70, "TREATMENT", "2014-07-02", "2014-07-02", 71, 71, ""], ["CDISCPILOT01", "SV", "01-704-1325", 9.0, "WEEK 12", 84, "TREATMENT", "2014-07-16", "2014-07-16", 85, 85, ""], ["CDISCPILOT01", "SV", "01-704-1325", 10.0, "WEEK 16", 112, "TREATMENT", "2014-08-06", "2014-08-06", 106, 106, ""], ["CDISCPILOT01", "SV", "01-704-1332", 1.0, "SCREENING 1", -7, "SCREENING", "2013-11-24", "2013-11-24", -15, -15, ""], ["CDISCPILOT01", "SV", "01-704-1332", 2.0, "SCREENING 2", -1, "SCREENING", "2013-12-07", "2013-12-07", -2, -2, ""], ["CDISCPILOT01", "SV", "01-704-1332", 3.0, "BASELINE", 1, "TREATMENT", "2013-12-09", "2013-12-09", 1, 1, ""], ["CDISCPILOT01", "SV", "01-704-1332", 3.5, "AMBUL ECG PLACEMENT", 13, "TREATMENT", "2013-12-22", "2013-12-22", 14, 14, ""], ["CDISCPILOT01", "SV", "01-704-1332", 4.0, "WEEK 2", 14, "TREATMENT", "2013-12-23", "2013-12-23", 15, 15, ""], ["CDISCPILOT01", "SV", "01-704-1332", 5.0, "WEEK 4", 28, "TREATMENT", "2014-01-04", "2014-01-04", 27, 27, ""], ["CDISCPILOT01", "SV", "01-704-1332", 6.0, "AMBUL ECG REMOVAL", 30, "TREATMENT", "2014-01-06", "2014-01-06", 29, 29, ""], ["CDISCPILOT01", "SV", "01-704-1332", 7.0, "WEEK 6", 42, "TREATMENT", "2014-01-20", "2014-01-20", 43, 43, ""], ["CDISCPILOT01", "SV", "01-704-1332", 8.0, "WEEK 8", 56, "TREATMENT", "2014-02-03", "2014-02-03", 57, 57, ""], ["CDISCPILOT01", "SV", "01-704-1332", 9.0, "WEEK 12", 84, "TREATMENT", "2014-02-16", "2014-02-16", 70, 70, ""], ["CDISCPILOT01", "SV", "01-704-1332", 101.0, "AE FOLLOW-UP", null, "FOLLOW-UP", "2014-02-24", "2014-02-24", 78, 78, ""], ["CDISCPILOT01", "SV", "01-704-1351", 1.0, "SCREENING 1", -7, "SCREENING", "2013-09-26", "2013-09-26", -16, -16, ""], ["CDISCPILOT01", "SV", "01-704-1351", 1.1, "UNSCHEDULED 1.1", null, "SCREENING", "2013-10-03", "2013-10-03", -9, -9, "Unplanned visit to complete unscheduled assessments"], ["CDISCPILOT01", "SV", "01-704-1351", 2.0, "SCREENING 2", -1, "SCREENING", "2013-10-10", "2013-10-10", -2, -2, ""], ["CDISCPILOT01", "SV", "01-704-1351", 3.0, "BASELINE", 1, "TREATMENT", "2013-10-12", "2013-10-12", 1, 1, ""], ["CDISCPILOT01", "SV", "01-704-1351", 4.0, "WEEK 2", 14, "TREATMENT", "2013-10-26", "2013-10-26", 15, 15, ""], ["CDISCPILOT01", "SV", "01-704-1351", 5.0, "WEEK 4", 28, "TREATMENT", "2013-11-07", "2013-11-07", 27, 27, ""], ["CDISCPILOT01", "SV", "01-704-1351", 5.1, "UNSCHEDULED 5.1", null, "TREATMENT", "2013-11-09", "2013-11-09", 29, 29, "Unplanned visit to complete unscheduled assessments"], ["CDISCPILOT01", "SV", "01-704-1351", 6.0, "AMBUL ECG REMOVAL", 30, "TREATMENT", "2013-11-09", "2013-11-09", 29, 29, ""], ["CDISCPILOT01", "SV", "01-704-1351", 7.0, "WEEK 6", 42, "TREATMENT", "2013-11-16", "2013-11-16", 36, 36, ""], ["CDISCPILOT01", "SV", "01-704-1351", 8.0, "WEEK 8", 56, "TREATMENT", "2013-12-02", "2013-12-02", 52, 52, ""], ["CDISCPILOT01", "SV", "01-704-1351", 8.1, "WEEK 10 (T)", 70, "TREATMENT", "2013-12-14", "2013-12-14", 64, 64, ""], ["CDISCPILOT01", "SV", "01-704-1351", 9.0, "WEEK 12", 84, "TREATMENT", "2013-12-28", "2013-12-28", 78, 78, ""], ["CDISCPILOT01", "SV", "01-704-1351", 9.1, "WEEK 14 (T)", 98, "TREATMENT", "2014-01-11", "2014-01-11", 92, 92, ""], ["CDISCPILOT01", "SV", "01-704-1351", 10.0, "WEEK 16", 112, "TREATMENT", "2014-01-26", "2014-01-26", 107, 107, ""], ["CDISCPILOT01", "SV", "01-704-1351", 10.1, "WEEK 18 (T)", 126, "TREATMENT", "2014-02-08", "2014-02-08", 120, 120, ""], ["CDISCPILOT01", "SV", "01-704-1351", 11.0, "WEEK 20", 140, "TREATMENT", "2014-03-01", "2014-03-01", 141, 141, ""], ["CDISCPILOT01", "SV", "01-704-1351", 11.1, "WEEK 22 (T)", 154, "TREATMENT", "2014-03-15", "2014-03-15", 155, 155, ""], ["CDISCPILOT01", "SV", "01-704-1351", 12.0, "WEEK 24", 168, "TREATMENT", "2014-04-04", "2014-04-04", 175, 175, ""], ["CDISCPILOT01", "SV", "01-704-1351", 13.0, "WEEK 26", 182, "TREATMENT", "2014-04-18", "2014-04-18", 189, 189, ""], ["CDISCPILOT01", "SV", "01-704-1388", 1.0, "SCREENING 1", -7, "SCREENING", "2012-11-28", "2012-11-28", -9, -9, ""], ["CDISCPILOT01", "SV", "01-704-1388", 2.0, "SCREENING 2", -1, "SCREENING", "2012-12-05", "2012-12-05", -2, -2, ""], ["CDISCPILOT01", "SV", "01-704-1388", 3.0, "BASELINE", 1, "TREATMENT", "2012-12-07", "2012-12-07", 1, 1, ""], ["CDISCPILOT01", "SV", "01-704-1388", 3.5, "AMBUL ECG PLACEMENT", 13, "TREATMENT", "2012-12-20", "2012-12-20", 14, 14, ""], ["CDISCPILOT01", "SV", "01-704-1388", 4.0, "WEEK 2", 14, "TREATMENT", "2012-12-21", "2012-12-21", 15, 15, ""], ["CDISCPILOT01", "SV", "01-704-1388", 5.0, "WEEK 4", 28, "TREATMENT", "2013-01-02", "2013-01-02", 27, 27, ""], ["CDISCPILOT01", "SV", "01-704-1388", 6.0, "AMBUL ECG REMOVAL", 30, "TREATMENT", "2013-01-04", "2013-01-04", 29, 29, ""], ["CDISCPILOT01", "SV", "01-704-1388", 7.0, "WEEK 6", 42, "TREATMENT", "2013-01-18", "2013-01-18", 43, 43, ""], ["CDISCPILOT01", "SV", "01-704-1388", 8.0, "WEEK 8", 56, "TREATMENT", "2013-01-30", "2013-01-30", 55, 55, ""], ["CDISCPILOT01", "SV", "01-704-1388", 8.1, "WEEK 10 (T)", 70, "TREATMENT", "2013-02-16", "2013-02-16", 72, 72, ""], ["CDISCPILOT01", "SV", "01-704-1388", 9.0, "WEEK 12", 84, "TREATMENT", "2013-02-27", "2013-02-27", 83, 83, ""], ["CDISCPILOT01", "SV", "01-704-1388", 9.1, "WEEK 14 (T)", 98, "TREATMENT", "2013-03-15", "2013-03-15", 99, 99, ""], ["CDISCPILOT01", "SV", "01-704-1388", 10.0, "WEEK 16", 112, "TREATMENT", "2013-03-27", "2013-03-27", 111, 111, ""], ["CDISCPILOT01", "SV", "01-704-1388", 10.1, "WEEK 18 (T)", 126, "TREATMENT", "2013-04-12", "2013-04-12", 127, 127, ""], ["CDISCPILOT01", "SV", "01-704-1388", 11.0, "WEEK 20", 140, "TREATMENT", "2013-04-28", "2013-04-28", 143, 143, ""], ["CDISCPILOT01", "SV", "01-704-1388", 11.1, "WEEK 22 (T)", 154, "TREATMENT", "2013-05-12", "2013-05-12", 157, 157, ""], ["CDISCPILOT01", "SV", "01-704-1388", 12.0, "WEEK 24", 168, "TREATMENT", "2013-05-23", "2013-05-23", 168, 168, ""], ["CDISCPILOT01", "SV", "01-704-1388", 13.0, "WEEK 26", 182, "TREATMENT", "2013-06-19", "2013-06-19", 195, 195, ""], ["CDISCPILOT01", "SV", "01-704-1435", 1.0, "SCREENING 1", -7, "SCREENING", "2012-11-01", "2012-11-01", -16, -16, ""], ["CDISCPILOT01", "SV", "01-704-1435", 2.0, "SCREENING 2", -1, "SCREENING", "2012-11-15", "2012-11-15", -2, -2, ""], ["CDISCPILOT01", "SV", "01-704-1435", 3.0, "BASELINE", 1, "TREATMENT", "2012-11-17", "2012-11-17", 1, 1, ""], ["CDISCPILOT01", "SV", "01-704-1435", 3.5, "AMBUL ECG PLACEMENT", 13, "TREATMENT", "2012-11-30", "2012-11-30", 14, 14, ""], ["CDISCPILOT01", "SV", "01-704-1435", 4.0, "WEEK 2", 14, "TREATMENT", "2012-12-01", "2012-12-01", 15, 15, ""], ["CDISCPILOT01", "SV", "01-704-1435", 5.0, "WEEK 4", 28, "TREATMENT", "2012-12-15", "2012-12-15", 29, 29, ""], ["CDISCPILOT01", "SV", "01-704-1435", 6.0, "AMBUL ECG REMOVAL", 30, "TREATMENT", "2012-12-17", "2012-12-17", 31, 31, ""], ["CDISCPILOT01", "SV", "01-704-1435", 7.0, "WEEK 6", 42, "TREATMENT", "2012-12-30", "2012-12-30", 44, 44, ""], ["CDISCPILOT01", "SV", "01-704-1435", 8.0, "WEEK 8", 56, "TREATMENT", "2013-01-12", "2013-01-12", 57, 57, ""], ["CDISCPILOT01", "SV", "01-704-1445", 1.0, "SCREENING 1", -7, "SCREENING", "2014-05-01", "2014-05-01", -10, -10, ""], ["CDISCPILOT01", "SV", "01-704-1445", 1.1, "UNSCHEDULED 1.1", null, "SCREENING", "2014-05-03", "2014-05-03", -8, -8, "Unplanned visit to complete unscheduled assessments"], ["CDISCPILOT01", "SV", "01-704-1445", 2.0, "SCREENING 2", -1, "SCREENING", "2014-05-09", "2014-05-09", -2, -2, ""], ["CDISCPILOT01", "SV", "01-704-1445", 3.0, "BASELINE", 1, "TREATMENT", "2014-05-11", "2014-05-11", 1, 1, ""], ["CDISCPILOT01", "SV", "01-704-1445", 3.5, "AMBUL ECG PLACEMENT", 13, "TREATMENT", "2014-05-24", "2014-05-24", 14, 14, ""], ["CDISCPILOT01", "SV", "01-704-1445", 4.0, "WEEK 2", 14, "TREATMENT", "2014-05-25", "2014-05-25", 15, 15, ""], ["CDISCPILOT01", "SV", "01-704-1445", 5.0, "WEEK 4", 28, "TREATMENT", "2014-06-11", "2014-06-11", 32, 32, ""], ["CDISCPILOT01", "SV", "01-704-1445", 6.0, "AMBUL ECG REMOVAL", 30, "TREATMENT", "2014-06-13", "2014-06-13", 34, 34, ""], ["CDISCPILOT01", "SV", "01-704-1445", 7.0, "WEEK 6", 42, "TREATMENT", "2014-06-25", "2014-06-25", 46, 46, ""], ["CDISCPILOT01", "SV", "01-704-1445", 8.0, "WEEK 8", 56, "TREATMENT", "2014-07-09", "2014-07-09", 60, 60, ""], ["CDISCPILOT01", "SV", "01-704-1445", 8.1, "WEEK 10 (T)", 70, "TREATMENT", "2014-07-27", "2014-07-27", 78, 78, ""], ["CDISCPILOT01", "SV", "01-704-1445", 9.0, "WEEK 12", 84, "TREATMENT", "2014-08-06", "2014-08-06", 88, 88, ""], ["CDISCPILOT01", "SV", "01-704-1445", 9.1, "WEEK 14 (T)", 98, "TREATMENT", "2014-08-24", "2014-08-24", 106, 106, ""], ["CDISCPILOT01", "SV", "01-704-1445", 10.0, "WEEK 16", 112, "TREATMENT", "2014-09-03", "2014-09-03", 116, 116, ""], ["CDISCPILOT01", "SV", "01-704-1445", 10.1, "WEEK 18 (T)", 126, "TREATMENT", "2014-09-25", "2014-09-25", 138, 138, ""], ["CDISCPILOT01", "SV", "01-704-1445", 11.0, "WEEK 20", 140, "TREATMENT", "2014-10-01", "2014-10-01", 144, 144, ""], ["CDISCPILOT01", "SV", "01-704-1445", 11.1, "WEEK 22 (T)", 154, "TREATMENT", "2014-10-15", "2014-10-15", 158, 158, ""], ["CDISCPILOT01", "SV", "01-704-1445", 12.0, "WEEK 24", 168, "TREATMENT", "2014-11-01", "2014-11-01", 175, 175, ""], ["CDISCPILOT01", "SV", "01-705-1011", 1.0, "SCREENING 1", -7, "SCREENING", "2013-09-01", "2013-09-01", null, null, ""], ["CDISCPILOT01", "SV", "01-705-1018", 1.0, "SCREENING 1", -7, "SCREENING", "2013-06-30", "2013-06-30", -5, -5, ""], ["CDISCPILOT01", "SV", "01-705-1018", 2.0, "SCREENING 2", -1, "SCREENING", "2013-07-03", "2013-07-03", -2, -2, ""], ["CDISCPILOT01", "SV", "01-705-1018", 3.0, "BASELINE", 1, "TREATMENT", "2013-07-05", "2013-07-05", 1, 1, ""], ["CDISCPILOT01", "SV", "01-705-1018", 4.0, "WEEK 2", 14, "TREATMENT", "2013-07-12", "2013-07-12", 8, 8, ""], ["CDISCPILOT01", "SV", "01-705-1031", 1.0, "SCREENING 1", -7, "SCREENING", "2013-11-17", "2013-11-17", -10, -10, ""], ["CDISCPILOT01", "SV", "01-705-1031", 2.0, "SCREENING 2", -1, "SCREENING", "2013-11-19", "2013-11-19", -8, -8, ""], ["CDISCPILOT01", "SV", "01-705-1031", 3.0, "BASELINE", 1, "TREATMENT", "2013-11-27", "2013-11-27", 1, 1, ""], ["CDISCPILOT01", "SV", "01-705-1031", 3.5, "AMBUL ECG PLACEMENT", 13, "TREATMENT", "2013-12-17", "2013-12-17", 21, 21, ""], ["CDISCPILOT01", "SV", "01-705-1031", 4.0, "WEEK 2", 14, "TREATMENT", "2013-12-18", "2013-12-18", 22, 22, ""], ["CDISCPILOT01", "SV", "01-705-1031", 5.0, "WEEK 4", 28, "TREATMENT", "2013-12-25", "2013-12-25", 29, 29, ""], ["CDISCPILOT01", "SV", "01-705-1031", 6.0, "AMBUL ECG REMOVAL", 30, "TREATMENT", "2013-12-27", "2013-12-27", 31, 31, ""], ["CDISCPILOT01", "SV", "01-705-1031", 7.0, "WEEK 6", 42, "TREATMENT", "2014-01-12", "2014-01-12", 47, 47, ""], ["CDISCPILOT01", "SV", "01-705-1031", 8.0, "WEEK 8", 56, "TREATMENT", "2014-01-23", "2014-01-23", 58, 58, ""], ["CDISCPILOT01", "SV", "01-705-1031", 8.1, "WEEK 10 (T)", 70, "TREATMENT", "2014-02-06", "2014-02-06", 72, 72, ""], ["CDISCPILOT01", "SV", "01-705-1031", 9.0, "WEEK 12", 84, "TREATMENT", "2014-02-20", "2014-02-20", 86, 86, ""], ["CDISCPILOT01", "SV", "01-705-1031", 9.1, "WEEK 14 (T)", 98, "TREATMENT", "2014-03-06", "2014-03-06", 100, 100, ""], ["CDISCPILOT01", "SV", "01-705-1031", 10.0, "WEEK 16", 112, "TREATMENT", "2014-03-20", "2014-03-20", 114, 114, ""], ["CDISCPILOT01", "SV", "01-705-1031", 10.1, "WEEK 18 (T)", 126, "TREATMENT", "2014-04-03", "2014-04-03", 128, 128, ""], ["CDISCPILOT01", "SV", "01-705-1031", 11.0, "WEEK 20", 140, "TREATMENT", "2014-04-13", "2014-04-13", 138, 138, ""], ["CDISCPILOT01", "SV", "01-705-1031", 11.1, "WEEK 22 (T)", 154, "TREATMENT", "2014-04-26", "2014-04-26", 151, 151, ""], ["CDISCPILOT01", "SV", "01-705-1031", 12.0, "WEEK 24", 168, "TREATMENT", "2014-05-11", "2014-05-11", 166, 166, ""], ["CDISCPILOT01", "SV", "01-705-1058", 1.0, "SCREENING 1", -7, "SCREENING", "2013-12-02", "2013-12-02", null, null, ""], ["CDISCPILOT01", "SV", "01-705-1059", 1.0, "SCREENING 1", -7, "SCREENING", "2013-08-02", "2013-08-02", -3, -3, ""], ["CDISCPILOT01", "SV", "01-705-1059", 2.0, "SCREENING 2", -1, "SCREENING", "2013-08-03", "2013-08-03", -2, -2, ""], ["CDISCPILOT01", "SV", "01-705-1059", 3.0, "BASELINE", 1, "TREATMENT", "2013-08-05", "2013-08-05", 1, 1, ""], ["CDISCPILOT01", "SV", "01-705-1059", 3.5, "AMBUL ECG PLACEMENT", 13, "TREATMENT", "2013-08-18", "2013-08-18", 14, 14, ""], ["CDISCPILOT01", "SV", "01-705-1059", 4.0, "WEEK 2", 14, "TREATMENT", "2013-08-19", "2013-08-19", 15, 15, ""], ["CDISCPILOT01", "SV", "01-705-1059", 5.0, "WEEK 4", 28, "TREATMENT", "2013-09-05", "2013-09-05", 32, 32, ""], ["CDISCPILOT01", "SV", "01-705-1059", 6.0, "AMBUL ECG REMOVAL", 30, "TREATMENT", "2013-09-07", "2013-09-07", 34, 34, ""], ["CDISCPILOT01", "SV", "01-705-1059", 7.0, "WEEK 6", 42, "TREATMENT", "2013-09-19", "2013-09-19", 46, 46, ""], ["CDISCPILOT01", "SV", "01-705-1059", 8.0, "WEEK 8", 56, "TREATMENT", "2013-10-03", "2013-10-03", 60, 60, ""], ["CDISCPILOT01", "SV", "01-705-1059", 8.1, "WEEK 10 (T)", 70, "TREATMENT", "2013-10-17", "2013-10-17", 74, 74, ""], ["CDISCPILOT01", "SV", "01-705-1059", 9.0, "WEEK 12", 84, "TREATMENT", "2013-11-07", "2013-11-07", 95, 95, ""], ["CDISCPILOT01", "SV", "01-705-1059", 9.1, "WEEK 14 (T)", 98, "TREATMENT", "2013-11-21", "2013-11-21", 109, 109, ""], ["CDISCPILOT01", "SV", "01-705-1059", 10.0, "WEEK 16", 112, "TREATMENT", "2013-12-05", "2013-12-05", 123, 123, ""], ["CDISCPILOT01", "SV", "01-705-1059", 101.0, "AE FOLLOW-UP", null, "FOLLOW-UP", "2014-01-02", "2014-01-02", 151, 151, ""], ["CDISCPILOT01", "SV", "01-705-1059", 201.0, "RETRIEVAL", 168, "FOLLOW-UP", "2014-02-06", "2014-02-06", 186, 186, ""], ["CDISCPILOT01", "SV", "01-705-1112", 1.0, "SCREENING 1", -7, "SCREENING", "2014-02-23", "2014-02-23", null, null, ""], ["CDISCPILOT01", "SV", "01-705-1186", 1.0, "SCREENING 1", -7, "SCREENING", "2014-01-03", "2014-01-03", -5, -5, ""], ["CDISCPILOT01", "SV", "01-705-1186", 2.0, "SCREENING 2", -1, "SCREENING", "2014-01-06", "2014-01-06", -2, -2, ""], ["CDISCPILOT01", "SV", "01-705-1186", 3.0, "BASELINE", 1, "TREATMENT", "2014-01-08", "2014-01-08", 1, 1, ""], ["CDISCPILOT01", "SV", "01-705-1186", 3.5, "AMBUL ECG PLACEMENT", 13, "TREATMENT", "2014-01-22", "2014-01-22", 15, 15, ""], ["CDISCPILOT01", "SV", "01-705-1186", 4.0, "WEEK 2", 14, "TREATMENT", "2014-01-23", "2014-01-23", 16, 16, ""], ["CDISCPILOT01", "SV", "01-705-1186", 4.1, "UNSCHEDULED 4.1", null, "TREATMENT", "2014-01-26", "2014-01-26", 19, 19, "Unplanned visit to complete unscheduled assessments"], ["CDISCPILOT01", "SV", "01-705-1186", 4.2, "UNSCHEDULED 4.2", null, "TREATMENT", "2014-02-01", "2014-02-01", 25, 25, "Unplanned visit to complete unscheduled assessments"], ["CDISCPILOT01", "SV", "01-705-1186", 5.0, "WEEK 4", 28, "TREATMENT", "2014-02-07", "2014-02-07", 31, 31, ""], ["CDISCPILOT01", "SV", "01-705-1186", 5.1, "UNSCHEDULED 5.1", null, "TREATMENT", "2014-02-07", "2014-02-07", 31, 31, "Unplanned visit to complete unscheduled assessments"], ["CDISCPILOT01", "SV", "01-705-1199", 1.0, "SCREENING 1", -7, "SCREENING", "2013-09-11", "2013-09-11", -5, -5, ""], ["CDISCPILOT01", "SV", "01-705-1199", 2.0, "SCREENING 2", -1, "SCREENING", "2013-09-14", "2013-09-14", -2, -2, ""], ["CDISCPILOT01", "SV", "01-705-1199", 3.0, "BASELINE", 1, "TREATMENT", "2013-09-16", "2013-09-16", 1, 1, ""], ["CDISCPILOT01", "SV", "01-705-1199", 4.0, "WEEK 2", 14, "TREATMENT", "2013-09-29", "2013-09-29", 14, 14, ""], ["CDISCPILOT01", "SV", "01-705-1199", 101.0, "AE FOLLOW-UP", null, "TREATMENT", "2013-09-29", "2013-09-29", 14, 14, ""], ["CDISCPILOT01", "SV", "01-705-1243", 1.0, "SCREENING 1", -7, "SCREENING", "2013-02-26", "2013-02-26", null, null, ""], ["CDISCPILOT01", "SV", "01-705-1280", 1.0, "SCREENING 1", -7, "SCREENING", "2014-01-11", "2014-01-11", -6, -6, ""], ["CDISCPILOT01", "SV", "01-705-1280", 2.0, "SCREENING 2", -1, "SCREENING", "2014-01-15", "2014-01-15", -2, -2, ""], ["CDISCPILOT01", "SV", "01-705-1280", 3.0, "BASELINE", 1, "TREATMENT", "2014-01-17", "2014-01-17", 1, 1, ""], ["CDISCPILOT01", "SV", "01-705-1280", 3.5, "AMBUL ECG PLACEMENT", 13, "TREATMENT", "2014-01-30", "2014-01-30", 14, 14, ""], ["CDISCPILOT01", "SV", "01-705-1280", 4.0, "WEEK 2", 14, "TREATMENT", "2014-01-31", "2014-01-31", 15, 15, ""], ["CDISCPILOT01", "SV", "01-705-1280", 5.0, "WEEK 4", 28, "TREATMENT", "2014-02-13", "2014-02-13", 28, 28, ""], ["CDISCPILOT01", "SV", "01-705-1280", 6.0, "AMBUL ECG REMOVAL", 30, "TREATMENT", "2014-02-15", "2014-02-15", 30, 30, ""], ["CDISCPILOT01", "SV", "01-705-1280", 7.0, "WEEK 6", 42, "TREATMENT", "2014-03-07", "2014-03-07", 50, 50, ""], ["CDISCPILOT01", "SV", "01-705-1280", 8.0, "WEEK 8", 56, "TREATMENT", "2014-03-21", "2014-03-21", 64, 64, ""], ["CDISCPILOT01", "SV", "01-705-1280", 8.1, "WEEK 10 (T)", 70, "TREATMENT", "2014-04-04", "2014-04-04", 78, 78, ""], ["CDISCPILOT01", "SV", "01-705-1280", 9.0, "WEEK 12", 84, "TREATMENT", "2014-04-18", "2014-04-18", 92, 92, ""], ["CDISCPILOT01", "SV", "01-705-1280", 9.1, "WEEK 14 (T)", 98, "TREATMENT", "2014-05-02", "2014-05-02", 106, 106, ""], ["CDISCPILOT01", "SV", "01-705-1280", 10.0, "WEEK 16", 112, "TREATMENT", "2014-05-16", "2014-05-16", 120, 120, ""], ["CDISCPILOT01", "SV", "01-705-1280", 10.1, "WEEK 18 (T)", 126, "TREATMENT", "2014-05-30", "2014-05-30", 134, 134, ""], ["CDISCPILOT01", "SV", "01-705-1280", 11.0, "WEEK 20", 140, "TREATMENT", "2014-06-13", "2014-06-13", 148, 148, ""], ["CDISCPILOT01", "SV", "01-705-1280", 11.1, "WEEK 22 (T)", 154, "TREATMENT", "2014-06-27", "2014-06-27", 162, 162, ""], ["CDISCPILOT01", "SV", "01-705-1280", 12.0, "WEEK 24", 168, "TREATMENT", "2014-07-11", "2014-07-11", 176, 176, ""], ["CDISCPILOT01", "SV", "01-705-1280", 13.0, "WEEK 26", 182, "TREATMENT", "2014-07-25", "2014-07-25", 190, 190, ""], ["CDISCPILOT01", "SV", "01-705-1281", 1.0, "SCREENING 1", -7, "SCREENING", "2013-11-26", "2013-11-26", -2, -2, ""], ["CDISCPILOT01", "SV", "01-705-1281", 2.0, "SCREENING 2", -1, "SCREENING", "2013-11-26", "2013-11-26", -2, -2, ""], ["CDISCPILOT01", "SV", "01-705-1281", 3.0, "BASELINE", 1, "TREATMENT", "2013-11-28", "2013-11-28", 1, 1, ""], ["CDISCPILOT01", "SV", "01-705-1281", 3.5, "AMBUL ECG PLACEMENT", 13, "TREATMENT", "2013-12-14", "2013-12-14", 17, 17, ""], ["CDISCPILOT01", "SV", "01-705-1281", 4.0, "WEEK 2", 14, "TREATMENT", "2013-12-15", "2013-12-15", 18, 18, ""], ["CDISCPILOT01", "SV", "01-705-1281", 5.0, "WEEK 4", 28, "TREATMENT", "2013-12-28", "2013-12-28", 31, 31, ""], ["CDISCPILOT01", "SV", "01-705-1281", 6.0, "AMBUL ECG REMOVAL", 30, "TREATMENT", "2013-12-30", "2013-12-30", 33, 33, ""], ["CDISCPILOT01", "SV", "01-705-1281", 7.0, "WEEK 6", 42, "TREATMENT", "2014-01-07", "2014-01-07", 41, 41, ""], ["CDISCPILOT01", "SV", "01-705-1281", 8.0, "WEEK 8", 56, "TREATMENT", "2014-01-21", "2014-01-21", 55, 55, ""], ["CDISCPILOT01", "SV", "01-705-1281", 8.1, "WEEK 10 (T)", 70, "TREATMENT", "2014-02-04", "2014-02-04", 69, 69, ""], ["CDISCPILOT01", "SV", "01-705-1281", 9.0, "WEEK 12", 84, "TREATMENT", "2014-02-18", "2014-02-18", 83, 83, ""], ["CDISCPILOT01", "SV", "01-705-1281", 9.1, "WEEK 14 (T)", 98, "TREATMENT", "2014-03-04", "2014-03-04", 97, 97, ""], ["CDISCPILOT01", "SV", "01-705-1281", 10.0, "WEEK 16", 112, "TREATMENT", "2014-03-17", "2014-03-17", 110, 110, ""], ["CDISCPILOT01", "SV", "01-705-1281", 101.0, "AE FOLLOW-UP", null, "FOLLOW-UP", "2014-04-20", "2014-04-20", 144, 144, ""], ["CDISCPILOT01", "SV", "01-705-1282", 1.0, "SCREENING 1", -7, "SCREENING", "2012-12-23", "2012-12-23", -3, -3, ""], ["CDISCPILOT01", "SV", "01-705-1282", 2.0, "SCREENING 2", -1, "SCREENING", "2012-12-24", "2012-12-24", -2, -2, ""], ["CDISCPILOT01", "SV", "01-705-1282", 3.0, "BASELINE", 1, "TREATMENT", "2012-12-26", "2012-12-26", 1, 1, ""], ["CDISCPILOT01", "SV", "01-705-1282", 3.5, "AMBUL ECG PLACEMENT", 13, "TREATMENT", "2013-01-08", "2013-01-08", 14, 14, ""], ["CDISCPILOT01", "SV", "01-705-1282", 4.0, "WEEK 2", 14, "TREATMENT", "2013-01-09", "2013-01-09", 15, 15, ""], ["CDISCPILOT01", "SV", "01-705-1282", 5.0, "WEEK 4", 28, "TREATMENT", "2013-01-21", "2013-01-21", 27, 27, ""], ["CDISCPILOT01", "SV", "01-705-1282", 6.0, "AMBUL ECG REMOVAL", 30, "TREATMENT", "2013-01-23", "2013-01-23", 29, 29, ""], ["CDISCPILOT01", "SV", "01-705-1282", 7.0, "WEEK 6", 42, "TREATMENT", "2013-02-07", "2013-02-07", 44, 44, ""], ["CDISCPILOT01", "SV", "01-705-1282", 8.0, "WEEK 8", 56, "TREATMENT", "2013-02-20", "2013-02-20", 57, 57, ""], ["CDISCPILOT01", "SV", "01-705-1282", 8.1, "WEEK 10 (T)", 70, "TREATMENT", "2013-03-06", "2013-03-06", 71, 71, ""], ["CDISCPILOT01", "SV", "01-705-1282", 9.0, "WEEK 12", 84, "TREATMENT", "2013-03-20", "2013-03-20", 85, 85, ""], ["CDISCPILOT01", "SV", "01-705-1282", 9.1, "WEEK 14 (T)", 98, "TREATMENT", "2013-04-03", "2013-04-03", 99, 99, ""], ["CDISCPILOT01", "SV", "01-705-1282", 10.0, "WEEK 16", 112, "TREATMENT", "2013-04-16", "2013-04-16", 112, 112, ""], ["CDISCPILOT01", "SV", "01-705-1282", 10.1, "WEEK 18 (T)", 126, "TREATMENT", "2013-04-30", "2013-04-30", 126, 126, ""], ["CDISCPILOT01", "SV", "01-705-1282", 11.0, "WEEK 20", 140, "TREATMENT", "2013-05-14", "2013-05-14", 140, 140, ""], ["CDISCPILOT01", "SV", "01-705-1282", 11.1, "WEEK 22 (T)", 154, "TREATMENT", "2013-05-28", "2013-05-28", 154, 154, ""], ["CDISCPILOT01", "SV", "01-705-1282", 12.0, "WEEK 24", 168, "TREATMENT", "2013-06-11", "2013-06-11", 168, 168, ""], ["CDISCPILOT01", "SV", "01-705-1282", 13.0, "WEEK 26", 182, "TREATMENT", "2013-06-24", "2013-06-24", 181, 181, ""], ["CDISCPILOT01", "SV", "01-705-1292", 1.0, "SCREENING 1", -7, "SCREENING", "2013-10-11", "2013-10-11", -3, -3, ""], ["CDISCPILOT01", "SV", "01-705-1292", 2.0, "SCREENING 2", -1, "SCREENING", "2013-10-12", "2013-10-12", -2, -2, ""], ["CDISCPILOT01", "SV", "01-705-1292", 3.0, "BASELINE", 1, "TREATMENT", "2013-10-14", "2013-10-14", 1, 1, ""], ["CDISCPILOT01", "SV", "01-705-1292", 3.5, "AMBUL ECG PLACEMENT", 13, "TREATMENT", "2013-10-28", "2013-10-28", 15, 15, ""], ["CDISCPILOT01", "SV", "01-705-1292", 4.0, "WEEK 2", 14, "TREATMENT", "2013-10-29", "2013-10-29", 16, 16, ""], ["CDISCPILOT01", "SV", "01-705-1292", 5.0, "WEEK 4", 28, "TREATMENT", "2013-11-22", "2013-11-22", 40, 40, ""], ["CDISCPILOT01", "SV", "01-705-1292", 5.1, "UNSCHEDULED 5.1", null, "TREATMENT", "2013-11-25", "2013-11-25", 43, 43, "Unplanned visit to complete unscheduled assessments"], ["CDISCPILOT01", "SV", "01-705-1292", 6.0, "AMBUL ECG REMOVAL", 30, "TREATMENT", "2013-11-25", "2013-11-25", 43, 43, ""], ["CDISCPILOT01", "SV", "01-705-1292", 7.0, "WEEK 6", 42, "TREATMENT", "2013-12-11", "2013-12-11", 59, 59, ""], ["CDISCPILOT01", "SV", "01-705-1292", 8.0, "WEEK 8", 56, "TREATMENT", "2014-01-02", "2014-01-02", 81, 81, ""], ["CDISCPILOT01", "SV", "01-705-1292", 8.1, "WEEK 10 (T)", 70, "TREATMENT", "2014-01-16", "2014-01-16", 95, 95, ""], ["CDISCPILOT01", "SV", "01-705-1292", 9.0, "WEEK 12", 84, "TREATMENT", "2014-02-07", "2014-02-07", 117, 117, ""], ["CDISCPILOT01", "SV", "01-705-1292", 9.1, "WEEK 14 (T)", 98, "TREATMENT", "2014-02-21", "2014-02-21", 131, 131, ""], ["CDISCPILOT01", "SV", "01-705-1292", 10.0, "WEEK 16", 112, "TREATMENT", "2014-03-03", "2014-03-03", 141, 141, ""], ["CDISCPILOT01", "SV", "01-705-1292", 10.1, "WEEK 18 (T)", 126, "TREATMENT", "2014-03-17", "2014-03-17", 155, 155, ""], ["CDISCPILOT01", "SV", "01-705-1292", 11.0, "WEEK 20", 140, "TREATMENT", "2014-03-31", "2014-03-31", 169, 169, ""], ["CDISCPILOT01", "SV", "01-705-1292", 11.1, "WEEK 22 (T)", 154, "TREATMENT", "2014-04-14", "2014-04-14", 183, 183, ""], ["CDISCPILOT01", "SV", "01-705-1292", 12.0, "WEEK 24", 168, "TREATMENT", "2014-04-28", "2014-04-28", 197, 197, ""], ["CDISCPILOT01", "SV", "01-705-1292", 13.0, "WEEK 26", 182, "TREATMENT", "2014-05-14", "2014-05-14", 213, 213, ""], ["CDISCPILOT01", "SV", "01-705-1303", 1.0, "SCREENING 1", -7, "SCREENING", "2013-12-10", "2013-12-10", -6, -6, ""], ["CDISCPILOT01", "SV", "01-705-1303", 2.0, "SCREENING 2", -1, "SCREENING", "2013-12-14", "2013-12-14", -2, -2, ""], ["CDISCPILOT01", "SV", "01-705-1303", 3.0, "BASELINE", 1, "TREATMENT", "2013-12-16", "2013-12-16", 1, 1, ""], ["CDISCPILOT01", "SV", "01-705-1303", 3.5, "AMBUL ECG PLACEMENT", 13, "TREATMENT", "2013-12-29", "2013-12-29", 14, 14, ""], ["CDISCPILOT01", "SV", "01-705-1303", 4.0, "WEEK 2", 14, "TREATMENT", "2013-12-30", "2013-12-30", 15, 15, ""], ["CDISCPILOT01", "SV", "01-705-1303", 5.0, "WEEK 4", 28, "TREATMENT", "2014-01-12", "2014-01-12", 28, 28, ""], ["CDISCPILOT01", "SV", "01-705-1303", 6.0, "AMBUL ECG REMOVAL", 30, "TREATMENT", "2014-01-14", "2014-01-14", 30, 30, ""], ["CDISCPILOT01", "SV", "01-705-1303", 7.0, "WEEK 6", 42, "TREATMENT", "2014-01-26", "2014-01-26", 42, 42, ""], ["CDISCPILOT01", "SV", "01-705-1303", 8.0, "WEEK 8", 56, "TREATMENT", "2014-02-10", "2014-02-10", 57, 57, ""], ["CDISCPILOT01", "SV", "01-705-1303", 8.1, "WEEK 10 (T)", 70, "TREATMENT", "2014-02-24", "2014-02-24", 71, 71, ""], ["CDISCPILOT01", "SV", "01-705-1303", 9.0, "WEEK 12", 84, "TREATMENT", "2014-03-03", "2014-03-03", 78, 78, ""], ["CDISCPILOT01", "SV", "01-705-1303", 9.1, "WEEK 14 (T)", 98, "TREATMENT", "2014-03-17", "2014-03-17", 92, 92, ""], ["CDISCPILOT01", "SV", "01-705-1303", 10.0, "WEEK 16", 112, "TREATMENT", "2014-04-07", "2014-04-07", 113, 113, ""], ["CDISCPILOT01", "SV", "01-705-1303", 10.1, "WEEK 18 (T)", 126, "TREATMENT", "2014-04-21", "2014-04-21", 127, 127, ""], ["CDISCPILOT01", "SV", "01-705-1303", 11.0, "WEEK 20", 140, "TREATMENT", "2014-06-02", "2014-06-02", 169, 169, ""], ["CDISCPILOT01", "SV", "01-705-1310", 1.0, "SCREENING 1", -7, "SCREENING", "2013-10-26", "2013-10-26", -7, -7, ""], ["CDISCPILOT01", "SV", "01-705-1310", 2.0, "SCREENING 2", -1, "SCREENING", "2013-10-31", "2013-10-31", -2, -2, ""], ["CDISCPILOT01", "SV", "01-705-1310", 3.0, "BASELINE", 1, "TREATMENT", "2013-11-02", "2013-11-02", 1, 1, ""], ["CDISCPILOT01", "SV", "01-705-1310", 3.5, "AMBUL ECG PLACEMENT", 13, "TREATMENT", "2013-11-21", "2013-11-21", 20, 20, ""], ["CDISCPILOT01", "SV", "01-705-1310", 4.0, "WEEK 2", 14, "TREATMENT", "2013-11-22", "2013-11-22", 21, 21, ""], ["CDISCPILOT01", "SV", "01-705-1310", 5.0, "WEEK 4", 28, "TREATMENT", "2013-11-30", "2013-11-30", 29, 29, ""], ["CDISCPILOT01", "SV", "01-705-1310", 6.0, "AMBUL ECG REMOVAL", 30, "TREATMENT", "2013-12-02", "2013-12-02", 31, 31, ""], ["CDISCPILOT01", "SV", "01-705-1310", 7.0, "WEEK 6", 42, "TREATMENT", "2013-12-16", "2013-12-16", 45, 45, ""], ["CDISCPILOT01", "SV", "01-705-1310", 8.0, "WEEK 8", 56, "TREATMENT", "2013-12-26", "2013-12-26", 55, 55, ""], ["CDISCPILOT01", "SV", "01-705-1310", 8.1, "WEEK 10 (T)", 70, "TREATMENT", "2014-01-10", "2014-01-10", 70, 70, ""], ["CDISCPILOT01", "SV", "01-705-1310", 8.2, "UNSCHEDULED 8.2", null, "TREATMENT", "2014-01-10", "2014-01-10", 70, 70, "Unplanned visit to complete unscheduled assessments"], ["CDISCPILOT01", "SV", "01-705-1310", 9.0, "WEEK 12", 84, "TREATMENT", "2014-01-23", "2014-01-23", 83, 83, ""], ["CDISCPILOT01", "SV", "01-705-1310", 101.0, "AE FOLLOW-UP", null, "FOLLOW-UP", "2014-02-24", "2014-02-24", 115, 115, ""], ["CDISCPILOT01", "SV", "01-705-1349", 1.0, "SCREENING 1", -7, "SCREENING", "2013-02-24", "2013-02-24", -14, -14, ""], ["CDISCPILOT01", "SV", "01-705-1349", 1.1, "UNSCHEDULED 1.1", null, "SCREENING", "2013-03-03", "2013-03-03", -7, -7, "Unplanned visit to complete unscheduled assessments"], ["CDISCPILOT01", "SV", "01-705-1349", 2.0, "SCREENING 2", -1, "SCREENING", "2013-03-08", "2013-03-08", -2, -2, ""], ["CDISCPILOT01", "SV", "01-705-1349", 3.0, "BASELINE", 1, "TREATMENT", "2013-03-10", "2013-03-10", 1, 1, ""], ["CDISCPILOT01", "SV", "01-705-1349", 3.5, "AMBUL ECG PLACEMENT", 13, "TREATMENT", "2013-03-23", "2013-03-23", 14, 14, ""], ["CDISCPILOT01", "SV", "01-705-1349", 4.0, "WEEK 2", 14, "TREATMENT", "2013-03-24", "2013-03-24", 15, 15, ""], ["CDISCPILOT01", "SV", "01-705-1349", 5.0, "WEEK 4", 28, "TREATMENT", "2013-04-04", "2013-04-04", 26, 26, ""], ["CDISCPILOT01", "SV", "01-705-1349", 6.0, "AMBUL ECG REMOVAL", 30, "TREATMENT", "2013-04-17", "2013-04-17", 39, 39, ""], ["CDISCPILOT01", "SV", "01-705-1349", 7.0, "WEEK 6", 42, "TREATMENT", "2013-04-17", "2013-04-17", 39, 39, ""], ["CDISCPILOT01", "SV", "01-705-1349", 8.0, "WEEK 8", 56, "TREATMENT", "2013-05-01", "2013-05-01", 53, 53, ""], ["CDISCPILOT01", "SV", "01-705-1349", 8.1, "WEEK 10 (T)", 70, "TREATMENT", "2013-05-15", "2013-05-15", 67, 67, ""], ["CDISCPILOT01", "SV", "01-705-1349", 9.0, "WEEK 12", 84, "TREATMENT", "2013-05-28", "2013-05-28", 80, 80, ""], ["CDISCPILOT01", "SV", "01-705-1349", 9.1, "WEEK 14 (T)", 98, "TREATMENT", "2013-06-11", "2013-06-11", 94, 94, ""], ["CDISCPILOT01", "SV", "01-705-1349", 10.0, "WEEK 16", 112, "TREATMENT", "2013-06-25", "2013-06-25", 108, 108, ""], ["CDISCPILOT01", "SV", "01-705-1349", 10.1, "WEEK 18 (T)", 126, "TREATMENT", "2013-07-09", "2013-07-09", 122, 122, ""], ["CDISCPILOT01", "SV", "01-705-1349", 11.0, "WEEK 20", 140, "TREATMENT", "2013-07-23", "2013-07-23", 136, 136, ""], ["CDISCPILOT01", "SV", "01-705-1349", 11.1, "WEEK 22 (T)", 154, "TREATMENT", "2013-08-06", "2013-08-06", 150, 150, ""], ["CDISCPILOT01", "SV", "01-705-1349", 12.0, "WEEK 24", 168, "TREATMENT", "2013-08-25", "2013-08-25", 169, 169, ""], ["CDISCPILOT01", "SV", "01-705-1349", 13.0, "WEEK 26", 182, "TREATMENT", "2013-09-08", "2013-09-08", 183, 183, ""], ["CDISCPILOT01", "SV", "01-705-1377", 1.0, "SCREENING 1", -7, "SCREENING", "2013-12-29", "2013-12-29", -6, -6, ""], ["CDISCPILOT01", "SV", "01-705-1377", 2.0, "SCREENING 2", -1, "SCREENING", "2014-01-02", "2014-01-02", -2, -2, ""], ["CDISCPILOT01", "SV", "01-705-1377", 3.0, "BASELINE", 1, "TREATMENT", "2014-01-04", "2014-01-04", 1, 1, ""], ["CDISCPILOT01", "SV", "01-705-1377", 3.5, "AMBUL ECG PLACEMENT", 13, "TREATMENT", "2014-01-24", "2014-01-24", 21, 21, ""], ["CDISCPILOT01", "SV", "01-705-1377", 4.0, "WEEK 2", 14, "TREATMENT", "2014-01-25", "2014-01-25", 22, 22, ""], ["CDISCPILOT01", "SV", "01-705-1377", 5.0, "WEEK 4", 28, "TREATMENT", "2014-02-07", "2014-02-07", 35, 35, ""], ["CDISCPILOT01", "SV", "01-705-1377", 6.0, "AMBUL ECG REMOVAL", 30, "TREATMENT", "2014-02-09", "2014-02-09", 37, 37, ""], ["CDISCPILOT01", "SV", "01-705-1377", 7.0, "WEEK 6", 42, "TREATMENT", "2014-03-07", "2014-03-07", 63, 63, ""], ["CDISCPILOT01", "SV", "01-705-1382", 1.0, "SCREENING 1", -7, "SCREENING", "2013-05-09", "2013-05-09", -4, -4, ""], ["CDISCPILOT01", "SV", "01-705-1382", 2.0, "SCREENING 2", -1, "SCREENING", "2013-05-11", "2013-05-11", -2, -2, ""], ["CDISCPILOT01", "SV", "01-705-1382", 3.0, "BASELINE", 1, "TREATMENT", "2013-05-13", "2013-05-13", 1, 1, ""], ["CDISCPILOT01", "SV", "01-705-1382", 4.0, "WEEK 2", 14, "TREATMENT", "2013-05-13", "2013-05-13", 1, 1, ""], ["CDISCPILOT01", "SV", "01-705-1393", 1.0, "SCREENING 1", -7, "SCREENING", "2012-09-02", "2012-09-02", -5, -5, ""], ["CDISCPILOT01", "SV", "01-705-1393", 1.1, "UNSCHEDULED 1.1", null, "SCREENING", "2012-09-05", "2012-09-05", -2, -2, "Unplanned visit to complete unscheduled assessments"], ["CDISCPILOT01", "SV", "01-705-1393", 2.0, "SCREENING 2", -1, "SCREENING", "2012-09-05", "2012-09-05", -2, -2, ""], ["CDISCPILOT01", "SV", "01-705-1393", 3.0, "BASELINE", 1, "TREATMENT", "2012-09-07", "2012-09-07", 1, 1, ""], ["CDISCPILOT01", "SV", "01-705-1393", 3.5, "AMBUL ECG PLACEMENT", 13, "TREATMENT", "2012-09-26", "2012-09-26", 20, 20, ""], ["CDISCPILOT01", "SV", "01-705-1393", 4.0, "WEEK 2", 14, "TREATMENT", "2012-09-27", "2012-09-27", 21, 21, ""], ["CDISCPILOT01", "SV", "01-705-1393", 5.0, "WEEK 4", 28, "TREATMENT", "2012-10-10", "2012-10-10", 34, 34, ""], ["CDISCPILOT01", "SV", "01-705-1393", 6.0, "AMBUL ECG REMOVAL", 30, "TREATMENT", "2012-10-12", "2012-10-12", 36, 36, ""], ["CDISCPILOT01", "SV", "01-705-1393", 7.0, "WEEK 6", 42, "TREATMENT", "2012-10-26", "2012-10-26", 50, 50, ""], ["CDISCPILOT01", "SV", "01-705-1393", 8.0, "WEEK 8", 56, "TREATMENT", "2012-11-02", "2012-11-02", 57, 57, ""], ["CDISCPILOT01", "SV", "01-705-1393", 8.1, "WEEK 10 (T)", 70, "TREATMENT", "2012-11-16", "2012-11-16", 71, 71, ""], ["CDISCPILOT01", "SV", "01-705-1393", 9.0, "WEEK 12", 84, "TREATMENT", "2012-12-05", "2012-12-05", 90, 90, ""], ["CDISCPILOT01", "SV", "01-705-1393", 9.1, "WEEK 14 (T)", 98, "TREATMENT", "2012-12-20", "2012-12-20", 105, 105, ""], ["CDISCPILOT01", "SV", "01-705-1393", 10.0, "WEEK 16", 112, "TREATMENT", "2013-01-02", "2013-01-02", 118, 118, ""], ["CDISCPILOT01", "SV", "01-705-1393", 10.1, "WEEK 18 (T)", 126, "TREATMENT", "2013-01-16", "2013-01-16", 132, 132, ""], ["CDISCPILOT01", "SV", "01-705-1393", 11.0, "WEEK 20", 140, "TREATMENT", "2013-02-20", "2013-02-20", 167, 167, ""], ["CDISCPILOT01", "SV", "01-705-1393", 101.0, "AE FOLLOW-UP", null, "FOLLOW-UP", "2013-04-25", "2013-04-25", 231, 231, ""], ["CDISCPILOT01", "SV", "01-705-1421", 1.0, "SCREENING 1", -7, "SCREENING", "2013-01-14", "2013-01-14", null, null, ""], ["CDISCPILOT01", "SV", "01-705-1431", 1.0, "SCREENING 1", -7, "SCREENING", "2013-06-16", "2013-06-16", -7, -7, ""], ["CDISCPILOT01", "SV", "01-705-1431", 2.0, "SCREENING 2", -1, "SCREENING", "2013-06-21", "2013-06-21", -2, -2, ""], ["CDISCPILOT01", "SV", "01-705-1431", 3.0, "BASELINE", 1, "TREATMENT", "2013-06-23", "2013-06-23", 1, 1, ""], ["CDISCPILOT01", "SV", "01-705-1431", 3.5, "AMBUL ECG PLACEMENT", 13, "TREATMENT", "2013-07-06", "2013-07-06", 14, 14, ""], ["CDISCPILOT01", "SV", "01-705-1431", 4.0, "WEEK 2", 14, "TREATMENT", "2013-07-07", "2013-07-07", 15, 15, ""], ["CDISCPILOT01", "SV", "01-705-1431", 5.0, "WEEK 4", 28, "TREATMENT", "2013-07-20", "2013-07-20", 28, 28, ""], ["CDISCPILOT01", "SV", "01-705-1431", 6.0, "AMBUL ECG REMOVAL", 30, "TREATMENT", "2013-07-22", "2013-07-22", 30, 30, ""], ["CDISCPILOT01", "SV", "01-705-1431", 7.0, "WEEK 6", 42, "TREATMENT", "2013-08-07", "2013-08-07", 46, 46, ""], ["CDISCPILOT01", "SV", "01-705-1431", 8.0, "WEEK 8", 56, "TREATMENT", "2013-08-21", "2013-08-21", 60, 60, ""], ["CDISCPILOT01", "SV", "01-705-1431", 8.1, "WEEK 10 (T)", 70, "TREATMENT", "2013-09-04", "2013-09-04", 74, 74, ""], ["CDISCPILOT01", "SV", "01-705-1431", 9.0, "WEEK 12", 84, "TREATMENT", "2013-09-18", "2013-09-18", 88, 88, ""], ["CDISCPILOT01", "SV", "01-705-1431", 9.1, "WEEK 14 (T)", 98, "TREATMENT", "2013-10-02", "2013-10-02", 102, 102, ""], ["CDISCPILOT01", "SV", "01-705-1431", 10.0, "WEEK 16", 112, "TREATMENT", "2013-10-17", "2013-10-17", 117, 117, ""], ["CDISCPILOT01", "SV", "01-705-1431", 10.1, "WEEK 18 (T)", 126, "TREATMENT", "2013-10-30", "2013-10-30", 130, 130, ""], ["CDISCPILOT01", "SV", "01-705-1431", 11.0, "WEEK 20", 140, "TREATMENT", "2013-11-13", "2013-11-13", 144, 144, ""], ["CDISCPILOT01", "SV", "01-705-1431", 11.1, "WEEK 22 (T)", 154, "TREATMENT", "2013-11-27", "2013-11-27", 158, 158, ""], ["CDISCPILOT01", "SV", "01-705-1431", 12.0, "WEEK 24", 168, "TREATMENT", "2013-12-05", "2013-12-05", 166, 166, ""], ["CDISCPILOT01", "SV", "01-705-1431", 13.0, "WEEK 26", 182, "TREATMENT", "2013-12-19", "2013-12-19", 180, 180, ""], ["CDISCPILOT01", "SV", "01-706-1041", 1.0, "SCREENING 1", -7, "SCREENING", "2013-12-21", "2013-12-21", -10, -10, ""], ["CDISCPILOT01", "SV", "01-706-1041", 2.0, "SCREENING 2", -1, "SCREENING", "2013-12-28", "2013-12-28", -3, -3, ""], ["CDISCPILOT01", "SV", "01-706-1041", 3.0, "BASELINE", 1, "TREATMENT", "2013-12-31", "2013-12-31", 1, 1, ""], ["CDISCPILOT01", "SV", "01-706-1041", 3.5, "AMBUL ECG PLACEMENT", 13, "TREATMENT", "2014-01-11", "2014-01-11", 12, 12, ""], ["CDISCPILOT01", "SV", "01-706-1041", 4.0, "WEEK 2", 14, "TREATMENT", "2014-01-14", "2014-01-14", 15, 15, ""], ["CDISCPILOT01", "SV", "01-706-1041", 5.0, "WEEK 4", 28, "TREATMENT", "2014-01-28", "2014-01-28", 29, 29, ""], ["CDISCPILOT01", "SV", "01-706-1041", 6.0, "AMBUL ECG REMOVAL", 30, "TREATMENT", "2014-01-30", "2014-01-30", 31, 31, ""], ["CDISCPILOT01", "SV", "01-706-1041", 7.0, "WEEK 6", 42, "TREATMENT", "2014-02-11", "2014-02-11", 43, 43, ""], ["CDISCPILOT01", "SV", "01-706-1041", 8.0, "WEEK 8", 56, "TREATMENT", "2014-03-04", "2014-03-04", 64, 64, ""], ["CDISCPILOT01", "SV", "01-706-1041", 8.1, "WEEK 10 (T)", 70, "TREATMENT", "2014-03-18", "2014-03-18", 78, 78, ""], ["CDISCPILOT01", "SV", "01-706-1041", 9.0, "WEEK 12", 84, "TREATMENT", "2014-04-01", "2014-04-01", 92, 92, ""], ["CDISCPILOT01", "SV", "01-706-1041", 9.1, "WEEK 14 (T)", 98, "TREATMENT", "2014-04-22", "2014-04-22", 113, 113, ""], ["CDISCPILOT01", "SV", "01-706-1041", 10.0, "WEEK 16", 112, "TREATMENT", "2014-05-06", "2014-05-06", 127, 127, ""], ["CDISCPILOT01", "SV", "01-706-1041", 10.1, "WEEK 18 (T)", 126, "TREATMENT", "2014-05-20", "2014-05-20", 141, 141, ""], ["CDISCPILOT01", "SV", "01-706-1041", 11.0, "WEEK 20", 140, "TREATMENT", "2014-06-10", "2014-06-10", 162, 162, ""], ["CDISCPILOT01", "SV", "01-706-1041", 11.1, "WEEK 22 (T)", 154, "TREATMENT", "2014-06-26", "2014-06-26", 178, 178, ""], ["CDISCPILOT01", "SV", "01-706-1041", 12.0, "WEEK 24", 168, "TREATMENT", "2014-07-15", "2014-07-15", 197, 197, ""], ["CDISCPILOT01", "SV", "01-706-1041", 13.0, "WEEK 26", 182, "TREATMENT", "2014-07-29", "2014-07-29", 211, 211, ""], ["CDISCPILOT01", "SV", "01-706-1049", 1.0, "SCREENING 1", -7, "SCREENING", "2013-04-30", "2013-04-30", -14, -14, ""], ["CDISCPILOT01", "SV", "01-706-1049", 2.0, "SCREENING 2", -1, "SCREENING", "2013-05-11", "2013-05-11", -3, -3, ""], ["CDISCPILOT01", "SV", "01-706-1049", 3.0, "BASELINE", 1, "TREATMENT", "2013-05-14", "2013-05-14", 1, 1, ""], ["CDISCPILOT01", "SV", "01-706-1049", 3.5, "AMBUL ECG PLACEMENT", 13, "TREATMENT", "2013-05-25", "2013-05-25", 12, 12, ""], ["CDISCPILOT01", "SV", "01-706-1049", 4.0, "WEEK 2", 14, "TREATMENT", "2013-05-28", "2013-05-28", 15, 15, ""], ["CDISCPILOT01", "SV", "01-706-1049", 5.0, "WEEK 4", 28, "TREATMENT", "2013-06-11", "2013-06-11", 29, 29, ""], ["CDISCPILOT01", "SV", "01-706-1049", 6.0, "AMBUL ECG REMOVAL", 30, "TREATMENT", "2013-06-13", "2013-06-13", 31, 31, ""], ["CDISCPILOT01", "SV", "01-706-1049", 7.0, "WEEK 6", 42, "TREATMENT", "2013-06-25", "2013-06-25", 43, 43, ""], ["CDISCPILOT01", "SV", "01-706-1049", 101.0, "AE FOLLOW-UP", null, "FOLLOW-UP", "2013-08-20", "2013-08-20", 99, 99, ""], ["CDISCPILOT01", "SV", "01-706-1049", 201.0, "RETRIEVAL", 168, "FOLLOW-UP", "2013-11-26", "2013-11-26", 197, 197, ""], ["CDISCPILOT01", "SV", "01-706-1384", 1.0, "SCREENING 1", -7, "SCREENING", "2012-08-25", "2012-08-25", -21, -21, ""], ["CDISCPILOT01", "SV", "01-706-1384", 1.1, "UNSCHEDULED 1.1", null, "SCREENING", "2012-08-28", "2012-08-28", -18, -18, "Unplanned visit to complete unscheduled assessments"], ["CDISCPILOT01", "SV", "01-706-1384", 2.0, "SCREENING 2", -1, "SCREENING", "2012-09-12", "2012-09-12", -3, -3, ""], ["CDISCPILOT01", "SV", "01-706-1384", 3.0, "BASELINE", 1, "TREATMENT", "2012-09-15", "2012-09-15", 1, 1, ""], ["CDISCPILOT01", "SV", "01-706-1384", 4.0, "WEEK 2", 14, "TREATMENT", "2012-09-29", "2012-09-29", 15, 15, ""], ["CDISCPILOT01", "SV", "01-706-1384", 201.0, "RETRIEVAL", 168, "FOLLOW-UP", "2013-06-22", "2013-06-22", 281, 281, ""], ["CDISCPILOT01", "SV", "01-707-1037", 1.0, "SCREENING 1", -7, "SCREENING", "2013-12-12", "2013-12-12", -8, -8, ""], ["CDISCPILOT01", "SV", "01-707-1037", 2.0, "SCREENING 2", -1, "SCREENING", "2013-12-18", "2013-12-18", -2, -2, ""], ["CDISCPILOT01", "SV", "01-707-1037", 3.0, "BASELINE", 1, "TREATMENT", "2013-12-20", "2013-12-20", 1, 1, ""], ["CDISCPILOT01", "SV", "01-707-1037", 4.0, "WEEK 2", 14, "TREATMENT", "2014-01-08", "2014-01-08", 20, 20, ""], ["CDISCPILOT01", "SV", "01-707-1206", 1.0, "SCREENING 1", -7, "SCREENING", "2013-10-20", "2013-10-20", -8, -8, ""], ["CDISCPILOT01", "SV", "01-707-1206", 2.0, "SCREENING 2", -1, "SCREENING", "2013-10-26", "2013-10-26", -2, -2, ""], ["CDISCPILOT01", "SV", "01-707-1206", 3.0, "BASELINE", 1, "TREATMENT", "2013-10-28", "2013-10-28", 1, 1, ""], ["CDISCPILOT01", "SV", "01-707-1206", 3.5, "AMBUL ECG PLACEMENT", 13, "TREATMENT", "2013-11-11", "2013-11-11", 15, 15, ""], ["CDISCPILOT01", "SV", "01-707-1206", 4.0, "WEEK 2", 14, "TREATMENT", "2013-11-12", "2013-11-12", 16, 16, ""], ["CDISCPILOT01", "SV", "01-707-1206", 5.0, "WEEK 4", 28, "TREATMENT", "2013-11-25", "2013-11-25", 29, 29, ""], ["CDISCPILOT01", "SV", "01-707-1206", 6.0, "AMBUL ECG REMOVAL", 30, "TREATMENT", "2013-11-27", "2013-11-27", 31, 31, ""], ["CDISCPILOT01", "SV", "01-707-1206", 7.0, "WEEK 6", 42, "TREATMENT", "2013-12-09", "2013-12-09", 43, 43, ""], ["CDISCPILOT01", "SV", "01-707-1206", 8.0, "WEEK 8", 56, "TREATMENT", "2013-12-23", "2013-12-23", 57, 57, ""], ["CDISCPILOT01", "SV", "01-707-1206", 8.1, "WEEK 10 (T)", 70, "TREATMENT", "2014-01-05", "2014-01-05", 70, 70, ""], ["CDISCPILOT01", "SV", "01-707-1206", 9.0, "WEEK 12", 84, "TREATMENT", "2014-01-19", "2014-01-19", 84, 84, ""], ["CDISCPILOT01", "SV", "01-707-1206", 9.1, "WEEK 14 (T)", 98, "TREATMENT", "2014-02-02", "2014-02-02", 98, 98, ""], ["CDISCPILOT01", "SV", "01-707-1206", 10.0, "WEEK 16", 112, "TREATMENT", "2014-02-16", "2014-02-16", 112, 112, ""], ["CDISCPILOT01", "SV", "01-707-1206", 10.1, "WEEK 18 (T)", 126, "TREATMENT", "2014-03-01", "2014-03-01", 125, 125, ""], ["CDISCPILOT01", "SV", "01-707-1206", 11.0, "WEEK 20", 140, "TREATMENT", "2014-03-16", "2014-03-16", 140, 140, ""], ["CDISCPILOT01", "SV", "01-707-1206", 11.1, "WEEK 22 (T)", 154, "TREATMENT", "2014-03-30", "2014-03-30", 154, 154, ""], ["CDISCPILOT01", "SV", "01-707-1206", 12.0, "WEEK 24", 168, "TREATMENT", "2014-04-13", "2014-04-13", 168, 168, ""], ["CDISCPILOT01", "SV", "01-707-1206", 13.0, "WEEK 26", 182, "TREATMENT", "2014-04-27", "2014-04-27", 182, 182, ""], ["CDISCPILOT01", "SV", "01-707-1276", 1.0, "SCREENING 1", -7, "SCREENING", "2012-10-12", "2012-10-12", null, null, ""], ["CDISCPILOT01", "SV", "01-707-1430", 1.0, "SCREENING 1", -7, "SCREENING", "2014-02-14", "2014-02-14", null, null, ""], ["CDISCPILOT01", "SV", "01-707-1434", 1.0, "SCREENING 1", -7, "SCREENING", "2013-07-25", "2013-07-25", null, null, ""], ["CDISCPILOT01", "SV", "01-708-1013", 1.0, "SCREENING 1", -7, "SCREENING", "2012-10-13", "2012-10-13", null, null, ""], ["CDISCPILOT01", "SV", "01-708-1019", 1.0, "SCREENING 1", -7, "SCREENING", "2013-12-10", "2013-12-10", -10, -10, ""], ["CDISCPILOT01", "SV", "01-708-1019", 2.0, "SCREENING 2", -1, "SCREENING", "2013-12-17", "2013-12-17", -3, -3, ""], ["CDISCPILOT01", "SV", "01-708-1019", 3.0, "BASELINE", 1, "TREATMENT", "2013-12-20", "2013-12-20", 1, 1, ""], ["CDISCPILOT01", "SV", "01-708-1019", 4.0, "WEEK 2", 14, "TREATMENT", "2014-01-23", "2014-01-23", 35, 35, ""], ["CDISCPILOT01", "SV", "01-708-1032", 1.0, "SCREENING 1", -7, "SCREENING", "2013-02-02", "2013-02-02", -7, -7, ""], ["CDISCPILOT01", "SV", "01-708-1032", 2.0, "SCREENING 2", -1, "SCREENING", "2013-02-07", "2013-02-07", -2, -2, ""], ["CDISCPILOT01", "SV", "01-708-1032", 3.0, "BASELINE", 1, "TREATMENT", "2013-02-09", "2013-02-09", 1, 1, ""], ["CDISCPILOT01", "SV", "01-708-1032", 3.5, "AMBUL ECG PLACEMENT", 13, "TREATMENT", "2013-02-22", "2013-02-22", 14, 14, ""], ["CDISCPILOT01", "SV", "01-708-1032", 4.0, "WEEK 2", 14, "TREATMENT", "2013-02-23", "2013-02-23", 15, 15, ""], ["CDISCPILOT01", "SV", "01-708-1032", 5.0, "WEEK 4", 28, "TREATMENT", "2013-03-09", "2013-03-09", 29, 29, ""], ["CDISCPILOT01", "SV", "01-708-1054", 1.0, "SCREENING 1", -7, "SCREENING", "2014-02-14", "2014-02-14", null, null, ""], ["CDISCPILOT01", "SV", "01-708-1067", 1.0, "SCREENING 1", -7, "SCREENING", "2013-02-07", "2013-02-07", null, null, ""], ["CDISCPILOT01", "SV", "01-708-1084", 1.0, "SCREENING 1", -7, "SCREENING", "2013-05-01", "2013-05-01", -8, -8, ""], ["CDISCPILOT01", "SV", "01-708-1084", 2.0, "SCREENING 2", -1, "SCREENING", "2013-05-06", "2013-05-06", -3, -3, ""], ["CDISCPILOT01", "SV", "01-708-1084", 3.0, "BASELINE", 1, "TREATMENT", "2013-05-09", "2013-05-09", 1, 1, ""], ["CDISCPILOT01", "SV", "01-708-1084", 3.5, "AMBUL ECG PLACEMENT", 13, "TREATMENT", "2013-05-23", "2013-05-23", 15, 15, ""], ["CDISCPILOT01", "SV", "01-708-1084", 4.0, "WEEK 2", 14, "TREATMENT", "2013-05-23", "2013-05-23", 15, 15, ""], ["CDISCPILOT01", "SV", "01-708-1084", 5.0, "WEEK 4", 28, "TREATMENT", "2013-06-09", "2013-06-09", 32, 32, ""], ["CDISCPILOT01", "SV", "01-708-1084", 6.0, "AMBUL ECG REMOVAL", 30, "TREATMENT", "2013-06-11", "2013-06-11", 34, 34, ""], ["CDISCPILOT01", "SV", "01-708-1084", 7.0, "WEEK 6", 42, "TREATMENT", "2013-06-23", "2013-06-23", 46, 46, ""], ["CDISCPILOT01", "SV", "01-708-1084", 8.0, "WEEK 8", 56, "TREATMENT", "2013-07-07", "2013-07-07", 60, 60, ""], ["CDISCPILOT01", "SV", "01-708-1084", 8.1, "WEEK 10 (T)", 70, "TREATMENT", "2013-07-21", "2013-07-21", 74, 74, ""], ["CDISCPILOT01", "SV", "01-708-1084", 9.0, "WEEK 12", 84, "TREATMENT", "2013-08-01", "2013-08-01", 85, 85, ""], ["CDISCPILOT01", "SV", "01-708-1084", 9.1, "WEEK 14 (T)", 98, "TREATMENT", "2013-08-19", "2013-08-19", 103, 103, ""], ["CDISCPILOT01", "SV", "01-708-1084", 9.2, "UNSCHEDULED 9.2", null, "TREATMENT", "2013-08-19", "2013-08-19", 103, 103, "Unplanned visit to complete unscheduled assessments"], ["CDISCPILOT01", "SV", "01-708-1084", 10.0, "WEEK 16", 112, "TREATMENT", "2013-09-01", "2013-09-01", 116, 116, ""], ["CDISCPILOT01", "SV", "01-708-1084", 10.1, "WEEK 18 (T)", 126, "TREATMENT", "2013-09-15", "2013-09-15", 130, 130, ""], ["CDISCPILOT01", "SV", "01-708-1084", 11.0, "WEEK 20", 140, "TREATMENT", "2013-10-01", "2013-10-01", 146, 146, ""], ["CDISCPILOT01", "SV", "01-708-1084", 11.1, "WEEK 22 (T)", 154, "TREATMENT", "2013-10-15", "2013-10-15", 160, 160, ""], ["CDISCPILOT01", "SV", "01-708-1084", 12.0, "WEEK 24", 168, "TREATMENT", "2013-10-28", "2013-10-28", 173, 173, ""], ["CDISCPILOT01", "SV", "01-708-1084", 13.0, "WEEK 26", 182, "TREATMENT", "2013-11-11", "2013-11-11", 187, 187, ""], ["CDISCPILOT01", "SV", "01-708-1087", 1.0, "SCREENING 1", -7, "SCREENING", "2012-10-06", "2012-10-06", -16, -16, ""], ["CDISCPILOT01", "SV", "01-708-1087", 2.0, "SCREENING 2", -1, "SCREENING", "2012-10-20", "2012-10-20", -2, -2, ""], ["CDISCPILOT01", "SV", "01-708-1087", 3.0, "BASELINE", 1, "TREATMENT", "2012-10-22", "2012-10-22", 1, 1, ""], ["CDISCPILOT01", "SV", "01-708-1087", 3.5, "AMBUL ECG PLACEMENT", 13, "TREATMENT", "2012-11-04", "2012-11-04", 14, 14, ""], ["CDISCPILOT01", "SV", "01-708-1087", 4.0, "WEEK 2", 14, "TREATMENT", "2012-11-05", "2012-11-05", 15, 15, ""], ["CDISCPILOT01", "SV", "01-708-1087", 5.0, "WEEK 4", 28, "TREATMENT", "2012-11-20", "2012-11-20", 30, 30, ""], ["CDISCPILOT01", "SV", "01-708-1087", 6.0, "AMBUL ECG REMOVAL", 30, "TREATMENT", "2012-11-25", "2012-11-25", 35, 35, ""], ["CDISCPILOT01", "SV", "01-708-1087", 7.0, "WEEK 6", 42, "TREATMENT", "2012-12-08", "2012-12-08", 48, 48, ""], ["CDISCPILOT01", "SV", "01-708-1087", 8.0, "WEEK 8", 56, "TREATMENT", "2012-12-22", "2012-12-22", 62, 62, ""], ["CDISCPILOT01", "SV", "01-708-1087", 8.1, "WEEK 10 (T)", 70, "TREATMENT", "2013-01-05", "2013-01-05", 76, 76, ""], ["CDISCPILOT01", "SV", "01-708-1087", 9.0, "WEEK 12", 84, "TREATMENT", "2013-01-19", "2013-01-19", 90, 90, ""], ["CDISCPILOT01", "SV", "01-708-1087", 9.1, "WEEK 14 (T)", 98, "TREATMENT", "2013-02-02", "2013-02-02", 104, 104, ""], ["CDISCPILOT01", "SV", "01-708-1087", 10.0, "WEEK 16", 112, "TREATMENT", "2013-02-16", "2013-02-16", 118, 118, ""], ["CDISCPILOT01", "SV", "01-708-1087", 10.1, "WEEK 18 (T)", 126, "TREATMENT", "2013-03-02", "2013-03-02", 132, 132, ""], ["CDISCPILOT01", "SV", "01-708-1087", 11.0, "WEEK 20", 140, "TREATMENT", "2013-03-16", "2013-03-16", 146, 146, ""], ["CDISCPILOT01", "SV", "01-708-1087", 11.1, "WEEK 22 (T)", 154, "TREATMENT", "2013-03-30", "2013-03-30", 160, 160, ""], ["CDISCPILOT01", "SV", "01-708-1087", 12.0, "WEEK 24", 168, "TREATMENT", "2013-04-10", "2013-04-10", 171, 171, ""], ["CDISCPILOT01", "SV", "01-708-1087", 13.0, "WEEK 26", 182, "TREATMENT", "2013-04-28", "2013-04-28", 189, 189, ""], ["CDISCPILOT01", "SV", "01-708-1104", 1.0, "SCREENING 1", -7, "SCREENING", "2014-01-23", "2014-01-23", null, null, ""], ["CDISCPILOT01", "SV", "01-708-1158", 1.0, "SCREENING 1", -7, "SCREENING", "2014-02-01", "2014-02-01", -7, -7, ""], ["CDISCPILOT01", "SV", "01-708-1158", 1.1, "UNSCHEDULED 1.1", null, "SCREENING", "2014-02-01", "2014-02-01", -7, -7, "Unplanned visit to complete unscheduled assessments"], ["CDISCPILOT01", "SV", "01-708-1158", 1.2, "UNSCHEDULED 1.2", null, "TREATMENT", "2014-02-26", "2014-02-26", 19, 19, "Unplanned visit to complete unscheduled assessments"], ["CDISCPILOT01", "SV", "01-708-1158", 2.0, "SCREENING 2", -1, "SCREENING", "2014-02-06", "2014-02-06", -2, -2, ""], ["CDISCPILOT01", "SV", "01-708-1158", 3.0, "BASELINE", 1, "TREATMENT", "2014-02-08", "2014-02-08", 1, 1, ""], ["CDISCPILOT01", "SV", "01-708-1158", 3.5, "AMBUL ECG PLACEMENT", 13, "TREATMENT", "2014-02-25", "2014-02-25", 18, 18, ""], ["CDISCPILOT01", "SV", "01-708-1158", 4.0, "WEEK 2", 14, "TREATMENT", "2014-02-26", "2014-02-26", 19, 19, ""], ["CDISCPILOT01", "SV", "01-708-1158", 5.0, "WEEK 4", 28, "TREATMENT", "2014-03-06", "2014-03-06", 27, 27, ""], ["CDISCPILOT01", "SV", "01-708-1158", 6.0, "AMBUL ECG REMOVAL", 30, "TREATMENT", "2014-03-08", "2014-03-08", 29, 29, ""], ["CDISCPILOT01", "SV", "01-708-1158", 7.0, "WEEK 6", 42, "TREATMENT", "2014-03-22", "2014-03-22", 43, 43, ""], ["CDISCPILOT01", "SV", "01-708-1171", 1.0, "SCREENING 1", -7, "SCREENING", "2012-11-25", "2012-11-25", -11, -11, ""], ["CDISCPILOT01", "SV", "01-708-1171", 2.0, "SCREENING 2", -1, "SCREENING", "2012-12-02", "2012-12-02", -4, -4, ""], ["CDISCPILOT01", "SV", "01-708-1171", 3.0, "BASELINE", 1, "TREATMENT", "2012-12-06", "2012-12-06", 1, 1, ""], ["CDISCPILOT01", "SV", "01-708-1171", 3.5, "AMBUL ECG PLACEMENT", 13, "TREATMENT", "2012-12-17", "2012-12-17", 12, 12, ""], ["CDISCPILOT01", "SV", "01-708-1171", 4.0, "WEEK 2", 14, "TREATMENT", "2012-12-18", "2012-12-18", 13, 13, ""], ["CDISCPILOT01", "SV", "01-708-1171", 5.0, "WEEK 4", 28, "TREATMENT", "2012-12-31", "2012-12-31", 26, 26, ""], ["CDISCPILOT01", "SV", "01-708-1171", 6.0, "AMBUL ECG REMOVAL", 30, "TREATMENT", "2013-01-02", "2013-01-02", 28, 28, ""], ["CDISCPILOT01", "SV", "01-708-1171", 7.0, "WEEK 6", 42, "TREATMENT", "2013-01-14", "2013-01-14", 40, 40, ""], ["CDISCPILOT01", "SV", "01-708-1171", 8.0, "WEEK 8", 56, "TREATMENT", "2013-01-28", "2013-01-28", 54, 54, ""], ["CDISCPILOT01", "SV", "01-708-1171", 8.1, "WEEK 10 (T)", 70, "TREATMENT", "2013-02-11", "2013-02-11", 68, 68, ""], ["CDISCPILOT01", "SV", "01-708-1171", 9.0, "WEEK 12", 84, "TREATMENT", "2013-02-25", "2013-02-25", 82, 82, ""], ["CDISCPILOT01", "SV", "01-708-1171", 9.1, "WEEK 14 (T)", 98, "TREATMENT", "2013-03-11", "2013-03-11", 96, 96, ""], ["CDISCPILOT01", "SV", "01-708-1171", 10.0, "WEEK 16", 112, "TREATMENT", "2013-03-25", "2013-03-25", 110, 110, ""], ["CDISCPILOT01", "SV", "01-708-1171", 10.1, "WEEK 18 (T)", 126, "TREATMENT", "2013-04-08", "2013-04-08", 124, 124, ""], ["CDISCPILOT01", "SV", "01-708-1171", 11.0, "WEEK 20", 140, "TREATMENT", "2013-04-22", "2013-04-22", 138, 138, ""], ["CDISCPILOT01", "SV", "01-708-1171", 11.1, "WEEK 22 (T)", 154, "TREATMENT", "2013-05-02", "2013-05-02", 148, 148, ""], ["CDISCPILOT01", "SV", "01-708-1171", 12.0, "WEEK 24", 168, "TREATMENT", "2013-05-20", "2013-05-20", 166, 166, ""], ["CDISCPILOT01", "SV", "01-708-1171", 13.0, "WEEK 26", 182, "TREATMENT", "2013-06-04", "2013-06-04", 181, 181, ""], ["CDISCPILOT01", "SV", "01-708-1178", 1.0, "SCREENING 1", -7, "SCREENING", "2013-12-13", "2013-12-13", -16, -16, ""], ["CDISCPILOT01", "SV", "01-708-1178", 1.1, "UNSCHEDULED 1.1", null, "SCREENING", "2013-12-19", "2013-12-19", -10, -10, "Unplanned visit to complete unscheduled assessments"], ["CDISCPILOT01", "SV", "01-708-1178", 1.2, "UNSCHEDULED 1.2", null, "SCREENING", "2013-12-26", "2013-12-26", -3, -3, "Unplanned visit to complete unscheduled assessments"], ["CDISCPILOT01", "SV", "01-708-1178", 2.0, "SCREENING 2", -1, "SCREENING", "2013-12-19", "2013-12-19", -10, -10, ""], ["CDISCPILOT01", "SV", "01-708-1178", 3.0, "BASELINE", 1, "TREATMENT", "2013-12-29", "2013-12-29", 1, 1, ""], ["CDISCPILOT01", "SV", "01-708-1178", 3.5, "AMBUL ECG PLACEMENT", 13, "TREATMENT", "2014-01-09", "2014-01-09", 12, 12, ""], ["CDISCPILOT01", "SV", "01-708-1178", 4.0, "WEEK 2", 14, "TREATMENT", "2014-01-18", "2014-01-18", 21, 21, ""], ["CDISCPILOT01", "SV", "01-708-1178", 5.0, "WEEK 4", 28, "TREATMENT", "2014-02-02", "2014-02-02", 36, 36, ""], ["CDISCPILOT01", "SV", "01-708-1178", 6.0, "AMBUL ECG REMOVAL", 30, "TREATMENT", "2014-02-07", "2014-02-07", 41, 41, ""], ["CDISCPILOT01", "SV", "01-708-1178", 7.0, "WEEK 6", 42, "TREATMENT", "2014-02-23", "2014-02-23", 57, 57, ""], ["CDISCPILOT01", "SV", "01-708-1178", 8.0, "WEEK 8", 56, "TREATMENT", "2014-03-09", "2014-03-09", 71, 71, ""], ["CDISCPILOT01", "SV", "01-708-1178", 8.1, "WEEK 10 (T)", 70, "TREATMENT", "2014-03-27", "2014-03-27", 89, 89, ""], ["CDISCPILOT01", "SV", "01-708-1178", 9.0, "WEEK 12", 84, "TREATMENT", "2014-04-06", "2014-04-06", 99, 99, ""], ["CDISCPILOT01", "SV", "01-708-1184", 1.0, "SCREENING 1", -7, "SCREENING", "2013-01-14", "2013-01-14", null, null, ""], ["CDISCPILOT01", "SV", "01-708-1213", 1.0, "SCREENING 1", -7, "SCREENING", "2013-02-01", "2013-02-01", -8, -8, ""], ["CDISCPILOT01", "SV", "01-708-1213", 2.0, "SCREENING 2", -1, "SCREENING", "2013-02-07", "2013-02-07", -2, -2, ""], ["CDISCPILOT01", "SV", "01-708-1213", 3.0, "BASELINE", 1, "TREATMENT", "2013-02-09", "2013-02-09", 1, 1, ""], ["CDISCPILOT01", "SV", "01-708-1213", 4.0, "WEEK 2", 14, "TREATMENT", "2013-02-22", "2013-02-22", 14, 14, ""], ["CDISCPILOT01", "SV", "01-708-1213", 5.0, "WEEK 4", 28, "TREATMENT", "2013-02-26", "2013-02-26", 18, 18, ""], ["CDISCPILOT01", "SV", "01-708-1216", 1.0, "SCREENING 1", -7, "SCREENING", "2012-10-14", "2012-10-14", -10, -10, ""], ["CDISCPILOT01", "SV", "01-708-1216", 2.0, "SCREENING 2", -1, "SCREENING", "2012-10-19", "2012-10-19", -5, -5, ""], ["CDISCPILOT01", "SV", "01-708-1216", 3.0, "BASELINE", 1, "TREATMENT", "2012-10-24", "2012-10-24", 1, 1, ""], ["CDISCPILOT01", "SV", "01-708-1216", 3.5, "AMBUL ECG PLACEMENT", 13, "TREATMENT", "2012-11-07", "2012-11-07", 15, 15, ""], ["CDISCPILOT01", "SV", "01-708-1216", 4.0, "WEEK 2", 14, "TREATMENT", "2012-11-08", "2012-11-08", 16, 16, ""], ["CDISCPILOT01", "SV", "01-708-1216", 5.0, "WEEK 4", 28, "TREATMENT", "2012-11-22", "2012-11-22", 30, 30, ""], ["CDISCPILOT01", "SV", "01-708-1216", 6.0, "AMBUL ECG REMOVAL", 30, "TREATMENT", "2012-11-24", "2012-11-24", 32, 32, ""], ["CDISCPILOT01", "SV", "01-708-1216", 7.0, "WEEK 6", 42, "TREATMENT", "2012-12-06", "2012-12-06", 44, 44, ""], ["CDISCPILOT01", "SV", "01-708-1216", 101.0, "AE FOLLOW-UP", null, "FOLLOW-UP", "2013-01-09", "2013-01-09", 78, 78, ""], ["CDISCPILOT01", "SV", "01-708-1236", 1.0, "SCREENING 1", -7, "SCREENING", "2013-09-08", "2013-09-08", -13, -13, ""], ["CDISCPILOT01", "SV", "01-708-1236", 1.1, "UNSCHEDULED 1.1", null, "SCREENING", "2013-09-19", "2013-09-19", -2, -2, "Unplanned visit to complete unscheduled assessments"], ["CDISCPILOT01", "SV", "01-708-1236", 2.0, "SCREENING 2", -1, "SCREENING", "2013-09-19", "2013-09-19", -2, -2, ""], ["CDISCPILOT01", "SV", "01-708-1236", 3.0, "BASELINE", 1, "TREATMENT", "2013-09-21", "2013-09-21", 1, 1, ""], ["CDISCPILOT01", "SV", "01-708-1236", 4.0, "WEEK 2", 14, "TREATMENT", "2013-09-26", "2013-09-26", 6, 6, ""], ["CDISCPILOT01", "SV", "01-708-1242", 1.0, "SCREENING 1", -7, "SCREENING", "2012-08-13", "2012-08-13", null, null, ""], ["CDISCPILOT01", "SV", "01-708-1253", 1.0, "SCREENING 1", -7, "SCREENING", "2013-04-26", "2013-04-26", -11, -11, ""], ["CDISCPILOT01", "SV", "01-708-1253", 2.0, "SCREENING 2", -1, "SCREENING", "2013-05-05", "2013-05-05", -2, -2, ""], ["CDISCPILOT01", "SV", "01-708-1253", 3.0, "BASELINE", 1, "TREATMENT", "2013-05-07", "2013-05-07", 1, 1, ""], ["CDISCPILOT01", "SV", "01-708-1253", 3.5, "AMBUL ECG PLACEMENT", 13, "TREATMENT", "2013-05-20", "2013-05-20", 14, 14, ""], ["CDISCPILOT01", "SV", "01-708-1253", 4.0, "WEEK 2", 14, "TREATMENT", "2013-05-21", "2013-05-21", 15, 15, ""], ["CDISCPILOT01", "SV", "01-708-1253", 4.1, "UNSCHEDULED 4.1", null, "TREATMENT", "2013-05-21", "2013-05-21", 15, 15, "Unplanned visit to complete unscheduled assessments"], ["CDISCPILOT01", "SV", "01-708-1253", 5.0, "WEEK 4", 28, "TREATMENT", "2013-06-07", "2013-06-07", 32, 32, ""], ["CDISCPILOT01", "SV", "01-708-1253", 6.0, "AMBUL ECG REMOVAL", 30, "TREATMENT", "2013-06-09", "2013-06-09", 34, 34, ""], ["CDISCPILOT01", "SV", "01-708-1253", 7.0, "WEEK 6", 42, "TREATMENT", "2013-06-25", "2013-06-25", 50, 50, ""], ["CDISCPILOT01", "SV", "01-708-1253", 8.0, "WEEK 8", 56, "TREATMENT", "2013-07-09", "2013-07-09", 64, 64, ""], ["CDISCPILOT01", "SV", "01-708-1253", 8.1, "WEEK 10 (T)", 70, "TREATMENT", "2013-07-26", "2013-07-26", 81, 81, ""], ["CDISCPILOT01", "SV", "01-708-1253", 9.0, "WEEK 12", 84, "TREATMENT", "2013-08-05", "2013-08-05", 91, 91, ""], ["CDISCPILOT01", "SV", "01-708-1253", 9.1, "WEEK 14 (T)", 98, "TREATMENT", "2013-08-20", "2013-08-20", 106, 106, ""], ["CDISCPILOT01", "SV", "01-708-1253", 10.0, "WEEK 16", 112, "TREATMENT", "2013-09-02", "2013-09-02", 119, 119, ""], ["CDISCPILOT01", "SV", "01-708-1253", 10.1, "WEEK 18 (T)", 126, "TREATMENT", "2013-09-16", "2013-09-16", 133, 133, ""], ["CDISCPILOT01", "SV", "01-708-1253", 11.0, "WEEK 20", 140, "TREATMENT", "2013-09-29", "2013-09-29", 146, 146, ""], ["CDISCPILOT01", "SV", "01-708-1253", 11.1, "WEEK 22 (T)", 154, "TREATMENT", "2013-10-13", "2013-10-13", 160, 160, ""], ["CDISCPILOT01", "SV", "01-708-1253", 12.0, "WEEK 24", 168, "TREATMENT", "2013-10-27", "2013-10-27", 174, 174, ""], ["CDISCPILOT01", "SV", "01-708-1253", 13.0, "WEEK 26", 182, "TREATMENT", "2013-11-05", "2013-11-05", 183, 183, ""], ["CDISCPILOT01", "SV", "01-708-1272", 1.0, "SCREENING 1", -7, "SCREENING", "2013-01-22", "2013-01-22", -15, -15, ""], ["CDISCPILOT01", "SV", "01-708-1272", 2.0, "SCREENING 2", -1, "SCREENING", "2013-01-30", "2013-01-30", -7, -7, ""], ["CDISCPILOT01", "SV", "01-708-1272", 3.0, "BASELINE", 1, "TREATMENT", "2013-02-06", "2013-02-06", 1, 1, ""], ["CDISCPILOT01", "SV", "01-708-1272", 3.5, "AMBUL ECG PLACEMENT", 13, "TREATMENT", "2013-02-19", "2013-02-19", 14, 14, ""], ["CDISCPILOT01", "SV", "01-708-1272", 4.0, "WEEK 2", 14, "TREATMENT", "2013-02-21", "2013-02-21", 16, 16, ""], ["CDISCPILOT01", "SV", "01-708-1272", 5.0, "WEEK 4", 28, "TREATMENT", "2013-03-07", "2013-03-07", 30, 30, ""], ["CDISCPILOT01", "SV", "01-708-1272", 6.0, "AMBUL ECG REMOVAL", 30, "TREATMENT", "2013-03-09", "2013-03-09", 32, 32, ""], ["CDISCPILOT01", "SV", "01-708-1272", 7.0, "WEEK 6", 42, "TREATMENT", "2013-03-20", "2013-03-20", 43, 43, ""], ["CDISCPILOT01", "SV", "01-708-1272", 8.0, "WEEK 8", 56, "TREATMENT", "2013-04-04", "2013-04-04", 58, 58, ""], ["CDISCPILOT01", "SV", "01-708-1286", 1.0, "SCREENING 1", -7, "SCREENING", "2013-08-25", "2013-08-25", -16, -16, ""], ["CDISCPILOT01", "SV", "01-708-1286", 2.0, "SCREENING 2", -1, "SCREENING", "2013-09-08", "2013-09-08", -2, -2, ""], ["CDISCPILOT01", "SV", "01-708-1286", 3.0, "BASELINE", 1, "TREATMENT", "2013-09-10", "2013-09-10", 1, 1, ""], ["CDISCPILOT01", "SV", "01-708-1286", 3.5, "AMBUL ECG PLACEMENT", 13, "TREATMENT", "2013-09-22", "2013-09-22", 13, 13, ""], ["CDISCPILOT01", "SV", "01-708-1286", 4.0, "WEEK 2", 14, "TREATMENT", "2013-09-23", "2013-09-23", 14, 14, ""], ["CDISCPILOT01", "SV", "01-708-1286", 5.0, "WEEK 4", 28, "TREATMENT", "2013-10-07", "2013-10-07", 28, 28, ""], ["CDISCPILOT01", "SV", "01-708-1286", 6.0, "AMBUL ECG REMOVAL", 30, "TREATMENT", "2013-10-09", "2013-10-09", 30, 30, ""], ["CDISCPILOT01", "SV", "01-708-1286", 7.0, "WEEK 6", 42, "TREATMENT", "2013-10-20", "2013-10-20", 41, 41, ""], ["CDISCPILOT01", "SV", "01-708-1286", 8.0, "WEEK 8", 56, "TREATMENT", "2013-11-03", "2013-11-03", 55, 55, ""], ["CDISCPILOT01", "SV", "01-708-1286", 8.1, "WEEK 10 (T)", 70, "TREATMENT", "2013-11-17", "2013-11-17", 69, 69, ""], ["CDISCPILOT01", "SV", "01-708-1286", 9.0, "WEEK 12", 84, "TREATMENT", "2013-12-01", "2013-12-01", 83, 83, ""], ["CDISCPILOT01", "SV", "01-708-1286", 9.1, "WEEK 14 (T)", 98, "TREATMENT", "2013-12-17", "2013-12-17", 99, 99, ""], ["CDISCPILOT01", "SV", "01-708-1286", 10.0, "WEEK 16", 112, "TREATMENT", "2013-12-29", "2013-12-29", 111, 111, ""], ["CDISCPILOT01", "SV", "01-708-1286", 10.1, "WEEK 18 (T)", 126, "TREATMENT", "2014-01-18", "2014-01-18", 131, 131, ""], ["CDISCPILOT01", "SV", "01-708-1286", 11.0, "WEEK 20", 140, "TREATMENT", "2014-02-01", "2014-02-01", 145, 145, ""], ["CDISCPILOT01", "SV", "01-708-1286", 11.1, "WEEK 22 (T)", 154, "TREATMENT", "2014-02-17", "2014-02-17", 161, 161, ""], ["CDISCPILOT01", "SV", "01-708-1286", 12.0, "WEEK 24", 168, "TREATMENT", "2014-02-23", "2014-02-23", 167, 167, ""], ["CDISCPILOT01", "SV", "01-708-1286", 13.0, "WEEK 26", 182, "TREATMENT", "2014-03-08", "2014-03-08", 180, 180, ""], ["CDISCPILOT01", "SV", "01-708-1296", 1.0, "SCREENING 1", -7, "SCREENING", "2013-06-07", "2013-06-07", -7, -7, ""], ["CDISCPILOT01", "SV", "01-708-1296", 2.0, "SCREENING 2", -1, "SCREENING", "2013-06-12", "2013-06-12", -2, -2, ""], ["CDISCPILOT01", "SV", "01-708-1296", 3.0, "BASELINE", 1, "TREATMENT", "2013-06-14", "2013-06-14", 1, 1, ""], ["CDISCPILOT01", "SV", "01-708-1296", 3.5, "AMBUL ECG PLACEMENT", 13, "TREATMENT", "2013-06-26", "2013-06-26", 13, 13, ""], ["CDISCPILOT01", "SV", "01-708-1296", 4.0, "WEEK 2", 14, "TREATMENT", "2013-06-27", "2013-06-27", 14, 14, ""], ["CDISCPILOT01", "SV", "01-708-1296", 5.0, "WEEK 4", 28, "TREATMENT", "2013-07-10", "2013-07-10", 27, 27, ""], ["CDISCPILOT01", "SV", "01-708-1296", 6.0, "AMBUL ECG REMOVAL", 30, "TREATMENT", "2013-07-12", "2013-07-12", 29, 29, ""], ["CDISCPILOT01", "SV", "01-708-1296", 7.0, "WEEK 6", 42, "TREATMENT", "2013-07-24", "2013-07-24", 41, 41, ""], ["CDISCPILOT01", "SV", "01-708-1296", 8.0, "WEEK 8", 56, "TREATMENT", "2013-08-07", "2013-08-07", 55, 55, ""], ["CDISCPILOT01", "SV", "01-708-1296", 8.1, "WEEK 10 (T)", 70, "TREATMENT", "2013-08-20", "2013-08-20", 68, 68, ""], ["CDISCPILOT01", "SV", "01-708-1296", 9.0, "WEEK 12", 84, "TREATMENT", "2013-09-04", "2013-09-04", 83, 83, ""], ["CDISCPILOT01", "SV", "01-708-1296", 9.1, "WEEK 14 (T)", 98, "TREATMENT", "2013-09-18", "2013-09-18", 97, 97, ""], ["CDISCPILOT01", "SV", "01-708-1296", 10.0, "WEEK 16", 112, "TREATMENT", "2013-10-02", "2013-10-02", 111, 111, ""], ["CDISCPILOT01", "SV", "01-708-1296", 10.1, "WEEK 18 (T)", 126, "TREATMENT", "2013-10-21", "2013-10-21", 130, 130, ""], ["CDISCPILOT01", "SV", "01-708-1296", 11.0, "WEEK 20", 140, "TREATMENT", "2013-10-30", "2013-10-30", 139, 139, ""], ["CDISCPILOT01", "SV", "01-708-1296", 11.1, "WEEK 22 (T)", 154, "TREATMENT", "2013-11-14", "2013-11-14", 154, 154, ""], ["CDISCPILOT01", "SV", "01-708-1296", 12.0, "WEEK 24", 168, "TREATMENT", "2013-11-27", "2013-11-27", 167, 167, ""], ["CDISCPILOT01", "SV", "01-708-1296", 13.0, "WEEK 26", 182, "TREATMENT", "2013-12-12", "2013-12-12", 182, 182, ""], ["CDISCPILOT01", "SV", "01-708-1297", 1.0, "SCREENING 1", -7, "SCREENING", "2013-01-15", "2013-01-15", -10, -10, ""], ["CDISCPILOT01", "SV", "01-708-1297", 2.0, "SCREENING 2", -1, "SCREENING", "2013-01-23", "2013-01-23", -2, -2, ""], ["CDISCPILOT01", "SV", "01-708-1297", 3.0, "BASELINE", 1, "TREATMENT", "2013-01-25", "2013-01-25", 1, 1, ""], ["CDISCPILOT01", "SV", "01-708-1297", 3.5, "AMBUL ECG PLACEMENT", 13, "TREATMENT", "2013-02-07", "2013-02-07", 14, 14, ""], ["CDISCPILOT01", "SV", "01-708-1297", 4.0, "WEEK 2", 14, "TREATMENT", "2013-02-08", "2013-02-08", 15, 15, ""], ["CDISCPILOT01", "SV", "01-708-1297", 5.0, "WEEK 4", 28, "TREATMENT", "2013-02-20", "2013-02-20", 27, 27, ""], ["CDISCPILOT01", "SV", "01-708-1297", 6.0, "AMBUL ECG REMOVAL", 30, "TREATMENT", "2013-02-22", "2013-02-22", 29, 29, ""], ["CDISCPILOT01", "SV", "01-708-1297", 7.0, "WEEK 6", 42, "TREATMENT", "2013-03-06", "2013-03-06", 41, 41, ""], ["CDISCPILOT01", "SV", "01-708-1297", 8.0, "WEEK 8", 56, "TREATMENT", "2013-03-19", "2013-03-19", 54, 54, ""], ["CDISCPILOT01", "SV", "01-708-1297", 8.1, "WEEK 10 (T)", 70, "TREATMENT", "2013-04-02", "2013-04-02", 68, 68, ""], ["CDISCPILOT01", "SV", "01-708-1297", 9.0, "WEEK 12", 84, "TREATMENT", "2013-04-16", "2013-04-16", 82, 82, ""], ["CDISCPILOT01", "SV", "01-708-1297", 9.1, "WEEK 14 (T)", 98, "TREATMENT", "2013-04-30", "2013-04-30", 96, 96, ""], ["CDISCPILOT01", "SV", "01-708-1297", 10.0, "WEEK 16", 112, "TREATMENT", "2013-05-08", "2013-05-08", 104, 104, ""], ["CDISCPILOT01", "SV", "01-708-1297", 101.0, "AE FOLLOW-UP", null, "FOLLOW-UP", "2013-06-07", "2013-06-07", 134, 134, ""], ["CDISCPILOT01", "SV", "01-708-1316", 1.0, "SCREENING 1", -7, "SCREENING", "2013-08-15", "2013-08-15", -8, -8, ""], ["CDISCPILOT01", "SV", "01-708-1316", 2.0, "SCREENING 2", -1, "SCREENING", "2013-08-22", "2013-08-22", -1, -1, ""], ["CDISCPILOT01", "SV", "01-708-1316", 3.0, "BASELINE", 1, "TREATMENT", "2013-08-23", "2013-08-23", 1, 1, ""], ["CDISCPILOT01", "SV", "01-708-1316", 4.0, "WEEK 2", 14, "TREATMENT", "2013-09-05", "2013-09-05", 14, 14, ""], ["CDISCPILOT01", "SV", "01-708-1316", 5.0, "WEEK 4", 28, "TREATMENT", "2013-09-22", "2013-09-22", 31, 31, ""], ["CDISCPILOT01", "SV", "01-708-1316", 7.0, "WEEK 6", 42, "TREATMENT", "2013-10-10", "2013-10-10", 49, 49, ""], ["CDISCPILOT01", "SV", "01-708-1316", 8.0, "WEEK 8", 56, "TREATMENT", "2013-10-25", "2013-10-25", 64, 64, ""], ["CDISCPILOT01", "SV", "01-708-1316", 8.1, "WEEK 10 (T)", 70, "TREATMENT", "2013-11-08", "2013-11-08", 78, 78, ""], ["CDISCPILOT01", "SV", "01-708-1316", 9.0, "WEEK 12", 84, "TREATMENT", "2013-11-22", "2013-11-22", 92, 92, ""], ["CDISCPILOT01", "SV", "01-708-1316", 9.1, "WEEK 14 (T)", 98, "TREATMENT", "2013-12-06", "2013-12-06", 106, 106, ""], ["CDISCPILOT01", "SV", "01-708-1316", 10.0, "WEEK 16", 112, "TREATMENT", "2013-12-21", "2013-12-21", 121, 121, ""], ["CDISCPILOT01", "SV", "01-708-1316", 10.1, "WEEK 18 (T)", 126, "TREATMENT", "2014-01-05", "2014-01-05", 136, 136, ""], ["CDISCPILOT01", "SV", "01-708-1316", 11.0, "WEEK 20", 140, "TREATMENT", "2014-01-18", "2014-01-18", 149, 149, ""], ["CDISCPILOT01", "SV", "01-708-1316", 11.1, "WEEK 22 (T)", 154, "TREATMENT", "2014-02-07", "2014-02-07", 169, 169, ""], ["CDISCPILOT01", "SV", "01-708-1316", 12.0, "WEEK 24", 168, "TREATMENT", "2014-02-15", "2014-02-15", 177, 177, ""], ["CDISCPILOT01", "SV", "01-708-1316", 13.0, "WEEK 26", 182, "TREATMENT", "2014-03-01", "2014-03-01", 191, 191, ""], ["CDISCPILOT01", "SV", "01-708-1336", 1.0, "SCREENING 1", -7, "SCREENING", "2012-11-21", "2012-11-21", -16, -16, ""], ["CDISCPILOT01", "SV", "01-708-1336", 2.0, "SCREENING 2", -1, "SCREENING", "2012-12-05", "2012-12-05", -2, -2, ""], ["CDISCPILOT01", "SV", "01-708-1336", 3.0, "BASELINE", 1, "TREATMENT", "2012-12-07", "2012-12-07", 1, 1, ""], ["CDISCPILOT01", "SV", "01-708-1336", 3.5, "AMBUL ECG PLACEMENT", 13, "TREATMENT", "2012-12-20", "2012-12-20", 14, 14, ""], ["CDISCPILOT01", "SV", "01-708-1336", 4.0, "WEEK 2", 14, "TREATMENT", "2012-12-21", "2012-12-21", 15, 15, ""], ["CDISCPILOT01", "SV", "01-708-1336", 5.0, "WEEK 4", 28, "TREATMENT", "2013-01-01", "2013-01-01", 26, 26, ""], ["CDISCPILOT01", "SV", "01-708-1336", 6.0, "AMBUL ECG REMOVAL", 30, "TREATMENT", "2013-01-03", "2013-01-03", 28, 28, ""], ["CDISCPILOT01", "SV", "01-708-1336", 7.0, "WEEK 6", 42, "TREATMENT", "2013-01-15", "2013-01-15", 40, 40, ""], ["CDISCPILOT01", "SV", "01-708-1336", 8.0, "WEEK 8", 56, "TREATMENT", "2013-01-29", "2013-01-29", 54, 54, ""], ["CDISCPILOT01", "SV", "01-708-1336", 8.1, "WEEK 10 (T)", 70, "TREATMENT", "2013-02-08", "2013-02-08", 64, 64, ""], ["CDISCPILOT01", "SV", "01-708-1336", 9.0, "WEEK 12", 84, "TREATMENT", "2013-02-27", "2013-02-27", 83, 83, ""], ["CDISCPILOT01", "SV", "01-708-1336", 9.1, "WEEK 14 (T)", 98, "TREATMENT", "2013-03-13", "2013-03-13", 97, 97, ""], ["CDISCPILOT01", "SV", "01-708-1336", 10.0, "WEEK 16", 112, "TREATMENT", "2013-03-27", "2013-03-27", 111, 111, ""], ["CDISCPILOT01", "SV", "01-708-1336", 10.1, "WEEK 18 (T)", 126, "TREATMENT", "2013-04-10", "2013-04-10", 125, 125, ""], ["CDISCPILOT01", "SV", "01-708-1336", 11.0, "WEEK 20", 140, "TREATMENT", "2013-04-23", "2013-04-23", 138, 138, ""], ["CDISCPILOT01", "SV", "01-708-1336", 11.1, "WEEK 22 (T)", 154, "TREATMENT", "2013-05-07", "2013-05-07", 152, 152, ""], ["CDISCPILOT01", "SV", "01-708-1336", 12.0, "WEEK 24", 168, "TREATMENT", "2013-05-22", "2013-05-22", 167, 167, ""], ["CDISCPILOT01", "SV", "01-708-1336", 13.0, "WEEK 26", 182, "TREATMENT", "2013-06-05", "2013-06-05", 181, 181, ""], ["CDISCPILOT01", "SV", "01-708-1336", 101.0, "AE FOLLOW-UP", null, "FOLLOW-UP", "2013-07-05", "2013-07-05", 211, 211, ""], ["CDISCPILOT01", "SV", "01-708-1342", 1.0, "SCREENING 1", -7, "SCREENING", "2012-12-21", "2012-12-21", -8, -8, ""], ["CDISCPILOT01", "SV", "01-708-1342", 2.0, "SCREENING 2", -1, "SCREENING", "2012-12-27", "2012-12-27", -2, -2, ""], ["CDISCPILOT01", "SV", "01-708-1342", 3.0, "BASELINE", 1, "TREATMENT", "2012-12-29", "2012-12-29", 1, 1, ""], ["CDISCPILOT01", "SV", "01-708-1342", 3.5, "AMBUL ECG PLACEMENT", 13, "TREATMENT", "2013-01-11", "2013-01-11", 14, 14, ""], ["CDISCPILOT01", "SV", "01-708-1342", 4.0, "WEEK 2", 14, "TREATMENT", "2013-01-12", "2013-01-12", 15, 15, ""], ["CDISCPILOT01", "SV", "01-708-1342", 5.0, "WEEK 4", 28, "TREATMENT", "2013-01-24", "2013-01-24", 27, 27, ""], ["CDISCPILOT01", "SV", "01-708-1342", 6.0, "AMBUL ECG REMOVAL", 30, "TREATMENT", "2013-01-26", "2013-01-26", 29, 29, ""], ["CDISCPILOT01", "SV", "01-708-1342", 7.0, "WEEK 6", 42, "TREATMENT", "2013-02-07", "2013-02-07", 41, 41, ""], ["CDISCPILOT01", "SV", "01-708-1342", 8.0, "WEEK 8", 56, "TREATMENT", "2013-02-23", "2013-02-23", 57, 57, ""], ["CDISCPILOT01", "SV", "01-708-1342", 8.1, "WEEK 10 (T)", 70, "TREATMENT", "2013-03-12", "2013-03-12", 74, 74, ""], ["CDISCPILOT01", "SV", "01-708-1342", 9.0, "WEEK 12", 84, "TREATMENT", "2013-03-21", "2013-03-21", 83, 83, ""], ["CDISCPILOT01", "SV", "01-708-1342", 9.1, "WEEK 14 (T)", 98, "TREATMENT", "2013-04-05", "2013-04-05", 98, 98, ""], ["CDISCPILOT01", "SV", "01-708-1342", 10.0, "WEEK 16", 112, "TREATMENT", "2013-04-20", "2013-04-20", 113, 113, ""], ["CDISCPILOT01", "SV", "01-708-1342", 10.1, "WEEK 18 (T)", 126, "TREATMENT", "2013-05-04", "2013-05-04", 127, 127, ""], ["CDISCPILOT01", "SV", "01-708-1342", 11.0, "WEEK 20", 140, "TREATMENT", "2013-05-18", "2013-05-18", 141, 141, ""], ["CDISCPILOT01", "SV", "01-708-1342", 11.1, "WEEK 22 (T)", 154, "TREATMENT", "2013-06-04", "2013-06-04", 158, 158, ""], ["CDISCPILOT01", "SV", "01-708-1342", 12.0, "WEEK 24", 168, "TREATMENT", "2013-06-15", "2013-06-15", 169, 169, ""], ["CDISCPILOT01", "SV", "01-708-1342", 13.0, "WEEK 26", 182, "TREATMENT", "2013-06-28", "2013-06-28", 182, 182, ""], ["CDISCPILOT01", "SV", "01-708-1347", 1.0, "SCREENING 1", -7, "SCREENING", "2013-04-11", "2013-04-11", -9, -9, ""], ["CDISCPILOT01", "SV", "01-708-1347", 2.0, "SCREENING 2", -1, "SCREENING", "2013-04-18", "2013-04-18", -2, -2, ""], ["CDISCPILOT01", "SV", "01-708-1347", 3.0, "BASELINE", 1, "TREATMENT", "2013-04-20", "2013-04-20", 1, 1, ""], ["CDISCPILOT01"